ACCELEROMETER X (m/s²),ACCELEROMETER Y (m/s²),ACCELEROMETER Z (m/s²),GRAVITY X (m/s²),GRAVITY Y (m/s²),GRAVITY Z (m/s²),LINEAR ACCELERATION X (m/s²),LINEAR ACCELERATION Y (m/s²),LINEAR ACCELERATION Z (m/s²),GYROSCOPE X (rad/s),GYROSCOPE Y (rad/s),GYROSCOPE Z (rad/s),LIGHT (lux),MAGNETIC FIELD X (μT),MAGNETIC FIELD Y (μT),MAGNETIC FIELD Z (μT),ORIENTATION X (°),ORIENTATION Y (°),ORIENTATION Z (°),PROXIMITY (i),SOUND LEVEL (dB),LOCATION Latitude : ,LOCATION Longitude : ,LOCATION Altitude ( m),LOCATION Altitude-google ( m),LOCATION Speed ( Kmh),LOCATION Accuracy ( m),LOCATION ORIENTATION (°),Satellites in range,Time since start in ms ,YYYY-MO-DD HH-MI-SS_SSS
1.19171,-8.97646,4.31315,0.22505,-9.14854,3.52501,0.14066,0.26306,0.77138,-0.20458,0.03993,0.05178,105.0,-4.2,34.2,-0.66,19.525,68.889,-3.653,1.97,32.5585,,,,NaN,,,,0 / 0,4,2014-12-14 13:39:18:412
1.34734,-8.6724,4.63637,0.25259,-9.16261,3.48611,1.09475,0.49021,1.15026,-0.2163,-0.03038,0.00598,105.0,-3.9,33.72,0.06,19.525,68.889,-3.653,1.97,32.5585,,,,NaN,,,,0 / 0,54,2014-12-14 13:39:18:462
0.04729,-8.3013,4.35386,0.29254,-9.17772,3.44301,-0.24526,0.87643,0.91084,-0.27595,0.12728,0.03261,105.0,-3.72,33.48,1.14,17.81,69.198,-5.051,1.97,28.9723,,,,NaN,,,,0 / 0,104,2014-12-14 13:39:18:512
-0.1227,-8.2989,4.10007,0.2469,-9.19673,3.39543,-0.3696,0.89783,0.70464,-0.31004,0.07402,0.07841,115.0,-4.02,33.78,1.14,18.047,69.687,-4.159,1.97,28.9723,,,,NaN,,,,0 / 0,154,2014-12-14 13:39:18:562
-0.72604,-8.51677,3.87262,0.19632,-9.23084,3.30535,-0.92237,0.71407,0.56728,-0.45066,-0.10921,0.08054,115.0,-4.38,33.78,1.14,18.047,69.687,-4.159,1.97,28.9723,,,,NaN,,,,0 / 0,204,2014-12-14 13:39:18:612
0.01616,-8.3396,4.36104,0.16505,-9.27035,3.19446,-0.14889,0.93075,1.16657,-0.48262,-0.15075,0.07628,115.0,-4.5,33.6,0.84,18.379,70.267,-3.399,1.97,28.9723,,,,NaN,,,,0 / 0,253,2014-12-14 13:39:18:661
0.13108,-8.03314,3.39139,0.07916,-9.38347,2.8488,0.05192,1.35033,0.54259,-0.76704,-0.18164,0.1679,115.0,-4.02,33.18,3.0,18.285,73.106,-1.592,1.97,28.9723,,,,NaN,,,,0 / 0,304,2014-12-14 13:39:18:712
0.65541,-8.52874,3.57574,-0.03247,-9.4987,2.43805,0.73771,0.68459,1.18752,-0.84054,-0.12412,0.28081,129.0,-4.32,32.4,3.72,18.285,73.106,-1.592,1.97,28.9723,,,,NaN,,,,0 / 0,354,2014-12-14 13:39:18:762
1.45029,-8.35397,3.85347,-0.02858,-9.59446,2.02924,1.43024,0.10071,1.3846,-0.8448,-0.37765,0.15405,129.0,-3.84,31.62,4.2,18.373,75.603,0.763,1.97,28.9723,,,,NaN,,,,0 / 0,403,2014-12-14 13:39:18:811
-1.1546,-7.43699,4.27724,-0.07602,-9.63187,1.84174,0.40058,1.89052,1.72248,-1.02697,0.16989,0.31171,129.0,-3.48,30.3,5.34,14.664,79.166,2.363,1.97,41.7937,,,,NaN,,,,0 / 0,454,2014-12-14 13:39:18:862
-2.55042,-8.36833,5.75207,-0.42138,-9.6826,1.49697,-2.12904,1.31427,4.2551,-1.10899,-0.39576,0.4193,129.0,-3.48,29.4,6.72,14.664,79.166,2.363,1.97,41.7937,,,,NaN,,,,0 / 0,503,2014-12-14 13:39:18:911
-1.46585,-9.01716,-0.90621,-0.61052,-9.72106,1.14009,-0.85533,0.7039,-2.04629,-1.4552,-0.17099,0.52369,129.0,-3.24,28.32,7.38,356.632,82.422,28.169,1.97,41.7937,,,,NaN,,,,0 / 0,554,2014-12-14 13:39:18:962
2.62824,-13.70501,-9.93953,-1.09849,-9.73542,-0.43096,3.72672,-3.96959,-9.50857,-2.75909,1.17231,0.84753,135.0,-1.56,25.32,8.64,279.922,83.089,111.421,1.97,41.7937,,,,NaN,,,,0 / 0,604,2014-12-14 13:39:19:012
7.89308,-19.51813,-7.56448,-1.14069,-9.56813,-1.82274,9.03377,-9.95,-5.74174,-3.30557,2.05222,0.24033,135.0,-0.78,23.16,9.96,279.922,83.089,111.421,1.97,41.7937,,,,NaN,,,,0 / 0,654,2014-12-14 13:39:19:062
1.26115,-17.74881,-7.19577,-0.76734,-9.2482,-3.17082,2.02849,-8.50061,-4.02495,-4.2888,3.37314,-0.84837,135.0,-0.18,21.24,11.82,215.12,70.569,166.396,1.97,41.7937,,,,NaN,,,,0 / 0,703,2014-12-14 13:39:19:111
-5.79696,-14.00428,8.62272,-0.11687,-8.57543,-4.75608,-5.68009,-5.42885,13.3788,-2.48318,2.02026,0.33514,97.0,0.06,17.4,13.56,215.12,70.569,166.396,1.97,41.7937,,,,NaN,,,,0 / 0,754,2014-12-14 13:39:19:162
-4.59268,-9.82401,10.43513,0.34611,-8.26299,-5.27009,-4.93879,-1.56102,15.70522,-1.34654,2.64876,0.06457,97.0,-0.9,15.06,14.82,180.185,57.415,-176.243,1.97,41.7937,,,,NaN,,,,0 / 0,803,2014-12-14 13:39:19:211
-11.62924,-11.21025,9.02494,1.1757,-8.44166,-4.8505,-12.80494,-2.76859,13.87545,1.4551,0.22742,0.29892,97.0,-5.82,10.02,20.1,184.977,59.407,-166.375,1.97,64.3963,,,,NaN,,,,0 / 0,854,2014-12-14 13:39:19:262
1.06961,-14.07611,-3.25971,0.67561,-8.95461,-3.94101,0.394,-5.1215,0.6813,3.22344,-2.43574,0.91571,97.0,-8.16,8.88,20.52,184.977,59.407,-166.375,1.97,64.3963,,,,NaN,,,,0 / 0,904,2014-12-14 13:39:19:312
2.46064,-19.51813,3.93008,0.18525,-9.40053,-2.787,2.27539,-10.1176,6.71708,4.05754,-3.47012,-0.1144,97.0,-10.08,8.88,20.88,205.305,73.452,-176.197,1.97,64.3963,,,,NaN,,,,0 / 0,954,2014-12-14 13:39:19:362
2.26192,-19.51813,-3.75291,0.08918,-9.7245,1.26369,2.17274,-9.79363,-5.0166,6.0922,1.2522,0.70692,97.0,-10.44,11.34,20.34,29.035,82.578,-4.037,1.97,64.3963,,,,NaN,,,,0 / 0,1004,2014-12-14 13:39:19:412
-1.02053,-19.51813,-6.39132,-0.33025,-9.27529,3.16723,1.72637,-5.82569,-10.69864,5.01095,-1.47701,1.42278,81.0,-8.58,14.7,19.56,29.035,82.578,7.577,1.97,64.3963,,,,NaN,,,,0 / 0,1054,2014-12-14 13:39:19:462
2.24756,-6.192,-7.36816,-0.50398,-8.24009,5.29328,2.75154,2.04809,-12.66144,2.66524,-1.95318,0.15192,81.0,-6.78,28.32,11.76,10.079,63.699,7.577,1.97,64.3963,,,,NaN,,,,0 / 0,1104,2014-12-14 13:39:19:512
-3.95582,3.39438,-8.12712,0.47435,-7.62029,6.1543,2.24606,14.63336,-15.73604,-0.09805,-2.05864,0.28934,81.0,-6.84,33.0,3.78,16.427,52.898,1.897,1.97,64.3963,,,,NaN,,,,0 / 0,1154,2014-12-14 13:39:19:562
1.23481,1.92673,-5.12479,0.69357,-7.67177,6.069,2.6004,11.15848,-12.8416,-1.20806,-0.27539,-0.01,81.0,-7.2,35.52,-7.2,16.427,52.898,1.897,1.97,59.4538,,,,NaN,,,,0 / 0,1204,2014-12-14 13:39:19:612
2.75752,-5.31812,13.69843,0.52074,-8.19924,5.35463,2.23678,2.88112,8.34379,-1.23363,1.65061,0.12742,81.0,-10.32,33.18,-17.76,34.592,54.289,-7.211,1.97,59.4538,,,,NaN,,,,0 / 0,1254,2014-12-14 13:39:19:662
2.16615,6.33685,-19.18115,0.42003,-8.28319,5.23298,1.74612,14.62004,-24.41412,-1.23789,-0.37446,0.24566,81.0,-13.02,31.68,-18.12,84.559,57.634,-4.589,1.97,59.4538,,,,NaN,,,,0 / 0,1303,2014-12-14 13:39:19:711
2.26432,-19.51813,-10.02093,-0.06315,-8.90209,4.11339,2.32746,-10.61604,-14.13432,-1.75454,0.97843,-0.73332,81.0,-12.78,30.84,-16.92,99.608,65.197,0.88,1.97,59.4538,,,,NaN,,,,0 / 0,1354,2014-12-14 13:39:19:762
-7.11856,-1.92793,-15.55154,0.08499,-9.10545,3.64083,-7.20355,7.17752,-19.19237,-3.95538,-0.33078,-0.09522,81.0,-11.52,30.42,-17.1,99.608,65.197,0.88,1.97,59.4538,,,,NaN,,,,0 / 0,1404,2014-12-14 13:39:19:812
-0.7452,-19.51813,-8.03853,0.36227,-9.75847,0.90172,-1.10747,-9.75966,-8.94025,-5.4084,1.02956,-0.90376,81.0,-10.26,29.76,-16.74,138.125,76.42,-3.364,1.97,59.4538,,,,NaN,,,,0 / 0,1454,2014-12-14 13:39:19:862
-5.34924,-19.51813,15.67125,0.75896,-9.40427,-2.67492,1.24678,-10.11386,22.49951,-5.64276,3.38273,-0.1666,81.0,-8.76,28.56,-13.62,138.125,76.42,-3.364,1.97,59.4538,,,,NaN,,,,0 / 0,1503,2014-12-14 13:39:19:911
5.70718,-10.85591,15.92024,0.72095,-9.19239,-3.33931,4.335,0.10819,18.20132,-2.4917,0.66205,0.20625,63.0,-8.76,28.56,-11.28,323.94,73.529,-164.16,1.97,68.6397,,,,NaN,,,,0 / 0,1554,2014-12-14 13:39:19:962
-9.88147,-4.06595,16.43979,1.00975,-8.90239,-3.98739,-8.92319,3.9841,19.2229,-0.86398,0.83462,-0.25182,63.0,-9.3,28.14,-0.18,318.143,65.201,-165.789,1.97,68.6397,,,,NaN,,,,0 / 0,1603,2014-12-14 13:39:20:011
5.11342,-3.86005,9.9108,0.83588,-9.03452,-3.72164,3.00383,4.82013,15.15515,2.35738,0.59706,-0.14423,63.0,-9.48,26.58,3.48,318.143,65.201,-165.789,1.97,68.6397,,,,NaN,,,,0 / 0,1654,2014-12-14 13:39:20:062
5.73112,-3.25192,2.8479,1.01035,-9.33634,-2.82546,4.72077,6.08441,5.67336,2.3169,1.09135,-0.22519,55.0,-10.44,23.94,6.42,270.735,70.254,-164.129,1.97,68.6397,,,,NaN,,,,0 / 0,1704,2014-12-14 13:39:20:112
-16.86057,-19.51813,1.04267,1.02816,-9.59267,-1.75959,-17.88873,-9.92546,2.80226,3.3779,-0.96994,0.8209,55.0,-11.7,21.72,8.04,270.735,70.254,-164.129,1.97,68.6397,,,,NaN,,,,0 / 0,1753,2014-12-14 13:39:20:161
4.73274,-19.51813,-5.80714,0.26995,-9.6832,1.52765,4.46279,-9.83493,-7.33479,6.25731,0.36377,-0.62147,55.0,-12.84,20.16,10.86,196.104,86.904,-144.788,1.97,68.6397,,,,NaN,,,,0 / 0,1804,2014-12-14 13:39:20:212
3.95462,-12.60846,-6.54455,-0.28177,-8.75215,4.41476,4.23639,-3.85631,-10.95931,3.69109,-1.7071,2.19509,55.0,-10.86,25.26,10.14,37.235,70.533,-3.168,1.97,68.6397,,,,NaN,,,,0 / 0,1853,2014-12-14 13:39:20:261
-0.36452,-1.40599,-8.99621,-0.18076,-8.25386,5.29253,-0.18375,6.84787,-14.28874,2.61304,-2.56358,0.35219,79.0,-8.52,28.98,6.24,22.746,57.316,1.956,1.97,68.6397,,,,NaN,,,,0 / 0,1904,2014-12-14 13:39:20:312
-1.56641,5.5324,-10.16937,0.49006,-7.91927,5.76329,-2.05647,13.45167,-15.93266,0.79357,-2.92683,-0.18471,79.0,-7.86,31.44,-3.24,22.746,57.316,1.956,1.97,68.1233,,,,NaN,,,,0 / 0,1954,2014-12-14 13:39:20:362
-0.26157,2.47501,1.17914,1.11375,-8.14956,5.33997,-1.37532,10.62457,-4.16082,-1.89089,1.0221,-0.71521,79.0,-9.0,29.58,-12.6,32.334,53.637,-9.235,1.97,68.1233,,,,NaN,,,,0 / 0,2004,2014-12-14 13:39:20:412
7.5172,-4.6238,9.14705,0.8887,-8.27496,5.18719,6.6285,3.65116,3.95986,0.07558,1.43649,0.18174,79.0,-13.26,27.06,-13.2,77.477,56.204,-11.781,1.97,68.1233,,,,NaN,,,,0 / 0,2054,2014-12-14 13:39:20:462
-19.64203,-17.08323,19.82459,0.7654,-8.49627,4.83719,-20.40743,-8.58695,14.9874,-2.03897,3.67142,0.00491,79.0,-15.54,26.82,-11.58,77.477,56.204,-11.781,1.97,68.1233,,,,NaN,,,,0 / 0,2104,2014-12-14 13:39:20:512
-7.50881,-16.10639,-19.40141,0.71317,-8.71459,4.4405,-8.22199,-7.3918,-23.84191,-2.29356,1.62185,-1.48007,93.0,-16.14,26.7,-10.44,79.032,60.04,-8.991,1.97,68.1233,,,,NaN,,,,0 / 0,2154,2014-12-14 13:39:20:562
1.03848,-19.51813,-3.0131,0.52478,-9.50468,2.35739,0.51371,-10.01345,-5.37049,-4.92157,-0.3425,-0.62786,93.0,-17.52,26.82,-8.46,106.568,75.743,-12.55,1.97,68.1233,,,,NaN,,,,0 / 0,2203,2014-12-14 13:39:20:611
-1.38445,-19.51813,11.92432,1.13261,-9.73318,-0.39459,-2.51705,-9.78495,12.31892,-4.62862,1.87219,0.26057,93.0,-20.04,27.24,-6.18,143.763,81.52,-43.86,1.97,68.1233,,,,NaN,,,,0 / 0,2254,2014-12-14 13:39:20:662
7.10779,-13.90133,11.3138,0.93224,-9.65567,-1.43862,6.17554,-4.24567,12.75242,-3.00729,2.57206,0.70372,119.0,-21.24,27.0,-2.34,143.763,81.52,-43.86,1.97,71.038,,,,NaN,,,,0 / 0,2304,2014-12-14 13:39:20:712
-5.47853,-3.5081,7.70334,1.13919,-9.51994,-2.06006,-6.61772,6.01184,9.76341,-2.09329,2.54011,-0.67899,119.0,-22.2,26.52,0.24,258.681,76.111,-151.058,1.97,71.038,,,,NaN,,,,0 / 0,2354,2014-12-14 13:39:20:762
3.67211,-3.16573,11.85489,1.29302,-9.30117,-2.8265,2.37909,6.13544,14.6814,0.25774,-0.33504,0.27549,119.0,-25.26,23.52,9.3,242.183,71.522,-155.418,1.97,71.038,,,,NaN,,,,0 / 0,2403,2014-12-14 13:39:20:811
6.74626,-0.91518,6.79834,1.41797,-9.42223,-2.32028,5.3283,8.50705,9.11862,1.46043,0.96458,-0.1176,55.0,-27.42,22.2,10.74,242.183,71.522,-155.418,1.97,71.038,,,,NaN,,,,0 / 0,2454,2014-12-14 13:39:20:862
-15.25166,-19.51813,1.93092,1.47199,-9.63546,-1.07814,-16.72365,-9.88267,3.00906,3.1052,-1.39072,3.16662,55.0,-29.46,22.08,11.58,211.864,76.118,-138.452,1.97,71.038,,,,NaN,,,,0 / 0,2503,2014-12-14 13:39:20:911
4.7064,-19.51813,-5.62278,0.5164,-9.67617,1.50924,4.19,-9.84196,-7.13203,4.78938,-1.39924,0.07522,55.0,-32.7,24.18,13.62,174.424,85.65,-107.48,1.97,71.038,,,,NaN,,,,0 / 0,2554,2014-12-14 13:39:20:962
5.6976,-19.51813,-8.0122,0.66948,-9.26691,3.13835,5.02812,-10.25122,-11.15054,4.25888,-1.59738,2.64996,55.0,-33.3,27.0,12.36,68.901,70.9,-12.042,1.97,71.038,,,,NaN,,,,0 / 0,2603,2014-12-14 13:39:21:011
0.98581,-8.45452,-6.0298,0.05776,-8.32299,5.18614,0.07572,1.45822,-11.71393,3.28203,-2.56144,1.51119,87.0,-31.32,33.9,9.9,68.901,70.9,-12.042,1.97,67.1041,,,,NaN,,,,0 / 0,2654,2014-12-14 13:39:21:062
-1.46346,-3.86484,-9.91798,0.22161,-8.09899,5.52522,-1.68507,4.23415,-15.4432,2.83994,-3.08982,0.3181,87.0,-28.56,38.94,5.58,48.354,55.676,-2.297,1.97,67.1041,,,,NaN,,,,0 / 0,2703,2014-12-14 13:39:21:111
5.69281,9.69592,-9.64983,1.56296,-7.67656,5.89901,4.12985,17.37248,-15.54884,-1.0504,-1.23626,-0.23904,87.0,-23.58,41.4,-12.54,59.729,51.424,-8.562,1.97,67.1041,,,,NaN,,,,0 / 0,2754,2014-12-14 13:39:21:162
-2.87364,2.48458,1.40181,1.76243,-7.8871,5.555,-4.63607,10.37168,-4.15319,-1.54575,-0.39363,-0.50322,101.0,-23.1,40.5,-14.22,59.729,51.424,-8.562,1.97,67.1041,,,,NaN,,,,0 / 0,2804,2014-12-14 13:39:21:212
7.21553,-5.96695,14.55076,1.29571,-7.99035,5.53599,5.91981,2.0234,9.01477,-0.10871,2.26633,0.21051,101.0,-24.66,37.74,-14.22,73.458,54.566,-13.173,1.97,67.1041,,,,NaN,,,,0 / 0,2853,2014-12-14 13:39:21:261
-19.64203,-11.42812,19.82459,1.29107,-8.27331,5.10459,-20.9331,-3.15481,14.72,-2.60143,3.45304,-0.33491,101.0,-25.32,36.84,-12.0,73.458,54.566,-13.173,1.97,67.1041,,,,NaN,,,,0 / 0,2903,2014-12-14 13:39:21:311
-9.78331,-1.64781,-19.2817,1.30649,-8.28424,5.08289,-11.08979,6.63643,-24.36459,0.09795,1.51426,-0.5224,113.0,-25.14,36.96,-10.92,75.525,57.646,-14.415,1.97,67.1041,,,,NaN,,,,0 / 0,2954,2014-12-14 13:39:21:362
0.99539,-19.51813,-1.29167,0.77153,-8.97841,3.86843,0.22386,-10.53972,-5.1601,-6.0891,1.10839,0.07841,113.0,-24.6,36.78,-11.34,75.525,57.646,-14.415,1.97,67.1041,,,,NaN,,,,0 / 0,3004,2014-12-14 13:39:21:412
-2.62464,-19.51813,2.04345,1.12917,-9.5397,1.97267,-3.75381,-9.97843,0.07078,-4.05338,-2.35691,-0.98152,113.0,-23.94,36.6,-10.8,128.699,76.598,-29.787,1.97,62.1687,,,,NaN,,,,0 / 0,3054,2014-12-14 13:39:21:462
6.47093,-9.71627,12.18768,1.14443,-9.6826,-1.0536,4.1074,-9.81024,9.56558,-4.27176,-0.33398,0.04006,113.0,-24.0,36.78,-9.9,128.699,76.598,-29.787,1.97,62.1687,,,,NaN,,,,0 / 0,3104,2014-12-14 13:39:21:512
-11.61487,-1.24798,7.6818,1.47199,-9.5593,-1.61983,-13.08686,8.31132,9.30162,-1.52338,0.66524,-1.01029,125.0,-23.82,37.38,1.32,247.98,80.873,-132.634,1.97,62.1687,,,,NaN,,,,0 / 0,3154,2014-12-14 13:39:21:562
-2.98856,-1.51134,12.55639,1.67504,-9.46084,-1.96459,-4.66361,7.9495,14.52098,-0.20778,0.00371,-0.06753,125.0,-24.72,35.34,8.04,228.343,74.736,-139.549,1.97,62.1687,,,,NaN,,,,0 / 0,3203,2014-12-14 13:39:21:611
3.35368,-1.96145,5.7401,1.8582,-9.56678,-1.0931,1.49548,7.60533,6.8332,1.19944,0.39679,0.03154,125.0,-27.3,30.84,11.4,191.163,77.301,-120.467,1.97,62.1687,,,,NaN,,,,0 / 0,3254,2014-12-14 13:39:21:662
-2.00694,-6.70915,4.55736,1.775,-9.63427,-0.44891,-3.78194,2.92512,5.00628,1.77468,0.75792,0.43315,71.0,-28.08,29.88,11.58,191.163,77.301,-120.467,1.97,62.1687,,,,NaN,,,,0 / 0,3304,2014-12-14 13:39:21:712
0.68654,-19.51813,1.54546,0.63162,-9.67437,1.47632,0.05492,-9.84376,0.06913,4.24929,-1.51962,0.81877,71.0,-28.68,28.98,9.54,137.204,81.297,-73.851,1.97,62.1687,,,,NaN,,,,0 / 0,3354,2014-12-14 13:39:21:762
8.79809,-19.51813,-11.19648,0.54767,-8.42041,4.99685,3.3637,-7.20355,-12.28315,3.60161,-2.34946,2.85236,71.0,-28.02,30.24,6.78,72.712,71.43,-15.237,1.97,61.6345,,,,NaN,,,,0 / 0,3404,2014-12-14 13:39:21:812
-0.72604,-1.3222,-9.81264,0.36646,-8.00008,5.65989,1.48366,1.38669,-12.09192,2.83781,-2.62323,1.30773,127.0,-26.34,33.12,2.76,72.712,71.43,-15.237,1.97,61.6345,,,,NaN,,,,0 / 0,3453,2014-12-14 13:39:21:861
1.9004,4.65612,-10.24599,1.30245,-7.28615,6.43307,3.34739,14.73182,-17.41168,1.94193,-2.92363,-0.02918,127.0,-25.92,33.96,-1.98,55.23,50.521,-6.621,1.97,61.6345,,,,NaN,,,,0 / 0,3504,2014-12-14 13:39:21:912
1.40001,6.72232,-5.19901,1.66666,-7.27972,6.35586,3.62392,17.38984,-18.39749,-1.50527,-0.5726,-0.08351,127.0,-28.5,31.92,-12.0,72.56,47.93,-14.694,1.97,61.6345,,,,NaN,,,,0 / 0,3554,2014-12-14 13:39:21:962
-0.00778,-5.90949,15.04636,1.88065,-7.79432,5.64658,-3.821,4.78721,7.63451,-0.66478,0.88362,0.11357,193.0,-30.24,30.42,-11.76,86.236,52.636,-18.421,1.97,61.6345,,,,NaN,,,,0 / 0,3604,2014-12-14 13:39:22:012
7.08145,-3.4267,0.75776,1.67325,-7.80555,5.69611,4.90647,3.18893,-0.83528,-0.04053,0.74407,0.2904,193.0,-32.4,28.62,-9.48,86.236,52.636,-18.421,1.97,61.6345,,,,NaN,,,,0 / 0,3654,2014-12-14 13:39:22:062
19.58397,-19.51813,-19.40141,1.19785,-7.92765,5.64702,18.46723,-11.66141,-25.16306,0.20022,5.22564,0.71651,193.0,-34.32,28.2,-6.3,79.326,53.939,-11.976,1.97,61.6345,,,,NaN,,,,0 / 0,3704,2014-12-14 13:39:22:112
-8.59578,-5.14813,-19.40141,1.54725,-7.91882,5.574,-10.14304,2.77069,-24.97541,-0.90872,0.02076,-2.06596,193.0,-34.32,28.2,-6.3,79.326,53.939,-11.976,1.97,61.6345,,,,NaN,,,,0 / 0,3754,2014-12-14 13:39:22:162
0.63386,-19.51813,-1.58137,0.90471,-8.97751,3.84135,-0.27084,-10.54062,-5.42272,-4.47629,1.14461,-0.53731,207.0,-36.24,27.24,-6.66,82.394,53.852,-15.514,1.97,62.7676,,,,NaN,,,,0 / 0,3804,2014-12-14 13:39:22:212
1.05524,-19.51813,2.61088,1.49009,-9.50648,1.89157,-0.43485,-10.01165,0.71931,-3.90531,-1.25223,-0.49789,207.0,-38.58,25.08,-6.48,95.419,66.27,-13.253,1.97,62.7676,,,,NaN,,,,0 / 0,3853,2014-12-14 13:39:22:261
6.5643,-13.26448,12.40316,1.447,-9.69921,-0.06539,5.11731,-3.56527,12.46855,-2.51727,2.86714,0.36817,207.0,-40.26,23.22,-5.58,95.419,66.27,-13.253,1.97,62.7676,,,,NaN,,,,0 / 0,3904,2014-12-14 13:39:22:312
-1.28868,-3.97976,8.57723,1.47423,-9.68335,-0.48094,-2.76291,5.70359,9.05816,-1.62245,2.81068,-0.43078,159.0,-39.9,21.9,-1.74,203.152,80.902,-108.068,1.97,62.7676,,,,NaN,,,,0 / 0,3953,2014-12-14 13:39:22:361
-0.39085,-3.26629,12.67371,1.76647,-9.57351,-1.18259,-2.15733,6.30723,13.85629,-0.83628,-0.4437,0.00811,159.0,-40.14,18.96,4.56,199.229,79.346,-114.399,1.97,62.7676,,,,NaN,,,,0 / 0,4004,2014-12-14 13:39:22:412
5.22116,-0.75956,7.09522,1.84024,-9.59461,-0.85398,3.38091,8.83505,7.9492,0.3142,0.8751,0.14126,159.0,-41.1,17.7,5.4,199.229,79.346,-114.399,1.97,62.7676,,,,NaN,,,,0 / 0,4054,2014-12-14 13:39:22:462
2.6833,-2.95025,4.10486,2.15299,-9.56678,-0.11941,0.53032,6.61653,4.22427,1.08226,1.64102,-0.08031,117.0,-41.64,16.5,5.58,198.664,78.061,-114.894,1.97,62.7676,,,,NaN,,,,0 / 0,4104,2014-12-14 13:39:22:512
-19.64203,-19.51813,-1.6939,1.29362,-9.6612,1.07724,-20.93565,-9.85693,-2.77114,3.25966,-3.31139,3.86117,117.0,-41.7,16.44,7.86,126.014,80.116,-50.215,1.97,60.976,,,,NaN,,,,0 / 0,4153,2014-12-14 13:39:22:561
6.77739,-19.51813,-9.14465,0.55351,-9.17293,3.42371,6.22388,-10.3452,-12.56836,6.10072,1.8594,-0.96661,117.0,-42.42,21.24,6.06,81.028,69.289,-9.184,1.97,60.976,,,,NaN,,,,0 / 0,4204,2014-12-14 13:39:22:612
7.68239,-19.51813,-6.10402,0.63596,-8.40634,5.00987,7.04644,-11.11179,-11.11388,5.44345,-2.95133,3.41056,117.0,-40.86,26.04,4.38,81.028,69.289,-9.184,1.97,60.976,,,,NaN,,,,0 / 0,4254,2014-12-14 13:39:22:662
5.2427,-0.54887,-9.03452,0.41195,-6.40075,7.41828,4.83075,5.85188,-16.4528,3.94889,-2.40698,2.37406,209.0,-37.02,32.16,1.68,61.1,49.804,-3.496,1.97,60.976,,,,NaN,,,,0 / 0,4304,2014-12-14 13:39:22:712
1.47662,11.38862,-16.43979,1.55668,-5.50217,7.96701,-0.08006,16.89079,-24.40679,-0.5412,-2.40485,-0.14849,209.0,-35.1,33.6,-10.92,60.392,34.13,-11.056,1.97,60.976,,,,NaN,,,,0 / 0,4353,2014-12-14 13:39:22:761
-2.19848,2.16615,-3.43209,2.21045,-5.89871,7.51585,-4.40892,8.06487,-10.94794,-2.12206,-2.93109,0.05178,209.0,-33.54,33.36,-13.8,60.392,34.13,-11.056,1.97,60.976,,,,NaN,,,,0 / 0,4404,2014-12-14 13:39:22:812
-5.39952,-5.41628,12.20684,2.83997,-6.34179,6.91999,-8.23949,0.92551,5.28685,-1.06318,-2.4922,0.34153,303.0,-32.46,32.82,-14.82,70.769,40.292,-22.313,1.97,60.976,,,,NaN,,,,0 / 0,4453,2014-12-14 13:39:22:861
6.45417,-8.88548,0.31723,3.24429,-6.43561,6.65034,3.20988,-2.44987,-6.33311,0.92353,-1.34598,0.19346,303.0,-35.28,31.44,-11.82,76.596,41.015,-26.005,1.97,68.737,,,,NaN,,,,0 / 0,4504,2014-12-14 13:39:22:912
19.58397,-19.51813,19.82459,3.70248,-6.26787,6.57074,15.88149,-13.25026,13.25385,2.87297,-0.62373,-1.0039,303.0,-35.64,32.76,-8.34,76.596,41.015,-26.005,1.97,68.737,,,,NaN,,,,0 / 0,4554,2014-12-14 13:39:22:962
-19.64203,-6.9797,-18.26656,3.12189,-5.67411,7.36397,-22.76392,-1.30559,-25.63053,0.48784,3.00137,0.14766,361.0,-35.88,34.08,-5.4,61.891,34.908,-27.586,1.97,68.737,,,,NaN,,,,0 / 0,4604,2014-12-14 13:39:23:012
5.63775,-19.51813,-2.13922,2.99051,-6.05763,7.10853,2.64724,-13.4605,-9.24775,-0.3665,-1.19365,-0.17618,361.0,-35.58,35.16,-4.68,62.805,38.149,-22.816,1.97,68.737,,,,NaN,,,,0 / 0,4654,2014-12-14 13:39:23:062
-9.50558,-16.97788,2.94846,2.73493,-6.95127,6.35376,-11.1272,-9.58848,-3.09166,-1.71193,1.23516,0.35112,361.0,-36.24,34.5,-7.92,72.566,45.14,-23.289,1.97,68.737,,,,NaN,,,,0 / 0,4704,2014-12-14 13:39:23:112
8.13011,-7.58064,5.04578,2.34347,-7.46976,5.90605,2.70051,0.04714,-1.17391,-1.11112,-0.32439,0.50772,457.0,-36.84,34.38,-9.06,80.386,49.615,-21.643,1.97,68.737,,,,NaN,,,,0 / 0,4753,2014-12-14 13:39:23:161
6.47572,-7.6405,5.31154,2.73163,-7.73163,5.37872,2.20461,1.01769,-0.5149,-0.98862,-0.09642,-0.12718,457.0,-36.36,34.92,-6.9,80.386,49.615,-21.643,1.97,68.737,,,,NaN,,,,0 / 0,4804,2014-12-14 13:39:23:212
1.67055,-4.23594,4.19105,2.72161,-7.80001,5.2843,-1.12049,2.81708,-0.91608,-0.72443,2.31107,-0.5469,457.0,-34.62,35.52,-5.64,80.335,52.691,-27.25,1.97,69.676,,,,NaN,,,,0 / 0,4853,2014-12-14 13:39:23:261
-0.75238,-2.88082,3.72658,2.21494,-7.89847,5.37379,-2.96731,5.01765,-1.64721,-0.35798,2.47193,-0.70243,457.0,-33.84,36.12,-2.58,74.032,53.651,-22.4,1.97,69.676,,,,NaN,,,,0 / 0,4904,2014-12-14 13:39:23:312
-3.45064,-10.87506,3.09929,1.84518,-7.94082,5.45055,-5.29582,-2.93424,-2.35126,-0.23973,2.34729,-0.55116,485.0,-34.62,35.28,-1.8,74.032,53.651,-22.4,1.97,69.676,,,,NaN,,,,0 / 0,4954,2014-12-14 13:39:23:362
-2.66774,-17.25561,3.46561,1.54606,-8.0098,5.44262,-4.2138,-9.24581,-1.97701,-0.00538,1.49934,-0.42013,485.0,-35.82,34.68,-2.76,73.833,54.763,-15.858,1.97,69.676,,,,NaN,,,,0 / 0,5003,2014-12-14 13:39:23:411
2.88441,-10.30285,0.35075,1.31771,-8.13295,5.31872,1.56671,-2.16989,-4.96797,0.43777,-0.08364,-0.05687,485.0,-37.92,33.0,-7.26,81.557,56.03,-13.915,1.97,69.676,,,,NaN,,,,0 / 0,5054,2014-12-14 13:39:23:462
2.44149,-9.43136,0.39145,1.44161,-8.21271,5.1616,0.52538,-1.5504,-4.97605,0.29396,0.27216,-0.23371,381.0,-37.5,32.7,-9.78,81.557,56.03,-13.915,1.97,69.676,,,,NaN,,,,0 / 0,5103,2014-12-14 13:39:23:511
1.65619,-7.32446,2.57257,1.50506,-8.27271,5.04653,-1.26189,1.53962,-2.09747,-0.4219,-0.13477,-0.47872,381.0,-37.14,31.62,-12.6,90.932,56.874,-15.605,1.97,69.676,,,,NaN,,,,0 / 0,5154,2014-12-14 13:39:23:562
1.13665,-9.13927,5.88375,1.53453,-8.34514,4.91679,0.92042,-2.85688,3.83012,-0.1918,0.56937,-0.20814,381.0,-37.32,31.62,-13.74,97.22,58.317,-17.333,1.97,48.3185,,,,NaN,,,,0 / 0,5203,2014-12-14 13:39:23:611
1.49578,-5.1625,-0.54708,1.52122,-8.24593,5.08543,-0.08829,3.08643,-5.60842,0.49636,0.30731,-0.26034,359.0,-37.32,31.8,-13.74,97.22,58.317,-17.333,1.97,48.3185,,,,NaN,,,,0 / 0,5254,2014-12-14 13:39:23:662
0.77512,-12.83112,8.66581,1.4675,-8.38015,4.87759,-0.6596,-4.4601,3.76294,0.02658,0.35312,-0.00361,359.0,-37.92,31.08,-13.56,97.686,57.965,-18.048,1.97,48.3185,,,,NaN,,,,0 / 0,5303,2014-12-14 13:39:23:711
2.03447,-10.66916,3.44406,1.4868,-8.37252,4.88492,0.331,-1.74118,-1.68851,0.13524,-0.13477,-0.19216,359.0,-38.4,30.9,-14.46,97.87,58.541,-16.516,1.97,48.3185,,,,NaN,,,,0 / 0,5354,2014-12-14 13:39:23:762
-0.13467,-6.69,5.14155,1.44266,-8.34783,4.93984,-1.64137,1.40121,-0.03831,0.21726,0.21037,-0.01746,359.0,-38.88,30.84,-15.18,97.87,58.541,-16.516,1.97,48.3185,,,,NaN,,,,0 / 0,5403,2014-12-14 13:39:23:811
-0.82181,-10.52072,4.61004,1.23541,-8.35053,4.99131,-1.22508,-0.40148,-1.51762,0.01912,0.38827,0.09013,329.0,-38.16,29.52,-15.6,98.039,58.031,-15.591,1.97,48.3185,,,,NaN,,,,0 / 0,5454,2014-12-14 13:39:23:862
0.32741,-9.15363,5.50547,1.08577,-8.35666,5.0157,0.2463,0.10056,0.03531,0.20661,-0.3947,0.08161,329.0,-38.34,29.1,-16.2,98.973,58.645,-12.567,1.97,48.3185,,,,NaN,,,,0 / 0,5504,2014-12-14 13:39:23:912
1.61549,-8.1744,3.70503,1.18842,-8.33272,5.03231,0.95828,0.52717,-1.25785,0.13098,-0.19123,-0.01,329.0,-38.58,29.34,-16.86,100.619,58.179,-13.287,1.97,48.3185,,,,NaN,,,,0 / 0,5554,2014-12-14 13:39:23:962
0.5788,-9.07702,4.32034,1.15056,-8.34185,5.02588,-0.57177,-0.73517,-0.70554,0.02552,0.15711,0.12102,307.0,-38.88,29.52,-17.1,100.619,58.179,-13.287,1.97,48.9535,,,,NaN,,,,0 / 0,5604,2014-12-14 13:39:24:012
0.1239,-8.81844,4.79199,1.05255,-8.36265,5.01286,-0.92865,-0.4558,-0.22087,0.02339,0.05804,0.0667,307.0,-38.88,29.88,-17.22,98.774,58.512,-11.858,1.97,48.9535,,,,NaN,,,,0 / 0,5654,2014-12-14 13:39:24:062
0.67457,-8.2175,4.42568,1.02068,-8.36684,5.01241,-0.34611,0.14934,-0.58673,0.03936,-0.06127,0.04326,307.0,-39.12,29.82,-17.1,98.774,58.512,-11.858,1.97,48.9535,,,,NaN,,,,0 / 0,5703,2014-12-14 13:39:24:111
0.45191,-8.74422,4.22936,0.94855,-8.40933,4.95525,-0.49665,-0.33489,-0.72589,-0.02029,-0.02825,0.09013,299.0,-38.34,29.64,-17.88,99.838,58.766,-11.208,1.97,48.9535,,,,NaN,,,,0 / 0,5754,2014-12-14 13:39:24:162
1.34734,-8.6317,4.1719,0.92835,-8.44121,4.90452,0.41899,-0.19049,-0.73263,-0.00431,-0.06766,0.01556,299.0,-37.8,29.88,-18.24,100.567,59.256,-10.534,1.97,48.9535,,,,NaN,,,,0 / 0,5803,2014-12-14 13:39:24:211
1.45747,-8.68676,4.45441,0.9517,-8.45048,4.88417,0.50578,-0.23628,-0.42976,0.01167,-0.00268,-0.02279,299.0,-37.74,29.94,-17.88,100.483,59.508,-11.026,1.97,48.9535,,,,NaN,,,,0 / 0,5854,2014-12-14 13:39:24:262
0.52852,-8.55987,4.42568,0.96531,-8.46051,4.86397,-0.43679,-0.09936,-0.43829,0.03723,0.00371,-0.03663,299.0,-37.44,29.94,-18.0,100.836,59.625,-11.225,1.97,48.9535,,,,NaN,,,,0 / 0,5904,2014-12-14 13:39:24:312
-0.43634,-7.65726,2.92691,0.9496,-8.4867,4.82117,-0.19363,-0.30541,-0.75702,-0.06823,-0.54064,-0.03237,299.0,-37.56,30.12,-17.46,100.836,59.625,-11.225,1.97,46.5351,,,,NaN,,,,0 / 0,5953,2014-12-14 13:39:24:361
1.20847,-8.15046,4.11922,1.09385,-8.48595,4.79185,-0.02858,0.33624,-0.45729,0.0873,-0.61947,-0.01426,299.0,-38.1,30.3,-17.88,100.376,59.963,-11.899,1.97,46.5351,,,,NaN,,,,0 / 0,6004,2014-12-14 13:39:24:412
0.84455,-8.57184,4.71538,1.14293,-8.48804,4.77688,-0.29838,-0.0838,-0.0615,0.02125,0.22955,-0.04729,299.0,-37.92,30.06,-17.88,103.356,59.944,-13.456,1.97,46.5351,,,,NaN,,,,0 / 0,6054,2014-12-14 13:39:24:462
1.21566,-8.83999,4.71059,1.12587,-8.48774,4.78137,0.08978,-0.35225,-0.07078,0.09689,0.5928,0.03154,313.0,-37.62,30.06,-17.64,103.356,59.944,-13.456,1.97,46.5351,,,,NaN,,,,0 / 0,6103,2014-12-14 13:39:24:511
1.07919,-8.1768,4.21739,0.82899,-8.47742,4.85963,0.25019,0.30062,-0.64224,0.10967,-0.05275,0.01876,313.0,-37.92,30.3,-16.92,103.147,59.941,-13.25,1.97,46.5351,,,,NaN,,,,0 / 0,6153,2014-12-14 13:39:24:561
1.48141,-9.03153,4.32991,0.83124,-8.49597,4.82671,0.65018,-0.53555,-0.4968,-5.0E-5,0.17948,-0.05581,313.0,-37.92,29.94,-16.5,96.75,59.857,-9.707,1.97,46.5351,,,,NaN,,,,0 / 0,6204,2014-12-14 13:39:24:612