ACCELEROMETER X (m/s²),ACCELEROMETER Y (m/s²),ACCELEROMETER Z (m/s²),GRAVITY X (m/s²),GRAVITY Y (m/s²),GRAVITY Z (m/s²),LINEAR ACCELERATION X (m/s²),LINEAR ACCELERATION Y (m/s²),LINEAR ACCELERATION Z (m/s²),GYROSCOPE X (rad/s),GYROSCOPE Y (rad/s),GYROSCOPE Z (rad/s),LIGHT (lux),MAGNETIC FIELD X (μT),MAGNETIC FIELD Y (μT),MAGNETIC FIELD Z (μT),ORIENTATION X (°),ORIENTATION Y (°),ORIENTATION Z (°),PROXIMITY (i),SOUND LEVEL (dB),LOCATION Latitude : ,LOCATION Longitude : ,LOCATION Altitude ( m),LOCATION Altitude-google ( m),LOCATION Speed ( Kmh),LOCATION Accuracy ( m),LOCATION ORIENTATION (°),Satellites in range,Time since start in ms ,YYYY-MO-DD HH-MI-SS_SSS
0.36571,-7.56149,4.49272,0.45146,-9.14675,3.50781,-0.08574,1.58526,0.98491,-0.42829,-0.09749,-0.00468,103.0,-5.88,32.52,0.54,27.531,68.476,-7.033,1.97,34.5091,,,,NaN,,,,0 / 0,4,2014-12-14 13:39:49:671
1.1965,-7.76739,4.70341,0.48513,-9.23997,3.24953,0.71138,1.47258,1.45388,-0.55399,-0.14223,0.04646,103.0,-6.6,31.68,0.66,32.538,69.848,-7.625,1.97,34.5091,,,,NaN,,,,0 / 0,55,2014-12-14 13:39:49:722
0.94751,-7.46093,4.66271,0.49725,-9.25134,3.21511,0.45026,1.79041,1.44759,-0.61258,-0.10281,-0.01639,119.0,-6.24,31.2,1.26,32.538,69.848,-7.625,1.97,34.5091,,,,NaN,,,,0 / 0,105,2014-12-14 13:39:49:772
-0.49859,-8.83041,3.76249,0.34671,-9.40607,2.75273,-0.76629,0.4751,0.89483,-0.78089,0.05591,0.21051,119.0,-6.48,30.54,2.16,28.925,70.625,-8.792,1.97,34.5091,,,,NaN,,,,0 / 0,155,2014-12-14 13:39:49:822
3.41832,-8.66761,3.8008,0.30092,-9.46159,2.56105,0.96022,0.63596,1.29721,-0.78941,-0.13903,0.15192,119.0,-6.6,29.88,2.7,36.206,74.755,-6.701,1.97,34.6137,,,,NaN,,,,0 / 0,205,2014-12-14 13:39:49:872
4.25629,-9.05547,4.32991,0.60932,-9.53715,2.20087,-0.51655,1.33881,1.74837,-0.7468,-0.09216,-0.19855,133.0,-6.42,29.16,3.72,36.206,74.755,-6.701,1.97,34.6137,,,,NaN,,,,0 / 0,254,2014-12-14 13:39:49:921
-2.74435,-7.36995,3.6739,0.44308,-9.57336,2.07981,-4.46593,2.51945,2.128,-0.71484,0.89001,-0.05048,133.0,-6.36,28.8,4.92,35.758,76.534,-15.475,1.97,34.6137,,,,NaN,,,,0 / 0,305,2014-12-14 13:39:49:972
1.09355,-6.88393,0.47764,0.29913,-9.67213,1.59125,0.79443,2.7882,-1.1136,-1.31672,-0.04849,-0.17938,133.0,-5.82,27.06,6.0,37.346,80.497,-10.646,1.97,34.6137,,,,NaN,,,,0 / 0,354,2014-12-14 13:39:50:021
-1.22164,-14.13836,-2.23978,0.29149,-9.79902,0.25558,-1.51314,-4.33934,-2.49536,-2.45762,1.23622,0.1892,133.0,-6.06,25.26,8.1,46.595,84.094,-20.375,1.97,34.6137,,,,NaN,,,,0 / 0,405,2014-12-14 13:39:50:072
0.35374,-16.15906,-9.68574,0.15802,-9.77687,-0.74804,0.19573,-6.38219,-8.9377,-2.93059,1.96486,0.63022,133.0,-6.06,23.4,9.42,46.595,84.094,-20.375,1.97,34.6137,,,,NaN,,,,0 / 0,455,2014-12-14 13:39:50:122
-1.63105,-19.51813,3.40575,0.40567,-9.1475,-3.5117,-5.21861,-9.87025,14.83268,-3.65071,0.37549,-0.12612,133.0,-6.3,21.3,10.74,216.551,79.212,-176.617,1.97,34.6137,,,,NaN,,,,0 / 0,504,2014-12-14 13:39:50:171
0.3322,-12.15357,8.63469,0.51565,-8.83505,-4.22487,5.6153,-3.12698,14.10694,-2.16147,2.18111,-0.00468,133.0,-6.0,17.58,13.02,224.433,64.278,-173.041,1.97,60.0636,,,,NaN,,,,0 / 0,555,2014-12-14 13:39:50:222
-6.32129,-6.74267,10.25317,1.27581,-8.59324,-4.54988,-7.5971,1.85057,14.80305,0.37173,1.90201,-0.56394,105.0,-7.02,13.98,15.36,224.433,64.278,-173.041,1.97,60.0636,,,,NaN,,,,0 / 0,605,2014-12-14 13:39:50:272
-8.04033,-6.6086,10.62188,1.73834,-8.61673,-4.34757,-9.77867,2.00814,14.96945,0.54004,1.20107,-0.55435,105.0,-9.78,10.14,19.08,196.583,61.194,-164.336,1.97,60.0636,,,,NaN,,,,0 / 0,655,2014-12-14 13:39:50:322
0.05926,-15.05773,-0.16879,1.04657,-9.19882,-3.23397,-13.54834,-2.97554,6.86133,2.36377,-1.2501,0.84754,105.0,-12.84,9.78,19.26,195.007,64.676,-156.466,1.97,60.0636,,,,NaN,,,,0 / 0,705,2014-12-14 13:39:50:372
-0.27114,-19.51813,-0.03711,0.41973,-9.59267,-1.99407,0.1839,-9.88132,5.21203,4.79684,-3.01312,-0.4457,99.0,-14.58,10.2,19.08,195.007,64.676,-156.466,1.97,60.0636,,,,NaN,,,,0 / 0,755,2014-12-14 13:39:50:422
-1.38684,-19.51813,0.65242,0.42527,-9.74126,1.04821,2.79852,-9.8077,-2.72116,5.39445,0.2402,0.2446,99.0,-14.58,13.26,19.44,178.356,85.841,-138.317,1.97,60.0636,,,,NaN,,,,0 / 0,805,2014-12-14 13:39:50:472
-1.86808,-19.51813,-4.92607,0.14171,-9.45096,2.61342,0.40387,-10.1363,-8.3426,4.87886,-0.75156,1.42278,99.0,-11.46,17.58,18.72,28.083,74.521,-3.104,1.97,60.0636,,,,NaN,,,,0 / 0,854,2014-12-14 13:39:50:521
1.19171,-13.28363,-6.08007,-0.29194,-8.4225,5.01481,1.41183,0.96157,-12.70857,3.67724,-1.44292,0.8731,99.0,-9.72,22.08,16.26,28.083,74.521,-3.104,1.97,60.0636,,,,NaN,,,,0 / 0,905,2014-12-14 13:39:50:572
-1.36769,2.18291,-9.08719,0.29598,-7.87318,5.83916,1.03938,12.46706,-16.95663,1.07693,-2.25358,-0.02811,99.0,-10.26,32.58,4.56,20.666,59.188,3.332,1.97,60.3827,,,,NaN,,,,0 / 0,954,2014-12-14 13:39:50:621
4.97695,7.05272,-14.85004,0.50697,-7.84759,5.85906,4.46997,14.90031,-20.7091,-0.04905,-1.58247,0.19133,99.0,-10.5,35.52,-3.84,28.506,53.152,-4.945,1.97,60.3827,,,,NaN,,,,0 / 0,1004,2014-12-14 13:39:50:671
-2.54803,0.01616,8.96269,0.56787,-8.37492,5.07047,-3.1159,8.39108,3.89222,-2.23391,1.59202,-0.21773,99.0,-12.06,33.12,-16.44,76.426,58.649,-6.39,1.97,60.3827,,,,NaN,,,,0 / 0,1055,2014-12-14 13:39:50:722
1.0313,-4.84646,14.33768,0.20859,-8.58576,4.73423,0.82271,3.73929,9.60344,-1.17078,1.87325,0.6185,85.0,-12.42,32.58,-17.46,76.426,58.649,-6.39,1.97,60.3827,,,,NaN,,,,0 / 0,1104,2014-12-14 13:39:50:771
9.43734,-19.51813,-19.40141,-0.08948,-8.91975,4.07448,9.52683,-10.59838,-23.47589,-1.88663,-2.48048,-1.17647,85.0,-13.44,30.6,-16.62,96.568,63.155,-1.404,1.97,60.3827,,,,NaN,,,,0 / 0,1154,2014-12-14 13:39:50:821
-5.89273,0.09038,-19.40141,0.05641,-9.31524,3.06488,-8.29247,-1.49832,-8.93546,-4.87577,0.55445,-0.17405,85.0,-12.9,30.12,-16.08,107.267,67.668,-2.184,1.97,60.3827,,,,NaN,,,,0 / 0,1204,2014-12-14 13:39:50:871
1.37607,-19.51813,-6.9372,0.2876,-9.7664,0.83962,2.65457,-9.82535,-7.20879,-4.06297,0.23168,-1.09125,115.0,-10.32,27.18,-13.56,135.451,80.041,-2.483,1.97,60.3827,,,,NaN,,,,0 / 0,1255,2014-12-14 13:39:50:922
-1.69809,-19.51813,4.39695,0.46777,-9.77867,-0.57386,-2.16585,-9.73946,4.97081,-4.89388,3.45836,-0.06966,115.0,-9.36,25.5,-12.42,135.451,80.041,-2.483,1.97,62.0379,,,,NaN,,,,0 / 0,1305,2014-12-14 13:39:50:972
-3.40036,-5.29418,13.30338,0.91683,-9.27559,-3.04857,-6.36364,4.92936,15.74218,-2.59077,2.60296,0.1125,115.0,-9.0,24.42,-8.4,314.393,76.006,-163.157,1.97,62.0379,,,,NaN,,,,0 / 0,1354,2014-12-14 13:39:51:021
-10.66677,-1.59993,7.86136,1.14982,-9.16994,-3.28036,-11.1908,7.83203,11.53826,-0.39846,-0.78778,0.0422,115.0,-8.94,24.12,-3.6,313.307,69.24,-160.684,1.97,62.0379,,,,NaN,,,,0 / 0,1405,2014-12-14 13:39:51:072
1.3641,-3.81696,10.38724,0.84186,-9.19179,-3.31283,-7.349,4.64685,15.69938,0.60822,-1.42907,0.45658,57.0,-9.18,23.04,0.66,313.307,69.24,-160.684,1.97,62.0379,,,,NaN,,,,0 / 0,1455,2014-12-14 13:39:51:122
7.96252,-3.80498,4.02824,0.90187,-9.49181,-2.29454,7.06065,5.68683,6.32279,2.3137,-0.0144,-0.02066,57.0,-10.68,20.76,5.1,286.396,69.602,-165.742,1.97,62.0379,,,,NaN,,,,0 / 0,1505,2014-12-14 13:39:51:172
-8.24623,-19.51813,-0.86072,0.84066,-9.69427,-1.21895,-9.08689,-9.82386,0.35823,3.25646,0.62263,0.88908,57.0,-12.06,18.84,8.1,207.218,81.316,-145.407,1.97,62.0379,,,,NaN,,,,0 / 0,1555,2014-12-14 13:39:51:222
4.28502,-19.51813,-6.41766,0.46462,-9.66719,1.58182,3.8204,-9.85094,-7.99948,5.82908,0.70572,-0.40095,57.0,-11.64,18.42,9.96,158.388,87.174,-109.416,1.97,67.6337,,,,NaN,,,,0 / 0,1605,2014-12-14 13:39:51:272
3.37283,-19.51813,-8.0912,0.34028,-9.2913,3.11875,3.03256,-10.22683,-11.20995,5.38912,0.85912,1.17564,57.0,-11.04,19.38,10.14,158.388,87.174,-109.416,1.97,67.6337,,,,NaN,,,,0 / 0,1654,2014-12-14 13:39:51:321
-0.41958,-3.3453,-8.5892,-0.1444,-8.42669,5.01406,-0.27518,5.08139,-13.60325,2.22635,-2.31324,0.57696,77.0,-8.94,26.22,5.34,35.55,71.342,-6.227,1.97,67.6337,,,,NaN,,,,0 / 0,1705,2014-12-14 13:39:51:372
2.0249,4.5029,-8.97227,0.1878,-8.16692,5.42556,1.8371,12.66982,-14.39783,1.1792,-2.20991,-0.10055,77.0,-8.82,27.6,1.92,28.198,56.387,-1.982,1.97,67.6337,,,,NaN,,,,0 / 0,1755,2014-12-14 13:39:51:422
0.41599,2.48458,-1.11929,0.85668,-8.44854,4.90512,-0.44068,10.93312,-6.02441,-2.20621,0.17629,-0.01639,77.0,-11.52,25.86,-10.92,78.126,59.486,-9.907,1.97,67.6337,,,,NaN,,,,0 / 0,1804,2014-12-14 13:39:51:471
7.06948,-6.74746,12.79102,0.5767,-8.58351,4.7076,-1.66367,7.90491,1.29451,-1.03336,1.33955,0.22755,77.0,-12.6,25.5,-11.7,78.126,59.486,-9.907,1.97,67.6337,,,,NaN,,,,0 / 0,1855,2014-12-14 13:39:51:522
9.09976,-0.55605,-7.47589,0.68938,-8.54655,4.75937,-2.74196,-7.12499,15.14018,0.08943,-1.12547,-0.01959,95.0,-14.94,25.5,-10.92,84.026,60.634,-8.242,1.97,67.6337,,,,NaN,,,,0 / 0,1905,2014-12-14 13:39:51:572
-6.99885,-6.12257,-19.40141,0.54588,-8.69379,4.50454,-7.54473,2.57122,-23.90595,-1.06318,3.12281,0.08907,95.0,-17.58,25.68,-6.24,74.269,62.439,-6.91,1.97,65.6809,,,,NaN,,,,0 / 0,1955,2014-12-14 13:39:51:622
-2.25594,-16.36736,-3.5087,0.2291,-9.1668,3.47698,-2.48503,-7.20056,-6.98568,-5.33383,0.93156,-0.52453,95.0,-17.7,25.5,-5.1,74.269,62.439,-6.91,1.97,65.6809,,,,NaN,,,,0 / 0,2005,2014-12-14 13:39:51:672
-2.05482,-19.51813,5.14155,0.89558,-9.73632,0.75806,-2.9504,-9.78181,4.38348,-3.92448,-1.17447,-0.27845,95.0,-18.9,25.5,-4.56,101.654,76.813,-15.041,1.97,65.6809,,,,NaN,,,,0 / 0,2055,2014-12-14 13:39:51:722
1.86448,-19.51813,11.67533,0.95379,-9.75877,-0.17029,0.91069,-9.75936,11.84561,-4.07788,0.93262,-0.13038,119.0,-19.74,25.5,-3.78,204.54,84.33,-100.123,1.97,65.6809,,,,NaN,,,,0 / 0,2105,2014-12-14 13:39:51:772
-8.18398,-1.67654,3.84629,1.07395,-9.5608,-1.90025,-9.25793,7.88426,5.74653,-1.6821,1.11904,-0.88565,119.0,-22.14,24.18,5.1,240.472,77.14,-150.526,1.97,65.6809,,,,NaN,,,,0 / 0,2155,2014-12-14 13:39:51:822
-10.25257,-2.11228,14.13896,1.23032,-9.43181,-2.38717,-11.48289,7.31952,16.52613,-1.78224,-0.31374,-0.55222,119.0,-23.1,23.04,7.38,240.472,77.14,-150.526,1.97,65.6809,,,,NaN,,,,0 / 0,2205,2014-12-14 13:39:51:872
7.79253,-1.36529,5.7401,1.41393,-9.50842,-1.9402,6.3786,8.14313,7.6803,1.31981,0.80586,-0.04729,55.0,-27.24,21.66,10.92,234.495,72.886,-155.616,1.97,66.26,,,,NaN,,,,0 / 0,2254,2014-12-14 13:39:51:921
-1.40121,-7.60698,4.82791,1.63105,-9.60973,-1.07934,-14.05307,-9.85588,1.65828,1.85351,0.75685,-0.02172,55.0,-29.04,21.42,11.82,202.595,77.343,-131.338,1.97,66.26,,,,NaN,,,,0 / 0,2306,2014-12-14 13:39:51:973
-10.48481,-19.51813,-2.57018,1.25022,-9.72674,-0.01586,-11.73503,-9.79139,-2.55431,3.0253,-0.8698,2.32825,55.0,-30.18,21.6,13.2,202.595,77.343,-131.338,1.97,66.26,,,,NaN,,,,0 / 0,2355,2014-12-14 13:39:52:022
3.11665,-19.51813,-7.36576,1.14877,-9.32856,2.79837,1.96788,-10.18957,-10.16413,6.06237,1.56539,-0.97194,55.0,-32.76,24.54,12.96,96.022,81.244,-36.342,1.97,66.26,,,,NaN,,,,0 / 0,2405,2014-12-14 13:39:52:072
2.60669,-19.51813,-8.93396,0.8055,-8.72297,4.40817,1.80119,-10.79516,-13.34214,4.49856,-1.44611,2.39004,55.0,-33.12,27.36,11.76,78.768,72.034,-22.319,1.97,66.26,,,,NaN,,,,0 / 0,2454,2014-12-14 13:39:52:121
-0.33818,-3.04123,-9.6211,0.59152,-7.93827,5.72753,-0.9297,4.89704,-15.34863,1.74059,-1.64106,0.25738,83.0,-30.0,36.42,2.4,56.018,54.045,-5.896,1.97,66.26,,,,NaN,,,,0 / 0,2505,2014-12-14 13:39:52:172
2.30502,11.9728,-12.37443,1.23556,-7.61162,6.05868,1.06946,19.58442,-18.43311,0.60822,-1.70071,0.01876,83.0,-28.38,37.74,-4.8,56.018,54.045,-5.896,1.97,66.26,,,,NaN,,,,0 / 0,2555,2014-12-14 13:39:52:222
1.23002,4.73513,-1.86149,1.39178,-7.85852,5.69895,-1.23197,11.73892,-5.54452,-1.08556,-1.38326,0.15937,83.0,-26.46,38.16,-9.72,62.307,50.911,-11.526,1.97,66.26,,,,NaN,,,,0 / 0,2605,2014-12-14 13:39:52:272
-0.34776,0.46148,7.47111,1.38909,-7.96102,5.55545,-1.73684,8.4225,1.91566,-1.6576,0.05804,0.08054,83.0,-24.48,37.8,-12.72,62.307,50.911,-11.526,1.97,62.0189,,,,NaN,,,,0 / 0,2655,2014-12-14 13:39:52:322
5.55395,-19.51813,19.82459,0.85264,-8.08582,5.48302,18.56135,-11.43231,-24.88443,3.15952,2.83305,0.81558,117.0,-23.76,36.06,-11.7,69.754,53.584,-12.309,1.97,62.0189,,,,NaN,,,,0 / 0,2705,2014-12-14 13:39:52:372
-5.30375,6.83245,-19.40141,0.87314,-8.31805,5.1203,-6.90233,13.29261,-24.52171,-4.0161,0.58961,0.36284,117.0,-20.82,36.24,-9.9,67.149,56.639,-12.943,1.97,62.0189,,,,NaN,,,,0 / 0,2755,2014-12-14 13:39:52:422
-4.74591,-2.74196,-10.54526,0.75717,-8.9609,3.91138,11.06002,-10.55723,-7.26685,-3.47281,0.96352,-0.62892,117.0,-20.82,36.24,-9.9,67.149,56.639,-12.943,1.97,62.0189,,,,NaN,,,,0 / 0,2805,2014-12-14 13:39:52:472
-4.45621,-19.51813,3.57095,1.1335,-9.29265,2.92093,-7.48592,-10.03874,-6.16627,-3.57188,-0.08151,-1.19351,151.0,-20.28,36.06,-8.94,80.257,66.03,-10.956,1.97,62.0189,,,,NaN,,,,0 / 0,2855,2014-12-14 13:39:52:522
3.87322,-19.51813,13.75349,1.20458,-9.72614,0.3518,2.66864,-9.79199,13.40169,-3.36202,1.98617,0.13594,151.0,-18.84,35.28,-6.84,125.818,76.509,-30.789,1.97,62.0189,,,,NaN,,,,0 / 0,2905,2014-12-14 13:39:52:572
0.11193,-5.81372,7.65785,1.14727,-9.72854,-0.45864,-1.03534,3.91482,8.11649,-2.14336,1.62078,-0.16447,151.0,-18.54,34.92,-0.96,212.099,82.762,-111.79,1.97,62.0189,,,,NaN,,,,0 / 0,2955,2014-12-14 13:39:52:622
-5.4905,-0.908,9.84376,1.39103,-9.63127,-1.21461,-6.88153,8.72327,11.05837,-2.06986,0.17629,-0.60335,77.0,-19.86,33.18,4.32,212.099,82.762,-111.79,1.97,71.2874,,,,NaN,,,,0 / 0,3005,2014-12-14 13:39:52:672
0.51655,-2.54563,13.77504,1.51014,-9.54912,-1.64482,-0.99359,7.00349,15.41986,-0.46557,0.00371,-0.22625,77.0,-21.06,31.8,6.96,211.325,79.146,-131.127,1.97,71.2874,,,,NaN,,,,0 / 0,3054,2014-12-14 13:39:52:721
0.91399,-4.72196,5.01705,1.65619,-9.65372,-0.48542,-0.7422,4.93176,5.50247,1.46895,1.09348,0.21157,77.0,-23.7,27.96,10.44,198.829,78.101,-126.953,1.97,71.2874,,,,NaN,,,,0 / 0,3104,2014-12-14 13:39:52:771
-2.98138,-19.51813,0.41061,0.67427,-9.74126,0.90815,-3.65565,-9.77687,-0.49755,2.4181,-0.22319,1.48243,71.0,-24.0,25.92,10.68,198.829,78.101,-126.953,1.97,71.2874,,,,NaN,,,,0 / 0,3155,2014-12-14 13:39:52:822
5.52522,-19.51813,-7.67701,0.71646,-9.46997,2.44463,4.80875,-10.04817,-10.12164,5.56276,0.94221,-1.3043,71.0,-23.82,24.96,9.66,95.65,83.377,-36.592,1.97,71.2874,,,,NaN,,,,0 / 0,3205,2014-12-14 13:39:52:872
7.95773,-17.57404,-7.69377,0.52134,-8.46664,4.92083,7.43639,-9.10739,-12.6146,4.71801,-1.07434,2.10242,71.0,-22.26,26.82,7.62,60.332,66.985,-12.849,1.97,71.2874,,,,NaN,,,,0 / 0,3254,2014-12-14 13:39:52:921
3.33452,-9.44094,-6.29555,0.46567,-8.06442,5.56038,2.86885,-1.37652,-11.85594,2.29666,-2.00005,0.37136,71.0,-21.36,28.14,5.46,60.332,66.985,-12.849,1.97,71.2874,,,,NaN,,,,0 / 0,3305,2014-12-14 13:39:52:972
2.38642,7.74464,-11.09832,0.93748,-7.39614,6.37097,1.44894,15.14078,-17.46929,0.11074,-0.6461,-0.1112,141.0,-22.74,29.28,-2.58,50.096,51.722,-6.573,1.97,61.1162,,,,NaN,,,,0 / 0,3355,2014-12-14 13:39:53:022
2.70485,5.6976,-2.7665,1.12438,-7.60548,6.08786,1.58047,13.30308,-8.85436,-1.63204,-0.29243,-0.36261,141.0,-23.58,30.48,-5.4,62.636,50.855,-10.464,1.97,61.1162,,,,NaN,,,,0 / 0,3404,2014-12-14 13:39:53:071
-0.80984,-3.44107,11.27549,1.07889,-7.74853,5.91323,-1.88873,4.30747,5.36226,-0.19606,0.7249,0.24033,141.0,-23.82,30.66,-6.48,62.636,50.855,-10.464,1.97,61.1162,,,,NaN,,,,0 / 0,3454,2014-12-14 13:39:53:121
5.451,-2.12186,4.9548,0.89064,-7.61326,6.11689,4.56036,5.4914,-1.16209,0.13204,1.11052,0.16896,185.0,-26.88,29.16,-5.82,68.058,52.198,-10.34,1.97,61.1162,,,,NaN,,,,0 / 0,3505,2014-12-14 13:39:53:172
-0.81463,-19.51813,-19.40141,0.96681,-7.73626,5.94854,-1.78144,-11.78187,-25.34996,0.68918,1.19468,-0.02705,185.0,-27.84,29.34,-5.04,69.463,52.676,-9.34,1.97,61.1162,,,,NaN,,,,0 / 0,3555,2014-12-14 13:39:53:222
0.01137,5.40312,-19.40141,0.69866,-7.62493,6.12736,-0.68729,13.02805,-25.52877,-0.18115,1.71027,0.50452,185.0,-28.2,29.88,-4.56,65.297,51.034,-6.505,1.97,61.1162,,,,NaN,,,,0 / 0,3604,2014-12-14 13:39:53:271
-3.98934,-19.51813,-2.2302,0.64688,-9.10679,3.58038,-5.65929,-10.34445,-4.75099,-3.59638,-1.39818,-0.55435,191.0,-28.68,30.42,-5.82,65.297,51.034,-6.505,1.97,69.8489,,,,NaN,,,,0 / 0,3655,2014-12-14 13:39:53:322
1.66098,-19.51813,5.33787,1.00571,-9.51052,2.17034,0.65526,-10.00761,3.16753,-3.72315,-0.32013,-0.61827,191.0,-30.78,29.76,-7.02,90.445,68.222,-10.241,1.97,69.8489,,,,NaN,,,,0 / 0,3704,2014-12-14 13:39:53:371
3.29143,-7.95414,11.20367,0.9077,-9.75368,0.46283,2.38373,1.79954,10.74084,-2.78252,2.29936,0.1924,191.0,-31.74,30.06,-6.18,133.137,80.746,-39.143,1.97,69.8489,,,,NaN,,,,0 / 0,3755,2014-12-14 13:39:53:422
-6.59184,-1.66217,3.6763,1.05973,-9.74844,0.12555,-7.65157,8.08627,3.55075,-1.13562,1.52811,-1.01348,117.0,-33.48,28.8,0.66,170.554,83.753,-83.244,1.97,69.8489,,,,NaN,,,,0 / 0,3805,2014-12-14 13:39:53:472
-7.26461,-1.31502,9.27873,1.2812,-9.72031,-0.21682,-6.78232,7.88515,9.86172,-0.76704,0.12941,-0.46594,117.0,-33.48,28.8,0.66,170.554,83.753,-83.244,1.97,69.8489,,,,NaN,,,,0 / 0,3855,2014-12-14 13:39:53:522
5.48452,-0.18256,2.70665,1.55533,-9.67003,0.49231,3.92918,9.48747,2.21434,0.75735,1.12757,-0.2646,117.0,-35.28,24.96,2.7,172.29,82.384,-88.205,1.97,69.8489,,,,NaN,,,,0 / 0,3904,2014-12-14 13:39:53:571
-7.11856,-9.71627,-0.73861,1.5887,-9.5795,1.37128,1.41827,6.9375,1.89711,1.05776,2.25355,-0.02598,117.0,-37.74,21.3,0.9,147.222,78.957,-62.516,1.97,69.8489,,,,NaN,,,,0 / 0,3955,2014-12-14 13:39:53:622
-10.06103,-19.51813,0.58778,0.08604,-9.52772,2.32088,-17.66352,-9.90317,-5.57909,1.69052,-2.55931,4.89554,109.0,-38.16,19.02,0.12,113.044,78.485,-28.828,1.97,57.9438,,,,NaN,,,,0 / 0,4005,2014-12-14 13:39:53:672
-4.34847,-19.51813,-2.91494,0.25827,-9.21708,3.33916,-4.4167,-10.07285,-5.5517,3.7337,-2.89913,0.60146,109.0,-38.7,17.64,-1.14,113.044,78.485,-28.828,1.97,57.9438,,,,NaN,,,,0 / 0,4054,2014-12-14 13:39:53:721
12.41813,-19.51813,-5.85023,0.34851,-8.12861,5.47479,12.06962,-11.38952,-11.32502,4.00534,-1.92442,2.93332,109.0,-39.48,17.82,-4.2,91.713,70.031,-4.423,1.97,57.9438,,,,NaN,,,,0 / 0,4105,2014-12-14 13:39:53:772
5.08229,-13.5853,-6.06332,0.02035,-7.44761,6.37995,5.06194,-6.13769,-12.44326,3.27244,-2.25145,2.28671,167.0,-38.1,20.7,-1.98,72.402,49.415,-0.183,1.97,57.9438,,,,NaN,,,,0 / 0,4154,2014-12-14 13:39:53:821
5.98491,1.17974,-6.54694,0.35494,-6.32683,7.48442,5.62997,7.50657,-14.03137,1.28572,-1.3023,0.09439,167.0,-34.8,27.36,-6.9,66.512,40.177,-2.715,1.97,57.9438,,,,NaN,,,,0 / 0,4205,2014-12-14 13:39:53:872
3.12623,2.147,-5.20619,0.65451,-6.04102,7.69721,2.47171,8.18802,-12.9034,0.46654,-0.91135,-0.01533,167.0,-34.08,28.14,-7.86,66.512,40.177,-2.715,1.97,57.9438,,,,NaN,,,,0 / 0,4255,2014-12-14 13:39:53:922
-2.90476,0.58838,-2.66116,1.79311,-6.1516,7.42382,-4.69787,6.73998,-10.08498,-0.90766,-2.42296,0.09546,241.0,-31.56,30.12,-10.98,64.103,37.729,-9.179,1.97,64.1111,,,,NaN,,,,0 / 0,4304,2014-12-14 13:39:53:971
-3.75231,-4.75069,10.33218,2.20611,-6.45028,7.04973,-5.95842,1.69958,3.28245,-0.9769,-1.77741,0.75273,241.0,-32.1,29.34,-11.34,72.386,41.128,-17.377,1.97,64.1111,,,,NaN,,,,0 / 0,4355,2014-12-14 13:39:54:022
4.73034,-5.79696,-8.03853,2.73478,-6.17255,7.11272,1.99557,0.37559,-15.15126,0.90542,-1.87115,0.43634,241.0,-33.06,29.34,-10.08,72.386,41.128,-17.377,1.97,64.1111,,,,NaN,,,,0 / 0,4405,2014-12-14 13:39:54:072
-4.04201,-16.89408,-13.69124,3.16364,-5.8842,7.17886,9.0414,-13.63393,12.64572,2.48095,-1.89672,0.1157,241.0,-32.7,30.42,-7.68,68.225,39.008,-21.031,1.97,64.1111,,,,NaN,,,,0 / 0,4454,2014-12-14 13:39:54:121
-9.22067,-2.80181,-18.05827,3.14508,-4.90018,7.89084,-15.60032,2.73523,-20.24133,-0.74574,0.86764,-0.40735,321.0,-31.38,33.12,-4.26,52.457,29.979,-21.731,1.97,64.1111,,,,NaN,,,,0 / 0,4505,2014-12-14 13:39:54:172
3.38959,-19.51813,-2.61088,2.96417,-4.9982,7.89937,0.42542,-14.51993,-10.51025,-0.00644,0.53954,0.22755,321.0,-31.56,33.54,-4.08,52.457,29.979,-21.731,1.97,64.1111,,,,NaN,,,,0 / 0,4555,2014-12-14 13:39:54:222
-1.37248,-9.63008,2.95085,2.16316,-5.58088,7.76814,-2.20985,-3.35473,-4.51427,-0.42083,1.15633,0.33834,321.0,-32.16,34.14,-5.88,53.966,31.476,-19.107,1.97,64.1111,,,,NaN,,,,0 / 0,4605,2014-12-14 13:39:54:272
0.4112,-7.53276,4.01627,1.84458,-5.81866,7.67536,-0.90486,-0.75821,-4.31166,-0.51564,0.95925,0.12422,293.0,-33.3,33.42,-9.06,60.744,36.394,-13.513,1.97,69.7171,,,,NaN,,,,0 / 0,4655,2014-12-14 13:39:54:322
-0.2472,-9.06265,4.21499,1.38505,-6.30303,7.38402,-0.58104,-3.28185,-0.72065,-0.63921,0.85379,-0.19216,293.0,-33.36,33.96,-9.48,60.744,36.394,-13.513,1.97,69.7171,,,,NaN,,,,0 / 0,4704,2014-12-14 13:39:54:371
1.50057,-6.56071,7.81827,1.25082,-6.55517,7.18575,0.24975,-0.00554,0.63252,-0.47729,0.28388,-0.34237,293.0,-33.06,34.2,-10.8,65.03,41.947,-9.875,1.97,69.7171,,,,NaN,,,,0 / 0,4755,2014-12-14 13:39:54:422
2.08475,-4.8728,4.53582,1.24798,-6.66172,7.08759,0.83677,1.78892,-2.55177,-0.49433,0.67696,-0.28164,313.0,-32.7,33.9,-11.4,65.03,41.947,-9.875,1.97,69.7171,,,,NaN,,,,0 / 0,4805,2014-12-14 13:39:54:472
-1.42275,-8.0092,7.17423,0.53286,-6.98029,6.86747,-1.95561,-1.02891,0.30676,0.02445,0.33927,-0.20921,313.0,-32.34,34.5,-11.1,66.721,44.494,-7.548,1.97,69.7171,,,,NaN,,,,0 / 0,4855,2014-12-14 13:39:54:522
-1.22882,-6.93181,5.7401,0.52657,-6.98134,6.86687,-1.7554,0.04953,-1.12677,-0.00857,-0.10708,-0.27951,313.0,-32.52,34.14,-11.1,66.003,45.39,-4.385,1.97,69.7171,,,,NaN,,,,0 / 0,4904,2014-12-14 13:39:54:571
-0.7835,-8.57184,3.35787,0.50353,-7.08175,6.76497,-1.28703,-1.49009,-3.4071,-0.07462,0.16031,-0.12825,313.0,-32.52,34.02,-11.94,66.003,45.39,-4.385,1.97,60.6802,,,,NaN,,,,0 / 0,4955,2014-12-14 13:39:54:622
2.00335,-7.36277,3.99951,0.50428,-7.33449,6.49008,1.49907,-0.02828,-2.49057,-0.18541,0.14646,-0.07498,313.0,-32.76,33.9,-12.6,71.029,48.41,-4.443,1.97,60.6802,,,,NaN,,,,0 / 0,5019,2014-12-14 13:39:54:686
0.89244,-8.61015,4.60046,0.54722,-7.46138,6.3403,0.34521,-1.14877,-1.73984,-0.27489,0.18161,-0.1389,313.0,-33.42,33.36,-11.94,71.029,48.41,-4.443,1.97,60.6802,,,,NaN,,,,0 / 0,5054,2014-12-14 13:39:54:721
-0.23523,-7.97568,5.84544,0.50533,-7.6176,6.15534,-0.74056,-0.35808,-0.3099,-0.15238,-0.02398,-0.05261,313.0,-32.64,33.78,-11.94,72.026,50.324,-4.903,1.97,60.6802,,,,NaN,,,,0 / 0,5105,2014-12-14 13:39:54:772
0.26516,-8.06188,5.50068,0.50922,-7.64289,6.12362,-0.24406,-0.41899,-0.62294,-0.12469,-0.0602,-0.04409,313.0,-32.46,34.08,-12.54,73.477,51.201,-4.754,1.97,60.6802,,,,NaN,,,,0 / 0,5154,2014-12-14 13:39:54:821
0.95948,-8.41382,4.9141,0.54064,-7.73537,6.00346,0.41884,-0.67846,-1.08936,-0.08421,0.04419,-0.03024,323.0,-32.7,34.14,-12.42,73.477,51.201,-4.754,1.97,60.6802,,,,NaN,,,,0 / 0,5205,2014-12-14 13:39:54:872
0.77033,-8.78732,4.45202,0.56713,-7.8036,5.91203,0.47136,-0.77303,-1.76887,-0.1119,0.041,-0.05581,323.0,-32.7,33.72,-11.82,74.859,52.726,-5.479,1.97,60.6802,,,,NaN,,,,0 / 0,5254,2014-12-14 13:39:54:921
0.62429,-8.50959,4.41132,0.58493,-7.8847,5.80175,0.01811,-0.53061,-1.35557,-0.10125,0.08787,-0.06007,323.0,-33.12,33.54,-11.7,74.859,52.726,-5.479,1.97,47.6724,,,,NaN,,,,0 / 0,5305,2014-12-14 13:39:54:972
0.13348,-8.56466,4.55736,0.57386,-7.94396,5.72139,-0.44038,-0.6207,-1.16403,-0.15451,0.03567,-0.01746,323.0,-33.9,33.96,-11.16,75.737,54.102,-5.728,1.97,47.6724,,,,NaN,,,,0 / 0,5354,2014-12-14 13:39:55:021
0.67457,-8.37552,4.72975,0.56832,-8.05754,5.56083,0.10624,-0.31798,-0.83109,-0.12043,-0.03996,0.01556,323.0,-33.06,33.36,-10.74,76.765,54.694,-5.697,1.97,47.6724,,,,NaN,,,,0 / 0,5405,2014-12-14 13:39:55:072
0.49979,-8.6293,4.50469,0.57341,-8.12652,5.45893,-0.07362,-0.50278,-0.95424,-0.08847,-0.00374,0.01769,323.0,-33.6,33.9,-10.98,76.765,54.694,-5.697,1.97,47.6724,,,,NaN,,,,0 / 0,5454,2014-12-14 13:39:55:121
0.39923,-8.64367,4.36583,0.56638,-8.1551,5.41703,-0.16715,-0.48857,-1.0512,-0.14067,-0.06766,0.01876,323.0,-33.42,34.2,-10.92,77.657,56.262,-5.969,1.97,47.6724,,,,NaN,,,,0 / 0,5504,2014-12-14 13:39:55:171
0.68414,-8.6317,4.42329,0.59346,-8.2383,5.28655,0.09068,-0.3934,-0.86326,-0.13108,-0.36061,-0.01639,335.0,-32.64,33.84,-10.92,78.944,57.148,-6.405,1.97,47.6724,,,,NaN,,,,0 / 0,5555,2014-12-14 13:39:55:222
0.4974,-8.77774,4.33231,0.69596,-8.2992,5.17791,-0.0621,-0.40193,-0.97968,-0.11936,-0.15288,-0.03237,335.0,-32.58,33.72,-10.32,78.944,57.148,-6.405,1.97,47.6724,,,,NaN,,,,0 / 0,5605,2014-12-14 13:39:55:272
0.17897,-8.67479,4.63158,0.68399,-8.35247,5.09307,-0.51221,-0.39175,-0.51894,0.01167,0.23274,0.05498,335.0,-33.36,34.5,-9.9,79.749,58.127,-7.965,1.97,47.6724,,,,NaN,,,,0 / 0,5655,2014-12-14 13:39:55:322
0.16939,-8.56466,4.55497,0.58897,-8.36459,5.08514,-0.41958,-0.20007,-0.53017,0.03297,0.33075,0.05604,343.0,-33.66,34.74,-9.54,78.798,58.533,-6.607,1.97,43.8703,,,,NaN,,,,0 / 0,5705,2014-12-14 13:39:55:372