ACCELEROMETER X (m/s²),ACCELEROMETER Y (m/s²),ACCELEROMETER Z (m/s²),GRAVITY X (m/s²),GRAVITY Y (m/s²),GRAVITY Z (m/s²),LINEAR ACCELERATION X (m/s²),LINEAR ACCELERATION Y (m/s²),LINEAR ACCELERATION Z (m/s²),MAGNETIC FIELD X (μT),MAGNETIC FIELD Y (μT),MAGNETIC FIELD Z (μT),ORIENTATION X (°),ORIENTATION Y (°),ORIENTATION Z (°),PROXIMITY (i),SOUND LEVEL (dB),LOCATION Latitude : ,LOCATION Longitude : ,LOCATION Altitude ( m),LOCATION Altitude-google ( m),LOCATION Speed ( Kmh),LOCATION Accuracy ( m),LOCATION ORIENTATION (°),Satellites in range,Time since start in ms ,YYYY-MO-DD HH-MI-SS_SSS
-1.1513,-0.2865,9.6734,-0.4266,-0.35,9.7911,-5.0E-4,5.0E-4,-0.0261,12.12,4.68,-37.33,291.19,2.04,2.47,2.0,40.079,35.17803,126.90888,,155.56332963278172,,66.05161,,0 / 20,5,2014-12-14 15:12:10:311
2.6229,-1.1294,9.6351,-0.3945,-0.3469,9.7926,0.6067,0.0706,-0.0155,10.62,5.43,-36.95,291.32,2.05,2.49,2.0,40.079,35.17803,126.90888,,155.56332963278172,,66.05161,,0 / 20,55,2014-12-14 15:12:10:361
-0.0401,-0.3248,9.6734,-0.3683,-0.3694,9.7928,0.3637,-0.3095,-0.0334,11.37,4.3,-37.39,285.72,2.03,2.31,2.0,40.079,35.17803,126.90888,,155.56332963278172,,66.05161,,0 / 20,105,2014-12-14 15:12:10:411
-0.4233,-0.3248,9.6734,-0.3602,-0.3663,9.7932,-0.08,0.0272,0.0059,10.31,4.3,-38.14,286.61,2.14,2.11,2.0,40.079,35.17803,126.90888,,155.56332963278172,,66.05161,,0 / 20,155,2014-12-14 15:12:10:461
-1.4578,0.8439,9.6543,-0.4066,-0.3521,9.7919,-0.5028,0.2232,0.0067,10.62,3.93,-36.45,286.61,2.14,2.11,2.0,40.079,35.17803,126.90888,,155.56332963278172,,66.05161,,0 / 20,205,2014-12-14 15:12:10:511
-0.1359,-1.5126,9.5776,-0.451,-0.2491,9.7931,-0.0189,0.2258,0.0151,10.31,1.74,-37.33,274.44,2.06,2.38,2.0,40.079,35.17803,126.90888,,155.56332963278172,,66.05161,,0 / 20,257,2014-12-14 15:12:10:563
-0.8064,-0.6122,9.6543,-0.3983,-0.3085,9.7937,0.3212,-0.6195,-0.0062,9.93,1.36,-37.14,270.34,1.46,2.64,2.0,40.079,35.17803,126.90888,,155.56332963278172,,66.05161,,0 / 20,305,2014-12-14 15:12:10:611
-1.1513,-1.1486,9.5968,-0.4158,-0.2821,9.7938,-0.176,0.4225,0.0166,7.68,-1.57,-35.89,270.34,1.46,2.64,2.0,48.25,35.17803,126.90888,,155.56332963278172,,66.05161,,0 / 20,355,2014-12-14 15:12:10:661
-0.2892,-0.2482,10.0566,-0.4334,-0.4003,9.7889,0.0614,-0.5786,-0.0197,6.62,-2.32,-37.58,240.06,1.65,2.43,2.0,48.25,35.17803,126.90888,,155.56332963278172,,66.05161,,0 / 20,404,2014-12-14 15:12:10:710
-2.4349,-6.0531,-0.059,-0.6157,-0.1916,9.7854,-9.3258,0.0731,-7.9046,-19.88,-5.26,-42.89,104.39,1.12,3.6,2.0,48.25,35.17803,126.90888,,155.56332963278172,,66.05161,,0 / 20,455,2014-12-14 15:12:10:761
2.5654,-4.3672,7.4894,0.1831,-0.8536,9.7677,5.1864,-2.7861,-4.3528,-20.63,-4.89,-42.83,104.39,1.12,3.6,2.0,48.25,35.17803,126.90888,,155.56332963278172,,66.05161,,0 / 20,505,2014-12-14 15:12:10:811
5.6882,-0.3439,9.3094,0.3262,-0.7807,9.7701,4.9108,0.5789,-0.9842,-19.13,-2.32,-45.83,114.93,4.99,-1.07,2.0,48.25,35.17803,126.90888,,155.56332963278172,,66.05161,,0 / 20,554,2014-12-14 15:12:10:860
4.7495,-1.1486,13.2177,1.0975,-0.7961,9.7125,4.8993,-0.6912,2.1971,-20.25,-3.76,-42.33,111.66,4.57,-1.91,2.0,48.25,35.17803,126.90888,,155.56332963278172,,66.05161,,0 / 20,605,2014-12-14 15:12:10:911
4.328,-1.3593,14.3672,1.2222,-0.8637,9.6918,-0.7476,-0.29,-0.3221,-8.13,-6.76,-42.83,167.73,4.92,-7.48,2.0,48.25,35.17803,126.90888,,155.56332963278172,,66.05161,,0 / 20,655,2014-12-14 15:12:10:961
-0.0401,-0.2098,7.2978,1.4293,-0.7868,9.67,0.1339,-0.2801,0.0642,5.49,-10.76,-39.02,167.73,4.92,-7.48,2.0,61.124,35.17803,126.90888,,155.56332963278172,,66.05161,,0 / 20,704,2014-12-14 15:12:11:010
0.4005,1.3611,10.2865,1.2038,-0.7737,9.7017,-1.9647,0.4849,-2.4477,13.62,-11.14,-34.33,234.35,4.6,-8.41,2.0,61.124,35.17803,126.90888,,155.56332963278172,,66.05161,,0 / 20,755,2014-12-14 15:12:11:061
-2.3966,-0.9187,6.8763,0.7714,-0.2865,9.7721,-2.853,2.2929,-1.6862,25.74,-13.7,-25.08,242.27,1.67,-4.51,2.0,61.124,35.17803,126.90888,,155.56332963278172,,66.05161,,0 / 20,805,2014-12-14 15:12:11:111
-4.6572,2.9321,7.9683,0.3959,-0.2791,9.7947,-2.8415,0.5792,-1.2566,30.87,-13.01,-22.45,242.27,1.67,-4.51,2.0,61.124,35.17803,126.90888,,155.56332963278172,,66.05161,,0 / 20,854,2014-12-14 15:12:11:160
-3.4503,2.0317,7.2403,-0.2848,0.042,9.8024,-4.226,1.2,0.5083,34.93,-10.76,-16.83,252.21,1.63,-2.31,2.0,61.124,35.17803,126.90888,,155.56332963278172,,66.05161,,0 / 20,905,2014-12-14 15:12:11:211
-6.6497,1.5719,10.4781,-1.2628,0.4258,9.7157,-4.7515,0.6227,-0.6546,38.62,-5.26,-20.7,263.16,-1.15,2.96,2.0,61.124,35.17803,126.90888,,155.56332963278172,,66.05161,,0 / 20,954,2014-12-14 15:12:11:260
-4.1783,0.0775,12.6813,-1.9164,0.4016,9.6092,-2.2569,-0.4721,3.158,37.5,-3.45,-20.2,263.16,-1.15,2.96,2.0,61.124,35.17803,126.90888,,155.56332963278172,,66.05161,,0 / 20,1005,2014-12-14 15:12:11:311
-5.9025,-0.1715,13.5242,-2.1381,0.3639,9.5638,-2.13,-0.1015,1.9883,34.56,-5.64,-21.58,268.54,-2.35,11.28,2.0,56.398,35.17803,126.90888,,155.56332963278172,,66.05161,,0 / 20,1055,2014-12-14 15:12:11:361
-6.5731,7.2044,8.7538,-2.4765,0.2868,9.4845,-3.4909,-0.6469,3.0206,30.12,-15.2,-23.58,238.46,-1.68,14.63,2.0,56.398,35.17803,126.90888,,155.56332963278172,,66.05161,,0 / 20,1104,2014-12-14 15:12:11:410
-1.8218,3.1812,12.1832,-2.6009,0.7246,9.4277,0.48,2.0079,2.8714,24.62,-22.89,-22.77,220.84,-4.24,15.42,2.0,56.398,35.17803,126.90888,,155.56332963278172,,66.05161,,0 / 20,1156,2014-12-14 15:12:11:462
-0.27,5.1928,11.321,-2.4628,1.263,9.408,0.4372,3.1645,0.3069,23.5,-26.57,-20.2,220.84,-4.24,15.42,2.0,56.398,35.17803,126.90888,,155.56332963278172,,66.05161,,0 / 20,1204,2014-12-14 15:12:11:510
-1.0938,3.7368,6.0525,-2.1363,1.6552,9.4269,2.9101,2.9755,0.7338,19.49,-32.45,-17.27,205.89,-7.4,14.67,2.0,56.398,35.17803,126.90888,,155.56332963278172,,66.05161,,0 / 20,1255,2014-12-14 15:12:11:561
-1.0363,6.4956,4.7689,-2.4833,2.4535,9.1643,-0.2305,3.8234,-7.1261,18.37,-39.45,-12.58,202.44,-12.37,14.33,2.0,56.398,35.17803,126.90888,,155.56332963278172,,66.05161,,0 / 20,1305,2014-12-14 15:12:11:611
-0.8064,6.9745,1.8568,-2.4645,3.1696,8.9471,1.1898,3.3775,-6.4332,17.99,-39.82,-9.14,202.44,-12.37,14.33,2.0,56.398,35.17803,126.90888,,155.56332963278172,,66.05161,,0 / 20,1355,2014-12-14 15:12:11:661
-1.8793,7.1853,0.3433,-2.626,4.3591,8.3829,-0.6883,2.7389,-7.7799,17.62,-42.39,-4.58,204.06,-21.0,15.02,2.0,54.791,35.17803,126.90888,,155.56332963278172,,66.05161,,0 / 20,1404,2014-12-14 15:12:11:710
-2.7031,7.3385,-0.5954,-2.792,5.2744,7.7817,-0.3079,3.4783,-6.4337,20.93,-39.82,-3.2,211.07,-26.39,17.39,2.0,54.791,35.17803,126.90888,,155.56332963278172,,66.05161,,0 / 20,1455,2014-12-14 15:12:11:761
-4.3699,6.7063,0.7457,-2.9229,5.7026,7.4235,-0.5464,2.9759,-6.2423,21.31,-38.39,-7.02,211.07,-26.39,17.39,2.0,54.791,35.17803,126.90888,,155.56332963278172,,66.05161,,0 / 20,1505,2014-12-14 15:12:11:811
-5.0979,6.8213,-2.6262,-3.3496,6.3125,6.7159,-1.4448,1.6685,-5.4914,26.5,-35.76,-4.7,226.74,-35.56,21.49,2.0,54.791,35.17803,126.90888,,155.56332963278172,,66.05161,,0 / 20,1555,2014-12-14 15:12:11:861
-6.6689,5.576,-2.8561,-4.7784,7.1922,4.6486,-3.5133,0.6824,-5.4641,29.06,-31.76,-5.77,257.81,-47.17,45.79,0.0,54.791,35.17803,126.90888,,155.56332963278172,,66.05161,,0 / 20,1605,2014-12-14 15:12:11:911
-8.3548,5.9017,-1.1127,-5.4145,7.2852,3.7121,-3.6698,0.7048,-3.8704,32.75,-28.82,-4.83,270.56,-47.17,45.79,0.0,54.791,35.17803,126.90888,,155.56332963278172,,66.05161,,0 / 20,1654,2014-12-14 15:12:11:960
-7.416,6.5722,-2.971,-6.2304,7.1983,2.3533,-2.9617,0.9898,-4.7688,31.62,-27.32,-5.27,284.58,-47.98,55.57,0.0,36.491,35.17803,126.90888,,155.56332963278172,,66.05161,,0 / 20,1705,2014-12-14 15:12:12:011
-6.9371,6.8596,-0.1165,-6.4745,7.1523,1.7595,-2.3697,1.1777,-1.8749,34.56,-26.2,-5.77,319.59,-47.22,69.31,0.0,36.491,35.17803,126.90888,,155.56332963278172,,66.05161,,0 / 20,1755,2014-12-14 15:12:12:061
-6.1899,7.1086,0.1326,-6.503,7.2054,1.4015,-0.8406,1.3742,-0.9399,34.93,-25.89,-6.2,319.59,-47.22,69.31,0.0,36.491,35.17803,126.90888,,155.56332963278172,,66.05161,,0 / 20,1805,2014-12-14 15:12:12:111
-5.9983,7.5876,-1.4384,-6.5243,7.2147,1.2461,-1.1966,1.1626,-1.5608,33.06,-28.45,-6.2,357.02,-47.37,79.19,0.0,36.491,35.17803,126.90888,,155.56332963278172,,66.05161,,0 / 20,1854,2014-12-14 15:12:12:160
-6.0175,7.6451,-1.2851,-6.5514,7.2766,0.5473,-0.8543,1.3251,-2.3334,33.06,-27.7,-5.77,357.02,-47.37,79.19,0.0,36.491,35.17803,126.90888,,155.56332963278172,,66.05161,,0 / 20,1905,2014-12-14 15:12:12:211
-6.4006,7.76,-0.7295,-6.486,7.3479,0.3324,-0.4515,1.3551,-0.8969,33.43,-30.26,-2.77,357.02,-47.37,79.19,0.0,36.491,35.17803,126.90888,,155.56332963278172,,66.05161,,0 / 20,1955,2014-12-14 15:12:12:261
-5.232,7.9516,-2.7603,-6.4068,7.4243,-0.0425,-0.2799,1.1515,-2.3119,31.99,-29.14,-3.45,15.63,-48.53,87.07,0.0,36.491,35.17803,126.90888,,155.56332963278172,,66.05161,,0 / 20,2004,2014-12-14 15:12:12:310
-5.1937,8.2007,-0.9403,-6.2661,7.5358,-0.3436,0.3951,1.3119,-1.291,31.99,-30.26,-5.7,15.63,-48.53,87.07,0.0,23.0,35.17803,126.90888,,155.56332963278172,,66.05161,,0 / 20,2055,2014-12-14 15:12:12:361
-5.3661,7.9516,-0.2122,-6.1471,7.6316,-0.3758,0.1636,1.0665,0.1014,31.62,-29.51,-4.08,47.93,-50.21,93.14,0.0,23.0,35.17803,126.90888,,155.56332963278172,,66.05161,,0 / 20,2105,2014-12-14 15:12:12:411
-5.5002,7.9899,-0.9403,-5.985,7.7476,-0.5708,0.0287,0.8036,-1.1777,30.49,-30.26,-1.08,32.65,-51.1,93.5,0.0,23.0,35.17803,126.90888,,155.56332963278172,,66.05161,,0 / 20,2155,2014-12-14 15:12:12:461
-5.481,8.0857,-1.1127,-5.9564,7.7675,-0.5981,0.029,0.7082,-0.3905,30.49,-28.07,-3.14,43.25,-52.19,95.45,0.0,23.0,35.17803,126.90888,,155.56332963278172,,66.05161,,0 / 20,2205,2014-12-14 15:12:12:511
-5.347,8.0091,-1.6491,-5.8957,7.8061,-0.6894,0.039,0.6452,-0.7453,30.49,-30.26,-0.27,29.35,-52.38,95.73,0.0,23.0,35.17803,126.90888,,155.56332963278172,,66.05161,,0 / 20,2255,2014-12-14 15:12:12:561
-5.3853,8.1623,-1.2468,-5.8029,7.859,-0.8559,0.1274,0.5759,-0.5472,30.49,-29.51,-1.45,29.35,-52.38,95.73,0.0,23.0,35.17803,126.90888,,155.56332963278172,,66.05161,,0 / 20,2305,2014-12-14 15:12:12:611
-5.1745,8.1815,-0.8636,-5.697,7.9322,-0.8915,0.2443,0.536,-0.0627,30.49,-29.51,-1.52,48.41,-53.6,98.77,0.0,23.0,35.17803,126.90888,,155.56332963278172,,66.05161,,0 / 20,2355,2014-12-14 15:12:12:661
-5.0596,8.2964,-0.8828,-5.6342,7.9767,-0.8932,0.2751,0.4975,-0.036,30.49,-30.26,-3.08,50.71,-54.43,99.01,0.0,26.968,35.17803,126.90888,,155.56332963278172,,66.05161,,0 / 20,2404,2014-12-14 15:12:12:710
-4.9446,8.488,-0.9211,-5.5683,8.0251,-0.8728,0.2662,0.5353,0.2375,30.49,-28.07,-2.58,50.71,-54.43,99.01,0.0,26.968,35.17803,126.90888,,155.56332963278172,,66.05161,,0 / 20,2455,2014-12-14 15:12:12:761
-5.0404,8.4114,-0.9977,-5.4211,8.1239,-0.8852,0.3334,0.5326,-0.1354,30.87,-29.2,-1.45,33.79,-55.52,98.96,0.0,26.968,35.17803,126.90888,,155.56332963278172,,66.05161,,0 / 20,2505,2014-12-14 15:12:12:811
-5.5385,8.239,-0.9403,-5.375,8.15,-0.9253,0.2932,0.3473,-0.3525,29.75,-28.45,-1.95,33.79,-55.52,98.96,0.0,26.968,35.17803,126.90888,,155.56332963278172,,66.05161,,0 / 20,2555,2014-12-14 15:12:12:861
-5.347,8.1049,-0.9594,-5.3833,8.1445,-0.9262,-0.1962,0.2127,-0.0784,31.25,-28.82,-2.27,45.05,-56.21,99.77,0.0,26.968,35.17803,126.90888,,155.56332963278172,,66.05161,,0 / 20,2605,2014-12-14 15:12:12:911
-5.596,8.124,-1.1127,-5.3885,8.14,-0.9348,-0.1275,0.0861,-0.1513,30.87,-28.45,-3.2,41.31,-56.16,99.78,0.0,26.968,35.17803,126.90888,,155.56332963278172,,66.05161,,0 / 20,2655,2014-12-14 15:12:12:961
-5.0787,8.2773,-1.151,-5.3992,8.1296,-0.9634,-0.1244,0.0963,-0.1731,29.75,-28.82,-3.45,41.31,-56.16,99.78,0.0,26.968,35.17803,126.90888,,155.56332963278172,,66.05161,,0 / 20,2705,2014-12-14 15:12:13:011
-4.9446,8.4497,-1.2468,-5.3305,8.1706,-0.9985,0.3498,0.3269,-0.1737,29.75,-29.89,-5.27,53.52,-56.0,100.12,0.0,25.724,35.17803,126.90888,,155.56332963278172,,66.05161,,0 / 20,2755,2014-12-14 15:12:13:061
-5.117,8.3348,-0.9786,-5.3035,8.1889,-0.9928,0.1155,0.1942,0.0669,30.49,-30.26,-2.58,48.42,-56.43,100.61,0.0,25.724,35.17803,126.90888,,155.56332963278172,,66.05161,,0 / 20,2805,2014-12-14 15:12:13:111
-5.1937,8.2198,-0.8253,-5.2805,8.2036,-0.9939,-0.039,0.0681,0.1085,31.99,-30.64,-3.83,48.7,-56.71,100.66,0.0,25.724,35.17803,126.90888,,155.56332963278172,,66.05161,,0 / 20,2855,2014-12-14 15:12:13:161
-5.1554,8.2964,-0.9211,-5.2805,8.2036,-0.9939,-0.039,0.0681,0.1085,29.75,-33.2,-2.89,48.7,-56.71,100.66,0.0,25.724,35.17803,126.90888,,155.56332963278172,,66.05161,,0 / 20,2905,2014-12-14 15:12:13:211
-5.1362,8.239,-1.2468,-5.2663,8.2145,-0.9789,0.0538,0.1095,-8.0E-4,29.75,-33.2,-2.89,48.7,-56.71,100.66,0.0,25.724,35.17803,126.90888,,155.56332963278172,,66.05161,,0 / 20,2955,2014-12-14 15:12:13:261
-5.1554,8.239,-1.8215,-5.2537,8.2212,-0.9905,0.159,0.0059,-0.1962,30.49,-32.14,-1.45,47.14,-56.96,100.68,0.0,25.724,35.17803,126.90888,,155.56332963278172,,66.05161,,0 / 20,3004,2014-12-14 15:12:13:310
-5.232,8.239,-1.6491,-5.2222,8.2212,-1.1452,0.0275,0.05,-0.7259,30.49,-32.14,-1.45,47.14,-56.96,100.68,0.0,25.724,35.17803,126.90888,,155.56332963278172,,66.05161,,0 / 20,3055,2014-12-14 15:12:13:361
-5.2512,8.1432,-1.3617,-5.2175,8.2159,-1.2029,-0.0968,0.0571,-0.3123,30.49,-31.39,-2.27,51.53,-56.96,102.37,0.0,26.347,35.17803,126.90888,,155.56332963278172,,66.05161,,0 / 20,3105,2014-12-14 15:12:13:411
-5.117,8.3348,-0.9403,-5.2277,8.2075,-1.2162,0.0601,0.0898,0.2238,29.06,-32.14,-0.08,47.33,-56.79,103.19,0.0,26.347,35.17803,126.90888,,155.56332963278172,,66.05161,,0 / 20,3155,2014-12-14 15:12:13:461
-5.117,8.3539,-1.1702,-5.1994,8.2323,-1.1685,0.2617,0.1591,0.4127,29.75,-32.45,0.67,47.33,-56.79,103.19,0.0,26.347,35.17803,126.90888,,155.56332963278172,,66.05161,,0 / 20,3204,2014-12-14 15:12:13:510