ACCELEROMETER X (m/s²),ACCELEROMETER Y (m/s²),ACCELEROMETER Z (m/s²),GRAVITY X (m/s²),GRAVITY Y (m/s²),GRAVITY Z (m/s²),LINEAR ACCELERATION X (m/s²),LINEAR ACCELERATION Y (m/s²),LINEAR ACCELERATION Z (m/s²),MAGNETIC FIELD X (μT),MAGNETIC FIELD Y (μT),MAGNETIC FIELD Z (μT),ORIENTATION X (°),ORIENTATION Y (°),ORIENTATION Z (°),PROXIMITY (i),SOUND LEVEL (dB),LOCATION Latitude : ,LOCATION Longitude : ,LOCATION Altitude ( m),LOCATION Altitude-google ( m),LOCATION Speed ( Kmh),LOCATION Accuracy ( m),LOCATION ORIENTATION (°),Satellites in range,Time since start in ms ,YYYY-MO-DD HH-MI-SS_SSS
-0.4233,-0.3439,9.7309,-0.4107,-0.3563,9.7916,-0.0176,0.0082,0.0237,12.5,7.24,-37.39,298.36,2.08,2.4,2.0,52.523,35.17802,126.90888,,155.6481465620445,,67.00645,,0 / 20,3,2014-12-14 15:12:19:284
-0.5574,0.3457,9.6351,-0.4483,-0.2991,9.7918,-0.4466,0.6262,0.0342,12.5,5.43,-37.83,298.36,2.08,2.4,2.0,44.655,35.17802,126.90888,,155.6481465620445,,67.00645,,0 / 20,52,2014-12-14 15:12:19:333
-2.7414,-0.3056,9.6351,-0.4553,-0.2558,9.7927,-0.0956,0.5987,-0.0078,10.31,2.86,-36.77,285.49,1.75,2.62,2.0,44.655,35.17802,126.90888,,155.6481465620445,,67.00645,,0 / 20,103,2014-12-14 15:12:19:384
1.3201,-1.9532,9.616,-0.5193,-0.3645,9.7861,1.8741,-1.0325,-0.0318,10.31,0.61,-37.33,271.15,1.3,4.23,2.0,44.655,35.17802,126.90888,,155.6481465620445,,67.00645,,0 / 20,153,2014-12-14 15:12:19:434
-1.1321,0.5182,9.7501,-0.4366,-0.4316,9.7874,1.1433,-0.9276,0.001,8.43,-0.45,-38.14,255.01,2.52,2.55,2.0,44.655,35.17802,126.90888,,155.6481465620445,,67.00645,,0 / 20,203,2014-12-14 15:12:19:484
5.8223,-1.7617,12.279,-0.1694,-0.2851,9.801,4.0895,-0.7911,2.7198,6.25,-1.57,-39.95,255.01,2.52,2.55,2.0,44.655,35.17802,126.90888,,155.6481465620445,,67.00645,,0 / 20,252,2014-12-14 15:12:19:533
2.9869,1.9167,18.9844,0.3007,-0.3997,9.7939,6.8579,-1.6966,0.658,-16.94,-0.07,-43.7,129.16,1.67,0.99,2.0,44.655,35.17802,126.90888,,155.6481465620445,,67.00645,,0 / 20,303,2014-12-14 15:12:19:584
0.3431,-0.9379,14.5205,-0.1327,-0.5616,9.7897,0.8385,-1.5857,0.6661,-19.88,-0.82,-43.27,91.8,-0.42,2.71,2.0,59.685,35.17802,126.90888,,155.6481465620445,,67.00645,,0 / 20,352,2014-12-14 15:12:19:633
4.0215,0.4415,11.6084,0.13,-0.5484,9.7904,3.5964,0.0652,2.0497,-17.32,-2.32,-42.39,104.85,3.21,-0.76,2.0,59.685,35.17802,126.90888,,155.6481465620445,,67.00645,,0 / 20,403,2014-12-14 15:12:19:684
1.4734,-1.1103,10.4589,0.8286,-0.5943,9.7535,1.5589,-1.0121,-0.5073,-19.88,0.24,-42.64,97.96,3.04,-4.18,2.0,59.685,35.17802,126.90888,,155.6481465620445,,67.00645,,0 / 20,460,2014-12-14 15:12:19:741
5.2284,-1.9724,18.0839,1.0235,-0.7491,9.7243,2.257,-1.4085,0.0778,-22.44,3.18,-43.27,97.96,3.04,-4.18,2.0,59.685,35.17802,126.90888,,155.6481465620445,,67.00645,,0 / 20,503,2014-12-14 15:12:19:784
8.0255,-4.2331,8.1216,1.5041,-0.8461,9.6536,3.5133,-1.132,5.2829,-16.94,-0.45,-42.2,104.89,4.38,-6.01,2.0,59.685,35.17802,126.90888,,155.6481465620445,,67.00645,,0 / 20,552,2014-12-14 15:12:19:833
3.7532,0.3266,12.3748,2.2177,-1.0403,9.4958,2.2251,0.9759,-1.1894,0.74,-9.32,-37.58,214.49,6.44,-12.18,2.0,59.685,35.17802,126.90888,,155.6481465620445,,67.00645,,0 / 20,603,2014-12-14 15:12:19:884
-1.3237,-0.957,0.8415,2.2851,-0.9668,9.4876,-1.0169,-0.7949,-0.9271,9.56,-13.7,-35.2,214.49,6.44,-12.18,2.0,59.685,35.17802,126.90888,,155.6481465620445,,67.00645,,0 / 20,653,2014-12-14 15:12:19:934
1.8374,1.2845,9.8075,1.887,-0.5486,9.6077,-0.6481,3.4415,3.5056,21.31,-15.57,-27.95,229.9,5.66,-13.54,2.0,61.338,35.17802,126.90888,,155.6481465620445,,67.00645,,0 / 20,703,2014-12-14 15:12:19:984
-4.8871,1.3228,7.3553,1.806,-0.2979,9.6343,-1.4736,0.7168,-1.5707,27.93,-13.7,-22.77,244.91,3.21,-11.11,2.0,61.338,35.17802,126.90888,,155.6481465620445,,67.00645,,0 / 20,753,2014-12-14 15:12:20:034
-2.1092,0.9013,9.6926,0.3915,0.3809,9.7914,-5.5128,4.6638,0.6084,32.37,-11.89,-23.27,251.28,-2.23,-2.29,2.0,61.338,35.17802,126.90888,,155.6481465620445,,67.00645,,0 / 20,803,2014-12-14 15:12:20:084
-7.052,0.9971,11.4935,-0.038,0.5006,9.7938,-3.0394,-0.5701,-0.3643,34.56,-8.57,-21.95,251.28,-2.23,-2.29,2.0,61.338,35.17802,126.90888,,155.6481465620445,,67.00645,,0 / 20,853,2014-12-14 15:12:20:134
-4.1783,3.3919,11.436,-1.1165,0.6158,9.7234,-3.4236,0.8288,0.2738,34.18,-12.26,-20.45,257.51,-2.93,0.22,2.0,61.338,35.17802,126.90888,,155.6481465620445,,67.00645,,0 / 20,903,2014-12-14 15:12:20:184
0.2856,2.3191,11.5701,-1.6254,1.0427,9.6146,0.119,3.2926,0.6851,25.37,-21.07,-24.52,228.59,-5.16,8.96,2.0,61.338,35.17802,126.90888,,155.6481465620445,,67.00645,,0 / 20,952,2014-12-14 15:12:20:233
-2.3008,4.7138,12.1832,-1.6338,1.4672,9.5576,-1.0688,3.3582,3.3939,24.24,-26.2,-20.64,228.59,-5.16,8.96,2.0,56.214,35.17802,126.90888,,155.6481465620445,,67.00645,,0 / 20,1003,2014-12-14 15:12:20:284
-1.5536,6.0549,8.1791,-1.634,2.1572,9.4259,0.2999,3.5111,-1.2975,21.31,-32.14,-22.33,215.76,-8.6,9.7,2.0,56.214,35.17802,126.90888,,155.6481465620445,,67.00645,,0 / 20,1052,2014-12-14 15:12:20:333
-0.4999,5.7101,8.7347,-1.5828,2.6352,9.3124,0.5245,3.1774,-0.8671,21.31,-34.7,-19.77,210.77,-12.71,9.83,2.0,56.214,35.17802,126.90888,,155.6481465620445,,67.00645,,0 / 20,1103,2014-12-14 15:12:20:384
-0.6915,7.3194,6.6081,-1.9291,3.4967,8.9567,-2.9101,4.652,-5.254,14.31,-40.2,-16.77,198.39,-20.89,12.15,2.0,56.214,35.17802,126.90888,,155.6481465620445,,67.00645,,0 / 20,1153,2014-12-14 15:12:20:434
1.3776,8.9861,1.8952,-1.7439,4.2826,8.648,2.2788,4.4322,-6.0295,13.24,-42.76,-15.58,198.39,-20.89,12.15,2.0,56.214,35.17802,126.90888,,155.6481465620445,,67.00645,,0 / 20,1203,2014-12-14 15:12:20:484
1.1094,8.9287,4.1942,-0.9545,5.6687,7.9451,2.5968,3.0865,-2.9549,13.24,-43.14,-12.2,195.86,-25.89,11.4,2.0,56.214,35.17802,126.90888,,155.6481465620445,,67.00645,,0 / 20,1253,2014-12-14 15:12:20:534
0.4197,8.6988,3.696,-0.8137,5.9805,7.7293,1.8869,3.0509,-3.8339,15.81,-42.76,-10.27,208.84,-37.58,6.01,2.0,56.214,35.17802,126.90888,,155.6481465620445,,67.00645,,0 / 20,1303,2014-12-14 15:12:20:584
-1.8027,7.7025,2.2592,-0.6859,6.4969,7.3137,0.5799,1.825,-3.872,17.62,-40.95,-7.7,208.84,-37.58,6.01,2.0,40.326,35.17802,126.90888,,155.6481465620445,,67.00645,,0 / 20,1353,2014-12-14 15:12:20:634
-2.5881,7.2236,0.42,-0.9743,7.1728,6.616,-1.1715,1.6891,-3.9848,23.5,-38.39,-4.45,214.89,-41.49,5.36,2.0,40.326,35.17802,126.90888,,155.6481465620445,,67.00645,,0 / 20,1403,2014-12-14 15:12:20:684
-3.8335,6.5722,-2.4155,-1.3262,7.6401,6.0034,-1.8424,0.6637,-5.1779,26.12,-36.51,-4.77,238.28,-51.18,12.46,2.0,40.326,35.17802,126.90888,,155.6481465620445,,67.00645,,0 / 20,1452,2014-12-14 15:12:20:733
-4.3507,6.2848,-1.1702,-1.8562,8.1346,5.153,-2.4501,0.0706,-6.3937,30.12,-31.39,-4.39,238.28,-51.18,12.46,2.0,40.326,35.17802,126.90888,,155.6481465620445,,67.00645,,0 / 20,1503,2014-12-14 15:12:20:784
-8.259,4.7905,-1.5533,-3.6786,8.3433,3.6093,-4.8988,-0.7602,-5.5061,33.06,-27.32,-4.02,272.97,-57.66,30.47,2.0,40.326,35.17802,126.90888,,155.6481465620445,,67.00645,,0 / 20,1553,2014-12-14 15:12:20:834
-9.6384,4.5989,-0.5188,-4.7065,8.0859,2.9389,-5.4983,-1.1233,-2.8072,33.43,-26.57,-4.7,294.32,-58.3,45.54,0.0,40.326,35.17802,126.90888,,155.6481465620445,,67.00645,,0 / 20,1603,2014-12-14 15:12:20:884
-7.9908,5.7484,-3.0477,-6.1334,7.5263,1.381,-3.0755,0.1223,-3.0594,34.93,-25.14,-1.7,315.47,-52.11,68.8,0.0,40.326,35.17802,126.90888,,155.6481465620445,,67.00645,,0 / 20,1653,2014-12-14 15:12:20:934
-7.2819,6.2465,-0.8062,-6.2691,7.4455,1.1971,-2.5136,0.3987,-1.7628,35.31,-23.26,-2.14,315.47,-52.11,68.8,0.0,30.667,35.17802,126.90888,,155.6481465620445,,67.00645,,0 / 20,1702,2014-12-14 15:12:20:983
-7.5502,6.5147,-1.4575,-6.4228,7.3687,0.7876,-1.8766,0.6924,-1.9441,35.68,-22.51,-1.33,334.36,-49.4,79.19,0.0,30.667,35.17802,126.90888,,155.6481465620445,,67.00645,,0 / 20,1753,2014-12-14 15:12:21:034
-7.3586,6.3423,-1.994,-6.6654,7.1887,0.2561,-1.8072,0.3217,-2.066,35.31,-22.51,-0.95,352.71,-47.66,86.19,0.0,30.667,35.17802,126.90888,,155.6481465620445,,67.00645,,0 / 20,1803,2014-12-14 15:12:21:084
-7.3203,6.6105,-1.4575,-6.7729,7.0921,0.0224,-1.6914,0.5007,-1.4017,34.56,-23.26,-1.83,352.71,-47.66,86.19,0.0,30.667,35.17802,126.90888,,155.6481465620445,,67.00645,,0 / 20,1853,2014-12-14 15:12:21:134
-7.2245,6.6871,-1.4001,-6.8767,6.9854,-0.2926,-1.1734,0.519,-1.2422,35.68,-21.82,-3.45,10.49,-46.32,89.81,0.0,30.667,35.17802,126.90888,,155.6481465620445,,67.00645,,0 / 20,1902,2014-12-14 15:12:21:183
-6.7263,7.0703,-1.6874,-6.8855,6.9688,-0.4426,-0.6745,0.6132,-0.8636,34.56,-23.64,-3.45,29.36,-45.42,92.44,0.0,30.667,35.17802,126.90888,,155.6481465620445,,67.00645,,0 / 20,1952,2014-12-14 15:12:21:233
-6.8796,7.1469,-1.5725,-6.8608,6.9725,-0.6958,-0.6121,0.7287,-1.0021,34.93,-23.26,-3.08,36.16,-45.31,95.18,0.0,30.667,35.17802,126.90888,,155.6481465620445,,67.00645,,0 / 20,2003,2014-12-14 15:12:21:284
-6.9371,7.1278,-1.1127,-6.8695,6.9678,-0.6557,-0.7949,0.5576,0.4251,34.18,-23.64,-3.52,36.16,-45.31,95.18,0.0,24.312,35.17802,126.90888,,155.6481465620445,,67.00645,,0 / 20,2053,2014-12-14 15:12:21:334
-6.4006,7.1278,-1.4575,-6.8414,6.9874,-0.7364,0.0038,0.5381,-0.6873,33.43,-23.26,-3.02,41.78,-45.28,95.45,0.0,24.312,35.17802,126.90888,,155.6481465620445,,67.00645,,0 / 20,2103,2014-12-14 15:12:21:384
-6.2665,7.2619,-1.3617,-6.7943,7.0272,-0.792,0.0212,0.6124,-0.2711,33.43,-24.39,-5.58,57.42,-45.77,96.65,0.0,24.312,35.17802,126.90888,,155.6481465620445,,67.00645,,0 / 20,2153,2014-12-14 15:12:21:434
-6.2474,7.3768,-1.4384,-6.7035,7.1018,-0.8934,0.2024,0.5342,-0.5255,32.75,-25.82,-4.27,57.07,-46.2,97.25,0.0,24.312,35.17802,126.90888,,155.6481465620445,,67.00645,,0 / 20,2203,2014-12-14 15:12:21:484
-6.1708,7.7025,-1.4001,-6.6289,7.1693,-0.911,0.4984,0.6733,-0.1374,33.81,-25.51,-1.58,57.07,-46.2,97.25,0.0,24.312,35.17802,126.90888,,155.6481465620445,,67.00645,,0 / 20,2253,2014-12-14 15:12:21:534
-6.075,7.7983,-0.9019,-6.516,7.2652,-0.9638,0.2149,0.7408,0.0084,31.99,-26.57,-4.7,51.86,-46.98,97.82,0.0,24.312,35.17802,126.90888,,155.6481465620445,,67.00645,,0 / 20,2303,2014-12-14 15:12:21:584
-6.1899,7.6834,-0.9211,-6.4519,7.3231,-0.9568,0.2635,0.6169,-0.0139,32.75,-25.14,-4.27,51.62,-47.8,98.41,0.0,22.563,35.17802,126.90888,,155.6481465620445,,67.00645,,0 / 20,2352,2014-12-14 15:12:21:633
-6.1708,7.6642,-0.8828,-6.3849,7.3833,-0.9435,0.0789,0.4196,0.0464,33.12,-25.82,-3.7,51.8,-48.7,98.43,0.0,22.563,35.17802,126.90888,,155.6481465620445,,67.00645,,0 / 20,2403,2014-12-14 15:12:21:684
-6.4581,7.6642,-0.8253,-6.3646,7.4031,-0.9251,-0.134,0.3039,0.0576,33.06,-26.57,-3.83,51.8,-48.7,98.43,0.0,22.563,35.17802,126.90888,,155.6481465620445,,67.00645,,0 / 20,2453,2014-12-14 15:12:21:734
-6.1133,7.6451,-0.9403,-6.3341,7.4297,-0.9216,0.158,0.296,-0.0454,32.37,-25.14,-4.27,44.76,-49.02,98.27,0.0,22.563,35.17802,126.90888,,155.6481465620445,,67.00645,,0 / 20,2502,2014-12-14 15:12:21:783
-6.075,7.7409,-0.8062,-6.3029,7.4571,-0.9137,0.0821,0.3188,0.066,31.25,-27.7,-3.27,58.03,-49.25,98.28,0.0,22.563,35.17802,126.90888,,155.6481465620445,,67.00645,,0 / 20,2553,2014-12-14 15:12:21:834
-6.0175,7.7217,-0.9977,-6.2547,7.4986,-0.906,0.0836,0.2744,-0.0285,32.75,-27.7,-3.33,50.16,-49.65,98.26,0.0,22.563,35.17802,126.90888,,155.6481465620445,,67.00645,,0 / 20,2603,2014-12-14 15:12:21:884
-6.0558,7.6834,-0.9977,-6.2157,7.5287,-0.9243,0.3147,0.2069,-0.142,31.99,-28.07,-3.7,50.16,-49.65,98.26,0.0,22.563,35.17802,126.90888,,155.6481465620445,,67.00645,,0 / 20,2653,2014-12-14 15:12:21:934
-6.1324,7.7409,-1.0169,-6.1894,7.5481,-0.9417,0.1054,0.2136,-0.1555,31.99,-26.2,-3.02,46.43,-50.15,98.46,0.0,25.236,35.17802,126.90888,,155.6481465620445,,67.00645,,0 / 20,2702,2014-12-14 15:12:21:983
-6.1899,7.6642,-0.7678,-6.1755,7.5605,-0.9345,-0.1348,0.1125,-0.1122,31.99,-26.95,-2.58,49.04,-50.37,98.72,0.0,25.236,35.17802,126.90888,,155.6481465620445,,67.00645,,0 / 20,2753,2014-12-14 15:12:22:034
-5.9792,7.7217,-0.9977,-6.1609,7.5728,-0.9308,0.1616,0.1437,-0.0796,32.75,-28.45,-2.08,49.04,-50.37,98.72,0.0,25.236,35.17802,126.90888,,155.6481465620445,,67.00645,,0 / 20,2803,2014-12-14 15:12:22:084
-6.2282,7.8941,-2.0898,-6.1227,7.5901,-1.0357,0.1156,0.233,-0.8052,31.62,-27.7,-3.45,50.89,-50.55,98.59,0.0,25.236,35.17802,126.90888,,155.6481465620445,,67.00645,,0 / 20,2853,2014-12-14 15:12:22:134
-6.0367,7.6451,-0.8253,-6.1044,7.5941,-1.112,0.1527,0.0466,0.0257,32.37,-26.2,-2.39,43.51,-50.71,99.6,0.0,25.236,35.17802,126.90888,,155.6481465620445,,67.00645,,0 / 20,2903,2014-12-14 15:12:22:184
-6.3049,7.6068,-0.8828,-6.1032,7.6004,-1.0748,0.0906,0.0188,0.1809,31.25,-26.57,-3.45,43.51,-50.71,99.6,0.0,25.236,35.17802,126.90888,,155.6481465620445,,67.00645,,0 / 20,2953,2014-12-14 15:12:22:234