ACCELEROMETER X (m/s²),ACCELEROMETER Y (m/s²),ACCELEROMETER Z (m/s²),GRAVITY X (m/s²),GRAVITY Y (m/s²),GRAVITY Z (m/s²),LINEAR ACCELERATION X (m/s²),LINEAR ACCELERATION Y (m/s²),LINEAR ACCELERATION Z (m/s²),GYROSCOPE X (rad/s),GYROSCOPE Y (rad/s),GYROSCOPE Z (rad/s),LIGHT ( lux),MAGNETIC FIELD X (μT),MAGNETIC FIELD Y (μT),MAGNETIC FIELD Z (μT),ORIENTATION X (°),ORIENTATION Y (°),ORIENTATION Z (°),PROXIMITY ( cm),SOUND LEVEL (dB),LOCATION Latitude : ,LOCATION Longitude : ,LOCATION Altitude ( m),LOCATION Altitude-google ( m),LOCATION Speed ( Kmh),LOCATION Accuracy ( m),LOCATION ORIENTATION (°),Satellites in range,Time since start in ms ,YYYY-MO-DD HH-MI-SS_SSS
0.5982,-9.9636,0.3138,0.825,-9.7711,-0.1259,-0.2268,-0.1925,0.4397,0.0,-0.0244,-0.0073,0.0,36.9,-2.1,11.0,27.75,85.12,-99.11,,54.244,,,,NaN,,,,0 / 0,11,2014-12-14 04:40:40:172
0.6374,-9.9636,0.3236,0.8288,-9.7708,-0.1213,-0.1914,-0.1927,0.445,-0.0098,-0.0342,-0.0061,0.0,36.4,-2.1,11.5,26.97,85.1,-98.33,,38.635,,,,NaN,,,,0 / 0,61,2014-12-14 04:40:40:222
0.559,-9.9145,0.2059,0.8448,-9.7695,-0.117,-0.2858,-0.145,0.323,-0.0086,-0.0293,-0.0049,0.0,36.4,-2.1,11.0,25.07,85.01,-97.89,,38.635,,,,NaN,,,,0 / 0,111,2014-12-14 04:40:40:272
0.4903,-9.9145,0.1863,0.843,-9.7696,-0.122,-0.3527,-0.1449,0.3083,0.0086,-0.0501,0.0037,0.0,36.9,-2.6,11.5,25.07,85.01,-97.89,,38.635,,,,NaN,,,,0 / 0,161,2014-12-14 04:40:40:322
0.4413,-9.9341,0.255,0.8394,-9.7698,-0.128,-0.3981,-0.1643,0.383,-0.0037,-0.0794,0.0073,0.0,36.4,-1.7,11.0,25.86,85.03,-98.67,,38.635,,,,NaN,,,,0 / 0,211,2014-12-14 04:40:40:372
0.3334,-9.9243,0.2942,0.8256,-9.771,-0.1283,-0.4922,-0.1533,0.4225,0.0012,-0.1136,0.0171,0.0,36.4,-2.6,11.0,26.08,85.11,-98.83,,38.635,,,,NaN,,,,0 / 0,262,2014-12-14 04:40:40:423
0.2059,-9.9439,0.0981,0.7623,-9.7762,-0.1268,-0.5564,-0.1678,0.2249,0.0061,-0.204,-0.0342,0.0,36.4,-2.6,12.0,28.12,85.48,-99.44,,38.635,,,,NaN,,,,0 / 0,311,2014-12-14 04:40:40:472
0.608,-9.8851,-0.1373,0.7446,-9.7772,-0.148,-0.372,-0.0392,0.0402,0.0122,-0.1759,-0.0428,0.0,37.3,-2.1,10.6,28.12,85.48,-99.44,,38.635,,,,NaN,,,,0 / 0,361,2014-12-14 04:40:40:522
0.9414,-9.9832,-0.049,0.7468,-9.7764,-0.1877,-0.0309,-0.1774,0.119,-0.0208,-0.1393,-0.011,0.0,37.3,-2.6,10.6,30.92,85.5,-104.11,,38.635,,,,NaN,,,,0 / 0,412,2014-12-14 04:40:40:573
0.9905,-9.9047,-0.0686,0.8336,-9.7678,-0.2567,0.2844,-0.2154,0.1488,-0.1063,0.077,-0.0452,0.0,36.9,-2.6,11.0,30.92,85.5,-104.11,,38.635,,,,NaN,,,,0 / 0,461,2014-12-14 04:40:40:622
0.3236,-9.8066,-0.1667,0.9735,-9.7516,-0.36,-0.7675,-0.0747,0.2031,-0.0965,0.088,-0.0415,0.0,36.9,-2.1,12.0,38.62,83.92,-110.3,,35.475,,,,NaN,,,,0 / 0,512,2014-12-14 04:40:40:673
0.2256,-9.9243,-0.0883,0.8083,-9.7638,-0.4306,-0.5828,-0.1605,0.3423,-0.0538,-0.0611,-0.1002,0.0,36.0,-2.1,14.0,49.63,84.64,-118.04,,35.475,,,,NaN,,,,0 / 0,561,2014-12-14 04:40:40:722
0.2256,-9.9243,-0.0883,0.8083,-9.7638,-0.4306,-0.5828,-0.1605,0.3423,-0.0538,-0.0611,-0.1002,0.0,36.0,-2.1,13.5,52.19,84.31,-120.57,,35.475,,,,NaN,,,,0 / 0,612,2014-12-14 04:40:40:773
0.7061,-9.7968,-0.3432,0.9171,-9.7479,-0.5556,-0.211,-0.049,0.2124,-0.077,-0.0012,-0.11,0.0,36.0,-2.1,13.5,52.19,84.31,-120.57,,35.475,,,,NaN,,,,0 / 0,661,2014-12-14 04:40:40:822
0.6276,-9.8263,-0.3138,0.9334,-9.7456,-0.5681,-0.3058,-0.0807,0.2543,-0.0892,-0.0012,-0.1491,0.0,36.0,-1.7,13.0,51.62,83.6,-121.33,,35.475,,,,NaN,,,,0 / 0,711,2014-12-14 04:40:40:872
0.3923,-9.8459,-0.2354,1.0114,-9.7321,-0.6582,-0.6191,-0.1138,0.4228,-0.1051,0.0415,-0.1503,0.0,35.6,-1.7,14.5,51.62,83.6,-121.33,,35.475,,,,NaN,,,,0 / 0,761,2014-12-14 04:40:40:922
0.3923,-9.8459,-0.2354,1.0114,-9.7321,-0.6582,-0.6191,-0.1138,0.4228,-0.1075,0.0623,-0.1491,0.0,34.7,-1.7,14.5,56.76,82.93,-123.05,,35.475,,,,NaN,,,,0 / 0,811,2014-12-14 04:40:40:972
0.1569,-10.1695,0.8924,1.0168,-9.7359,-0.5899,-0.8599,-0.4336,1.4824,0.1283,-0.0281,-0.1283,0.0,35.1,-1.3,14.0,55.3,82.85,-123.13,,35.475,,,,NaN,,,,0 / 0,861,2014-12-14 04:40:41:022
0.1569,-10.1695,0.8924,1.0168,-9.7359,-0.5899,-0.8599,-0.4336,1.4824,0.1283,-0.0281,-0.1283,0.0,35.1,-1.3,14.0,55.3,82.85,-123.13,,35.475,,,,NaN,,,,0 / 0,912,2014-12-14 04:40:41:073
-0.0981,-12.68,1.52,0.8975,-9.765,-0.0957,-2.0743,-1.3655,2.1551,0.4019,-0.1478,-0.0452,0.0,34.3,-0.4,12.5,27.11,84.72,-96.09,,35.475,,,,NaN,,,,0 / 0,962,2014-12-14 04:40:41:123
1.2258,-12.5329,2.6772,0.2773,-9.7445,1.0667,0.9486,-2.7884,1.6106,1.6493,-0.7343,0.3531,0.0,37.7,1.3,4.2,290.62,83.55,-14.57,,43.208,,,,NaN,,,,0 / 0,1012,2014-12-14 04:40:41:173
1.9319,-9.1986,0.3334,0.5941,-9.6124,1.849,1.3378,0.4138,-1.5155,0.9187,-0.1491,0.347,0.0,40.8,1.8,-4.1,282.54,78.58,-17.81,,43.208,,,,NaN,,,,0 / 0,1061,2014-12-14 04:40:41:222
0.8434,-9.2084,0.049,0.71,-9.6009,1.8676,0.408,0.3141,-1.8186,0.5705,-0.1295,0.3152,0.0,42.1,1.8,-6.5,282.96,78.24,-20.81,,43.208,,,,NaN,,,,0 / 0,1112,2014-12-14 04:40:41:273
0.5786,-6.3449,0.8434,0.6643,-9.6705,1.4868,-0.0857,3.3256,-0.6434,0.0086,-0.3311,0.2089,0.0,44.3,1.3,-10.9,280.11,80.44,-24.07,,43.208,,,,NaN,,,,0 / 0,1165,2014-12-14 04:40:41:326
0.7453,-6.0017,1.0199,0.6745,-9.6786,1.4286,0.0708,3.6769,-0.4087,-0.0672,-0.3067,0.2016,0.0,44.7,0.9,-11.4,280.11,80.44,-24.07,,43.208,,,,NaN,,,,0 / 0,1212,2014-12-14 04:40:41:373
0.7845,-5.8644,1.1866,0.6859,-9.6818,1.4012,0.0987,3.8174,-0.2146,-0.099,-0.2957,0.204,0.0,44.7,0.9,-10.4,283.58,80.85,-26.08,,43.208,,,,NaN,,,,0 / 0,1261,2014-12-14 04:40:41:422
1.4612,-5.2662,1.9908,0.7955,-9.6833,1.3306,0.6657,4.4172,0.6602,-0.3238,-0.1356,0.1564,0.0,45.6,0.9,-10.9,287.4,80.9,-30.87,,43.208,,,,NaN,,,,0 / 0,1312,2014-12-14 04:40:41:473
0.3432,-4.2757,2.4517,1.0958,-9.6305,1.4908,-0.7526,5.3548,0.9609,-0.639,0.6096,0.0086,0.0,45.1,0.0,-7.0,297.05,79.12,-36.32,,43.208,,,,NaN,,,,0 / 0,1361,2014-12-14 04:40:41:522
0.3432,-4.2757,2.4517,1.0958,-9.6305,1.4908,-0.7526,5.3548,0.9609,-0.639,0.6096,0.0086,0.0,45.1,0.0,-7.0,297.05,79.12,-36.32,,43.208,,,,NaN,,,,0 / 0,1412,2014-12-14 04:40:41:573
-0.7453,-17.3185,3.3735,0.7337,-9.7017,1.2282,-1.479,-7.6168,2.1453,-0.4826,0.3054,0.259,0.0,43.4,-0.8,-2.1,300.67,79.73,-33.95,,43.208,,,,NaN,,,,0 / 0,1462,2014-12-14 04:40:41:623
-0.255,-14.8571,-4.7464,0.5637,-9.7105,1.2486,-0.8187,-5.1466,-5.995,-0.9945,0.5107,0.3433,0.0,30.2,-5.1,16.3,321.36,81.97,-24.3,,43.208,,,,NaN,,,,0 / 0,1512,2014-12-14 04:40:41:673
1.4514,-13.5822,3.0303,0.2544,-9.8028,0.1059,-0.3525,-8.6337,2.944,0.9077,0.6854,0.121,0.0,31.1,-6.4,18.2,7.58,88.39,-67.4,,58.696,,,,NaN,,,,0 / 0,1562,2014-12-14 04:40:41:723
1.4514,-13.5822,3.0303,0.2544,-9.8028,0.1059,-0.3525,-8.6337,2.944,0.9077,0.6854,0.121,0.0,31.1,-6.4,18.2,7.58,88.39,-67.4,,58.696,,,,NaN,,,,0 / 0,1611,2014-12-14 04:40:41:772
1.8338,-5.5604,-6.5803,0.7139,-9.694,-1.2987,-6.0683,-3.1625,0.828,-0.8418,0.9468,0.0611,0.0,28.9,-6.9,22.6,331.18,84.19,-34.49,,58.696,,,,NaN,,,,0 / 0,1661,2014-12-14 04:40:41:822
-2.4615,-12.1701,2.0888,0.5154,-9.6851,-1.4501,-2.9769,-2.4849,3.5389,-0.639,0.6158,-0.0489,0.0,28.9,-6.4,23.1,110.0,80.97,-160.43,,58.696,,,,NaN,,,,0 / 0,1711,2014-12-14 04:40:41:872
0.5786,-7.2569,1.9123,0.4223,-9.7616,-0.8388,0.1563,2.5047,2.7511,-0.0415,-0.2053,-0.4862,0.0,28.0,-6.0,25.0,110.0,80.97,-160.43,,58.696,,,,NaN,,,,0 / 0,1761,2014-12-14 04:40:41:922
-2.6478,-8.9633,3.2754,0.573,-9.7793,-0.4563,-3.2208,0.816,3.7317,0.5547,0.1564,-0.1735,0.0,26.7,-5.1,24.1,105.58,84.51,-153.28,,58.696,,,,NaN,,,,0 / 0,1811,2014-12-14 04:40:41:972
1.3827,-6.4626,1.3337,0.3858,-9.795,0.2836,0.9969,3.3324,1.0501,0.4862,0.0574,-0.6402,0.0,25.0,-4.7,21.1,74.06,86.63,-121.98,,58.696,,,,NaN,,,,0 / 0,1862,2014-12-14 04:40:42:023
0.3628,-6.3253,0.9905,0.9587,-9.7314,0.7417,0.9969,3.3324,1.0501,0.4862,0.0574,-0.6402,0.0,25.0,-4.7,21.1,74.06,86.63,-121.98,,58.696,,,,NaN,,,,0 / 0,1912,2014-12-14 04:40:42:073
-1.0591,-7.2667,1.0003,0.9746,-9.7231,0.8258,-2.0337,2.4564,0.1745,0.3567,0.3922,-0.5767,0.0,21.1,-4.3,18.2,0.33,82.52,-49.72,,58.696,,,,NaN,,,,0 / 0,1962,2014-12-14 04:40:42:123
-1.0591,-7.2667,1.0003,0.9746,-9.7231,0.8258,-2.0337,2.4564,0.1745,0.3567,0.3922,-0.5767,0.0,21.1,-4.3,18.2,0.33,82.52,-49.72,,58.696,,,,NaN,,,,0 / 0,2011,2014-12-14 04:40:42:172
-2.5399,-16.6517,4.0796,0.6118,-9.7373,0.9904,-4.0441,-4.8452,1.6084,1.6554,-0.5986,0.2602,0.0,18.5,-4.7,15.3,339.37,83.18,-31.71,,66.208,,,,NaN,,,,0 / 0,2062,2014-12-14 04:40:42:223
6.8352,-15.9652,-2.8145,0.2607,-9.3738,2.8694,5.182,-4.9047,-5.2034,2.1307,-0.8625,1.471,0.0,24.1,-6.9,-5.2,258.98,72.91,-5.19,,66.208,,,,NaN,,,,0 / 0,2111,2014-12-14 04:40:42:272
1.6769,-9.0712,-0.0392,0.3386,-9.3887,2.8122,1.3384,0.3175,-2.8514,1.091,-0.2199,0.9566,0.0,27.6,-8.6,-9.6,258.98,72.91,-5.19,,66.208,,,,NaN,,,,0 / 0,2161,2014-12-14 04:40:42:322
1.1082,-8.5318,-0.2452,0.3277,-9.3929,2.7993,0.7805,0.8611,-3.0444,0.8503,-0.2028,0.854,0.0,28.0,-8.6,-10.6,251.15,73.3,-6.68,,66.208,,,,NaN,,,,0 / 0,2211,2014-12-14 04:40:42:372
1.2651,-0.9807,-2.3536,0.3844,-9.5928,2.0,0.8807,9.3771,-4.1771,-0.672,0.1833,-0.0305,0.0,28.9,-9.5,-10.1,253.25,77.05,-8.93,,66.208,,,,NaN,,,,0 / 0,2261,2014-12-14 04:40:42:422
1.2651,-0.9807,-2.3536,0.3844,-9.5928,2.0,0.8807,9.3771,-4.1771,-0.672,0.1833,-0.0305,0.0,28.9,-9.5,-10.1,253.25,77.05,-8.93,,66.208,,,,NaN,,,,0 / 0,2312,2014-12-14 04:40:42:473
-0.0098,-17.2205,4.3247,0.953,-9.7244,0.8355,1.9302,7.5375,-0.2177,-2.0354,0.4362,0.2101,0.0,26.7,-9.5,-5.2,306.06,82.57,-48.76,,66.208,,,,NaN,,,,0 / 0,2361,2014-12-14 04:40:42:522
-0.1961,-14.3569,8.6789,1.0671,-9.748,-0.0916,-1.2416,-4.7004,7.8894,-0.4618,0.1002,0.2932,0.0,22.4,-9.5,6.0,306.06,82.57,-48.76,,66.208,,,,NaN,,,,0 / 0,2411,2014-12-14 04:40:42:572
3.6775,-14.2196,0.7845,1.1356,-9.7298,0.4607,2.5419,-4.4899,0.3239,0.0415,-1.5565,-0.2896,0.0,21.5,-11.7,5.5,352.64,82.82,-67.92,,66.208,,,,NaN,,,,0 / 0,2461,2014-12-14 04:40:42:622
-1.5298,-18.5542,0.5786,1.3664,-9.7101,-0.1322,-2.8962,-8.8441,0.7108,0.0049,1.9047,0.485,0.0,20.6,-13.4,8.5,31.36,81.95,-95.53,,66.208,,,,NaN,,,,0 / 0,2511,2014-12-14 04:40:42:672
0.2942,-11.9053,-1.5691,0.9068,-9.7606,0.2815,-0.6126,-2.1447,-1.8506,0.6903,0.1038,-0.0525,0.0,21.1,-14.3,6.0,358.61,84.44,-72.75,,63.164,,,,NaN,,,,0 / 0,2562,2014-12-14 04:40:42:723
0.4315,-9.8459,-5.6388,1.0243,-9.753,0.0239,-0.5928,-0.0929,-5.6627,-0.3971,0.5534,-0.4533,0.0,19.8,-13.8,7.5,358.61,84.44,-72.75,,63.164,,,,NaN,,,,0 / 0,2612,2014-12-14 04:40:42:773
-1.7652,-8.5906,-3.7363,1.0888,-9.7346,-0.4712,-1.5851,0.7636,-4.8572,-1.1118,0.8137,-0.2981,0.0,19.3,-14.3,8.5,52.64,83.05,-113.4,,63.164,,,,NaN,,,,0 / 0,2662,2014-12-14 04:40:42:823
0.7943,-8.1787,1.3729,0.7106,-9.7356,-0.9396,0.0838,1.5569,2.3126,0.1197,0.022,0.1002,0.0,18.9,-14.3,10.4,85.21,83.1,-142.9,,63.164,,,,NaN,,,,0 / 0,2712,2014-12-14 04:40:42:873
0.7943,-8.1787,1.3729,0.7106,-9.7356,-0.9396,0.0838,1.5569,2.3126,0.1197,0.022,0.1002,0.0,18.9,-14.3,10.4,85.21,83.1,-142.9,,63.164,,,,NaN,,,,0 / 0,2762,2014-12-14 04:40:42:923
-0.1177,-5.4035,1.7064,0.9489,-9.7265,-0.8152,-1.0665,4.3231,2.5216,-0.3567,0.6182,-0.6695,0.0,17.6,-14.3,9.4,72.26,82.67,-130.67,,63.164,,,,NaN,,,,0 / 0,2811,2014-12-14 04:40:42:972
-1.216,-6.5705,2.942,0.8101,-9.7693,0.2755,-2.0261,3.1988,2.6665,0.7514,0.54,-0.4606,0.0,13.3,-14.3,8.5,17.29,84.99,-71.22,,63.164,,,,NaN,,,,0 / 0,2862,2014-12-14 04:40:43:023
-1.167,-10.6696,1.2651,0.8101,-9.7693,0.2755,-2.0261,3.1988,2.6665,0.7514,0.54,-0.4606,0.0,13.3,-14.3,8.5,17.29,84.99,-71.22,,63.164,,,,NaN,,,,0 / 0,2911,2014-12-14 04:40:43:072
-3.903,-16.3085,2.6576,0.4894,-9.6961,1.3843,-4.3925,-6.6123,1.2733,1.5907,-0.1698,0.314,0.0,9.3,-15.1,3.6,317.9,81.76,-29.08,,63.164,,,,NaN,,,,0 / 0,2961,2014-12-14 04:40:43:122
6.7077,-16.1123,-4.0109,-0.1739,-9.3363,2.9956,6.8816,-6.776,-7.0065,2.7403,-1.4832,1.3378,0.0,10.6,-16.9,-8.1,218.1,72.18,3.32,,63.164,,,,NaN,,,,0 / 0,3011,2014-12-14 04:40:43:172
6.4135,-14.102,-3.7167,-0.027,-9.3213,3.0468,4.0118,0.9723,-4.3302,2.7403,-1.4832,1.3378,0.0,10.6,-16.9,-8.1,218.1,72.18,3.32,,63.164,,,,NaN,,,,0 / 0,3061,2014-12-14 04:40:43:222
0.8532,-7.6786,-0.3628,0.2564,-9.3685,2.8873,0.5968,1.6899,-3.2502,0.4581,0.1014,0.5339,0.0,13.7,-18.6,-12.5,223.43,72.81,-5.07,,61.574,,,,NaN,,,,0 / 0,3112,2014-12-14 04:40:43:273
0.9709,-4.1776,-2.7557,0.2495,-9.5934,2.0188,0.7214,5.4157,-4.7745,-0.8271,0.0208,0.2211,0.0,14.1,-17.7,-10.1,223.43,72.81,-5.07,,61.574,,,,NaN,,,,0 / 0,3162,2014-12-14 04:40:43:323
2.6772,-1.726,0.0098,0.2713,-9.6369,1.7966,0.8564,6.2241,-4.6994,-0.8943,0.1735,0.1588,0.0,14.1,-17.7,-9.6,234.36,79.32,-8.59,,61.574,,,,NaN,,,,0 / 0,3211,2014-12-14 04:40:43:372
2.8439,-2.2555,1.2847,1.075,-9.7473,-0.0707,1.7689,7.4918,1.3554,-2.1551,-0.2395,-0.8454,0.0,12.4,-16.4,-3.2,347.96,83.69,-93.76,,61.574,,,,NaN,,,,0 / 0,3261,2014-12-14 04:40:43:422
0.5982,-11.6895,6.8156,1.3507,-9.6707,-0.9072,-0.7525,-2.0188,7.7228,-0.8968,0.6634,0.3775,0.0,8.9,-16.0,4.6,77.91,80.45,-123.89,,61.574,,,,NaN,,,,0 / 0,3311,2014-12-14 04:40:43:472
1.3141,-7.6884,5.5898,1.209,-9.7171,-0.5363,0.1051,2.0286,6.1261,-0.8735,1.2303,0.325,0.0,8.9,-16.4,6.0,77.91,80.45,-123.89,,61.574,,,,NaN,,,,0 / 0,3361,2014-12-14 04:40:43:522
2.8733,-13.7391,5.3937,1.2581,-9.7254,-0.067,1.6153,-4.0137,5.4606,-0.4911,0.5486,-0.0134,0.0,8.9,-16.4,8.0,52.76,82.62,-93.05,,61.574,,,,NaN,,,,0 / 0,3411,2014-12-14 04:40:43:572
3.4519,-14.2294,-4.9426,1.4489,-9.6943,0.3017,2.003,-4.5351,-5.2442,-0.0562,-0.5302,-0.1185,0.0,8.0,-16.9,7.5,52.76,82.62,-93.05,,61.574,,,,NaN,,,,0 / 0,3462,2014-12-14 04:40:43:623
0.1275,-15.3572,-1.52,1.3934,-9.6999,-0.374,-1.2659,-5.6573,-1.146,-0.0195,1.4221,0.2969,0.0,8.0,-17.3,9.4,75.26,81.54,-105.03,,61.574,,,,NaN,,,,0 / 0,3512,2014-12-14 04:40:43:673
-0.2354,-15.2101,0.2157,1.2403,-9.715,-0.5006,-1.4757,-5.4951,0.7164,-0.3115,0.3421,0.1295,0.0,7.6,-17.7,10.4,75.26,81.54,-105.03,,61.574,,,,NaN,,,,0 / 0,3562,2014-12-14 04:40:43:723
0.9709,-8.9241,-3.1577,0.9067,-9.7582,-0.3546,0.0642,0.8342,-2.8032,-0.088,0.6817,-0.3494,0.0,7.2,-17.7,10.4,84.82,84.3,-111.36,,61.574,,,,NaN,,,,0 / 0,3611,2014-12-14 04:40:43:772
0.353,-7.8453,3.4323,0.5595,-9.7339,-1.0525,-0.2065,1.8886,4.4848,0.3873,-0.2419,-0.0012,0.0,6.3,-18.2,15.8,136.32,83.02,-152.0,,63.4,,,,NaN,,,,0 / 0,3661,2014-12-14 04:40:43:822
1.8731,-5.5604,1.2454,0.6397,-9.7708,-0.5404,1.2334,4.2105,1.7858,0.5192,0.3665,-0.43,0.0,5.9,-18.2,15.3,113.34,85.1,-130.19,,63.4,,,,NaN,,,,0 / 0,3712,2014-12-14 04:40:43:873
1.7652,-4.6582,0.9905,0.9864,-9.7536,-0.2542,0.7788,5.0954,1.2446,0.0757,1.0837,-0.5791,0.0,4.6,-18.2,15.8,113.34,85.1,-130.19,,63.4,,,,NaN,,,,0 / 0,3762,2014-12-14 04:40:43:923
-3.0499,-9.5615,4.3443,1.2755,-9.7231,0.0724,-4.3254,0.1616,4.272,0.4985,1.3451,-0.3445,0.0,4.1,-18.6,15.8,81.39,82.51,-86.75,,63.4,,,,NaN,,,,0 / 0,3812,2014-12-14 04:40:43:973
-3.4716,-18.309,2.6772,0.4381,-9.5545,2.1657,-3.9097,-8.7545,0.5115,2.1918,0.4704,0.4545,0.0,5.0,-19.1,10.4,334.92,76.98,-11.44,,63.4,,,,NaN,,,,0 / 0,3861,2014-12-14 04:40:44:022
-2.5693,-19.5741,4.0011,-0.0847,-9.4189,2.729,-2.4846,-10.1552,1.2721,2.8527,-1.8094,1.2877,0.0,7.6,-19.5,5.5,334.92,76.98,-11.44,,63.4,,,,NaN,,,,0 / 0,3911,2014-12-14 04:40:44:072
5.7859,-8.7671,-1.4808,-0.1826,-9.2328,3.3003,5.9685,0.4657,-4.7811,2.3469,-1.6432,1.2511,0.0,10.6,-21.2,0.2,232.7,70.12,6.58,,63.4,,,,NaN,,,,0 / 0,3961,2014-12-14 04:40:44:122
1.7554,-8.9437,0.7551,0.2962,-9.3669,2.8887,1.4592,0.4232,-2.1336,-0.8344,0.5498,0.1393,4.0,13.7,-22.5,-1.3,246.5,72.78,-5.85,,63.4,,,,NaN,,,,0 / 0,4011,2014-12-14 04:40:44:172
1.7554,-6.2664,-1.1866,0.5338,-9.5455,2.1838,1.2216,3.279,-3.3704,-0.8344,0.5498,0.1393,4.0,13.7,-22.5,-1.3,246.5,72.78,-5.85,,63.4,,,,NaN,,,,0 / 0,4061,2014-12-14 04:40:44:222
2.3732,-2.7459,-2.5693,0.835,-9.6851,1.2934,1.5382,6.9392,-3.8627,-1.4221,0.4862,-0.2847,4.0,14.6,-22.5,4.6,281.91,78.89,-20.74,,63.4,,,,NaN,,,,0 / 0,4111,2014-12-14 04:40:44:272
2.3732,-2.7459,-2.5693,0.835,-9.6851,1.2934,1.5382,6.9392,-3.8627,-1.4221,0.4862,-0.2847,4.0,14.6,-22.5,4.6,281.91,78.89,-20.74,,55.495,,,,NaN,,,,0 / 0,4161,2014-12-14 04:40:44:322
-1.824,-9.179,3.0597,1.1708,-9.7264,-0.443,-2.105,4.8009,2.2889,-2.0721,-1.7141,-0.347,4.0,13.7,-23.0,9.9,58.3,79.6,-100.34,,55.495,,,,NaN,,,,0 / 0,4211,2014-12-14 04:40:44:372
1.6867,-13.4547,7.051,1.0828,-9.7465,-0.0605,0.6039,-3.7082,7.1115,-0.4862,0.2004,0.0293,4.0,15.0,-25.1,14.8,54.48,83.65,-93.2,,55.495,,,,NaN,,,,0 / 0,4261,2014-12-14 04:40:44:422
-1.0395,-12.8663,-1.5985,1.3771,-9.7072,-0.2125,-2.4166,-3.1592,-1.386,0.485,1.2156,0.4068,4.0,15.9,-27.3,16.8,64.32,81.83,-98.77,,55.495,,,,NaN,,,,0 / 0,4311,2014-12-14 04:40:44:472
-1.9417,-16.0927,-1.0787,1.1678,-9.7307,-0.3481,-3.1095,-6.3621,-0.7307,-0.2932,1.3268,-0.0709,4.0,15.0,-28.2,18.7,64.32,81.83,-98.77,,55.495,,,,NaN,,,,0 / 0,4361,2014-12-14 04:40:44:522
2.2457,-9.483,-1.9515,1.04,-9.7491,-0.2091,1.2057,0.2661,-1.7425,0.1319,1.4148,-0.3348,4.0,14.6,-28.2,18.7,69.97,83.79,-101.37,,55.495,,,,NaN,,,,0 / 0,4412,2014-12-14 04:40:44:573
-0.9414,-9.179,-4.2169,1.3709,-9.6933,-0.5759,-2.3124,0.5142,-3.6409,-0.733,2.215,-0.5168,4.0,13.3,-27.7,21.1,69.97,83.79,-101.37,,55.495,,,,NaN,,,,0 / 0,4462,2014-12-14 04:40:44:623
-2.3928,-9.081,2.4222,1.145,-9.6747,-1.122,-3.5378,0.5938,3.5442,0.0611,1.2999,-0.0586,4.0,12.0,-28.2,23.1,115.8,80.59,-134.42,,55.495,,,,NaN,,,,0 / 0,4511,2014-12-14 04:40:44:672
0.5001,-5.5702,-0.4707,0.9509,-9.7474,-0.5043,-0.4508,4.1772,0.0336,0.237,0.0024,-0.5864,4.0,11.1,-28.2,22.1,98.46,83.7,-117.94,,55.495,,,,NaN,,,,0 / 0,4561,2014-12-14 04:40:44:722
-1.9613,-6.492,1.726,1.2275,-9.7058,-0.6784,-3.1889,3.2138,2.4043,-0.3103,1.3806,-0.5046,4.0,9.3,-28.2,22.6,106.43,81.78,-118.93,,63.726,,,,NaN,,,,0 / 0,4612,2014-12-14 04:40:44:773
-1.0395,-6.9137,2.4419,0.9839,-9.7551,-0.2016,-2.0234,2.8414,2.6435,0.4728,0.7611,-0.4484,4.0,7.6,-28.6,22.6,89.45,84.12,-101.58,,63.726,,,,NaN,,,,0 / 0,4662,2014-12-14 04:40:44:823
0.3727,-8.9731,1.5004,0.9848,-9.7344,0.6643,-0.6122,0.7614,0.8362,0.8393,0.5889,-0.6255,4.0,5.9,-28.2,20.2,46.28,83.04,-56.0,,63.726,,,,NaN,,,,0 / 0,4712,2014-12-14 04:40:44:873
-1.0199,-17.0734,-0.0392,0.9709,-9.698,1.085,-1.9908,-7.3754,-1.1243,1.0788,0.1295,0.2162,4.0,3.7,-26.9,16.3,36.42,81.46,-41.82,,63.726,,,,NaN,,,,0 / 0,4762,2014-12-14 04:40:44:923
7.9434,-17.1028,-0.6669,0.2951,-9.6366,1.7944,7.3254,-8.8313,-2.1279,1.6738,-0.4777,1.4135,4.0,6.3,-26.4,9.4,320.22,80.39,-9.28,,63.726,,,,NaN,,,,0 / 0,4812,2014-12-14 04:40:44:973
7.9434,-17.1028,-0.6669,0.2951,-9.6366,1.7944,7.3254,-8.8313,-2.1279,1.6738,-0.4777,1.4135,4.0,6.3,-26.4,9.4,320.22,80.39,-9.28,,63.726,,,,NaN,,,,0 / 0,4862,2014-12-14 04:40:45:023
5.7173,-11.5424,0.1961,0.5153,-9.6271,1.7958,5.202,-1.9154,-1.5996,0.606,0.0244,0.9236,4.0,9.3,-26.4,5.0,286.84,79.02,-16.01,,63.726,,,,NaN,,,,0 / 0,4912,2014-12-14 04:40:45:073
3.8736,-6.6587,-1.0101,0.8161,-9.6484,1.5534,3.0575,2.9897,-2.5634,0.1197,0.2114,0.5217,4.0,11.5,-26.9,3.1,289.53,79.69,-27.72,,63.726,,,,NaN,,,,0 / 0,4962,2014-12-14 04:40:45:123
1.7554,-4.4032,-1.5593,1.8006,-9.6027,0.8464,-0.0452,5.1995,-2.4057,-0.2541,-0.5913,-0.3054,4.0,11.1,-26.9,4.1,313.93,79.54,-47.1,,63.726,,,,NaN,,,,0 / 0,5148,2014-12-14 04:40:45:309
1.7554,-4.4032,-1.5593,1.8006,-9.6027,0.8464,-0.0452,5.1995,-2.4057,-0.2541,-0.5913,-0.3054,4.0,11.1,-26.9,4.1,313.93,79.54,-47.1,,63.726,,,,NaN,,,,0 / 0,5155,2014-12-14 04:40:45:316
1.7554,-4.4032,-1.5593,1.8006,-9.6027,0.8464,-0.0452,5.1995,-2.4057,-0.2541,-0.5913,-0.3054,4.0,11.1,-26.9,4.1,313.93,79.54,-47.1,,63.726,,,,NaN,,,,0 / 0,5164,2014-12-14 04:40:45:325
0.4903,-7.4236,-3.2656,2.0143,-9.5914,-0.3445,-1.524,2.1677,-2.9211,-1.2865,0.6206,0.0367,4.0,10.2,-27.7,5.5,69.67,77.97,-99.71,,63.726,,,,NaN,,,,0 / 0,5167,2014-12-14 04:40:45:328
-4.8053,-17.4166,11.9347,1.6709,-9.5912,-1.1777,-6.4762,-7.8254,13.1123,-0.7465,1.8754,1.201,4.0,10.6,-27.3,8.0,69.67,77.97,-99.71,,54.222,,,,NaN,,,,0 / 0,5211,2014-12-14 04:40:45:372
-2.5595,-17.1028,9.179,1.1474,-9.737,-0.212,5.8018,2.1848,-5.9139,-0.7465,1.8754,1.201,4.0,10.6,-27.3,8.0,69.67,77.97,-99.71,,54.222,,,,NaN,,,,0 / 0,5262,2014-12-14 04:40:45:423
-5.8546,-12.9252,2.0888,1.9643,-9.6032,0.2999,4.9592,3.327,-3.2419,-0.7453,0.9957,-0.606,4.0,9.3,-27.7,3.1,24.78,78.31,-81.32,,54.222,,,,NaN,,,,0 / 0,5311,2014-12-14 04:40:45:472
-4.0698,-11.817,0.814,0.4902,-9.7943,-0.0434,0.157,2.1255,1.9361,0.1295,-0.5229,-0.1442,4.0,10.6,-28.6,5.5,44.92,84.09,-99.13,,54.222,,,,NaN,,,,0 / 0,5361,2014-12-14 04:40:45:522
0.7747,-9.2869,3.1774,0.5673,-9.7898,0.0884,0.2074,0.5029,3.089,-0.2615,-0.5632,-0.077,4.0,10.2,-28.2,5.0,20.72,86.64,-81.15,,54.222,,,,NaN,,,,0 / 0,5411,2014-12-14 04:40:45:572
-0.0294,-9.9145,2.4615,0.6094,-9.7821,0.3311,-0.6388,-0.1324,2.1303,-0.0318,-0.4691,0.1784,4.0,10.6,-29.1,5.5,20.72,86.64,-81.15,,54.222,,,,NaN,,,,0 / 0,5461,2014-12-14 04:40:45:622
0.3138,-9.3752,1.6181,0.5122,-9.7752,0.5951,-0.1984,0.4,1.023,0.1735,0.1698,0.1503,4.0,10.6,-29.1,6.0,334.72,85.41,-40.72,,54.222,,,,NaN,,,,0 / 0,5512,2014-12-14 04:40:45:673
0.9022,-9.4732,2.3732,0.4531,-9.7667,0.7596,0.1255,0.0777,1.8686,0.4142,0.2492,0.3176,4.0,10.6,-28.6,5.0,334.72,85.41,-40.72,,54.222,,,,NaN,,,,0 / 0,5562,2014-12-14 04:40:45:723
0.6276,-9.5223,1.8633,0.426,-9.7434,1.0274,0.2017,0.2211,0.8359,0.2798,-0.2969,0.292,4.0,11.1,-29.1,4.1,297.9,83.49,-22.52,,54.222,,,,NaN,,,,0 / 0,5611,2014-12-14 04:40:45:772
-0.5296,-10.091,2.4713,0.3078,-9.7275,1.2044,-0.7931,-0.0796,0.4208,0.2138,0.6548,0.0977,4.0,12.0,-29.5,3.6,297.9,83.49,-22.52,,68.805,,,,NaN,,,,0 / 0,5662,2014-12-14 04:40:45:823
-0.7551,-10.2578,2.6478,0.2691,-9.725,1.2338,-1.0242,-0.5328,1.414,0.121,0.237,0.1857,4.0,11.5,-29.5,3.6,283.83,82.6,-12.31,,68.805,,,,NaN,,,,0 / 0,5712,2014-12-14 04:40:45:873
-0.7061,-9.5909,1.7064,-0.0669,-9.6962,1.4664,-0.6392,0.1053,0.2399,0.1613,-0.2309,0.0281,4.0,12.0,-29.9,3.6,264.93,81.39,2.61,,68.805,,,,NaN,,,,0 / 0,5762,2014-12-14 04:40:45:923
-0.3825,-9.5223,1.8535,-0.0903,-9.695,1.4728,0.0805,0.2316,0.6945,0.1576,-0.1625,0.0122,4.0,12.0,-29.9,3.1,264.93,81.39,2.61,,68.805,,,,NaN,,,,0 / 0,5812,2014-12-14 04:40:45:973
-0.3923,-9.4732,2.4713,-0.1542,-9.6643,1.6578,-0.238,0.1911,0.8135,0.0721,0.0574,0.0684,4.0,12.4,-29.9,2.1,259.47,80.88,2.2,,68.805,,,,NaN,,,,0 / 0,5862,2014-12-14 04:40:46:023
-0.5394,-9.5321,2.3928,-0.167,-9.6563,1.7022,-0.3724,0.1243,0.6906,0.0476,0.0171,0.0464,4.0,12.4,-30.4,2.1,249.97,79.96,5.6,,68.805,,,,NaN,,,,0 / 0,5911,2014-12-14 04:40:46:072
-0.7943,-9.6203,2.3438,-0.2052,-9.6458,1.7572,-0.5399,0.2414,0.4595,-0.0134,-0.0611,-0.0073,4.0,11.5,-30.4,3.1,249.97,79.96,5.6,,68.805,,,,NaN,,,,0 / 0,5962,2014-12-14 04:40:46:123
-0.5884,-10.042,1.9711,-0.2474,-9.6426,1.7692,-0.341,-0.3994,0.2019,0.0244,-0.1319,-0.0086,4.0,12.0,-30.8,2.1,246.32,79.5,7.96,,68.805,,,,NaN,,,,0 / 0,6012,2014-12-14 04:40:46:173
-0.353,-9.6105,1.9319,-0.251,-9.6416,1.7738,-0.1216,-0.0964,0.168,0.1124,0.1332,-0.0147,4.0,11.5,-30.8,2.6,250.34,79.47,8.06,,68.805,,,,NaN,,,,0 / 0,6062,2014-12-14 04:40:46:223
-0.1863,-9.5125,2.03,-0.2404,-9.6414,1.7765,0.0541,0.129,0.2535,0.0709,0.1539,-0.0293,4.0,11.5,-30.8,2.1,250.34,79.47,8.06,,68.805,,,,NaN,,,,0 / 0,6111,2014-12-14 04:40:46:272
-0.814,-9.7772,2.1673,-0.2093,-9.6474,1.7476,-0.6047,-0.1298,0.4196,-0.0525,0.1686,-0.0367,4.0,12.0,-29.9,2.6,252.55,79.66,6.83,,54.784,,,,NaN,,,,0 / 0,6161,2014-12-14 04:40:46:322
-0.814,-9.7772,2.1673,-0.2093,-9.6474,1.7476,-0.6047,-0.1298,0.4196,-0.0525,0.1686,-0.0367,4.0,12.0,-29.9,2.6,252.55,79.66,6.83,,54.784,,,,NaN,,,,0 / 0,6211,2014-12-14 04:40:46:372
-0.7747,-9.9341,2.5595,-0.253,-9.6438,1.7618,-0.5218,-0.2904,0.7977,0.022,0.0379,-0.0586,4.0,11.1,-30.4,2.6,250.25,79.54,8.17,,54.784,,,,NaN,,,,0 / 0,6261,2014-12-14 04:40:46:422
-0.7943,-9.6203,2.383,-0.2603,-9.6381,1.7914,-0.5341,0.0178,0.5916,0.0195,0.0342,-0.0428,4.0,11.1,-30.4,2.1,245.27,79.36,8.27,,54.784,,,,NaN,,,,0 / 0,6312,2014-12-14 04:40:46:473