ACCELEROMETER X (m/s²),ACCELEROMETER Y (m/s²),ACCELEROMETER Z (m/s²),GRAVITY X (m/s²),GRAVITY Y (m/s²),GRAVITY Z (m/s²),LINEAR ACCELERATION X (m/s²),LINEAR ACCELERATION Y (m/s²),LINEAR ACCELERATION Z (m/s²),GYROSCOPE X (rad/s),GYROSCOPE Y (rad/s),GYROSCOPE Z (rad/s),LIGHT (lux),MAGNETIC FIELD X (μT),MAGNETIC FIELD Y (μT),MAGNETIC FIELD Z (μT),ORIENTATION X (°),ORIENTATION Y (°),ORIENTATION Z (°),PROXIMITY (i),SOUND LEVEL (dB),LOCATION Latitude : ,LOCATION Longitude : ,LOCATION Altitude ( m),LOCATION Altitude-google ( m),LOCATION Speed ( Kmh),LOCATION Accuracy ( m),LOCATION ORIENTATION (°),Satellites in range,Time since start in ms ,YYYY-MO-DD HH-MI-SS_SSS
0.6865,-9.9538,-0.0785,1.0227,-9.7448,-0.4041,-0.3362,-0.2089,0.3256,0.0049,-0.011,-0.0012,0.0,36.7,6.9,35.1,64.31,83.56,-111.56,0.4,58.668,,,,NaN,,,,0 / 0,33,2014-12-14 04:38:21:547
0.6865,-9.9538,-0.0785,1.0227,-9.7448,-0.4041,-0.3362,-0.2089,0.3256,0.0049,-0.011,-0.0012,0.0,36.7,6.9,35.1,64.31,83.56,-111.56,0.4,58.668,,,,NaN,,,,0 / 0,58,2014-12-14 04:38:21:572
0.5884,-9.9439,-0.0588,1.014,-9.7461,-0.3952,-0.4256,-0.1979,0.3364,0.0257,-0.0464,-0.0147,0.0,36.3,6.9,35.1,64.82,83.63,-111.29,0.4,58.668,,,,NaN,,,,0 / 0,109,2014-12-14 04:38:21:623
0.7061,-9.9341,-0.1275,1.0214,-9.7441,-0.4235,-0.3153,-0.19,0.296,0.0024,-0.0379,-0.0061,0.0,36.7,6.9,35.1,64.82,83.63,-111.29,0.4,58.668,,,,NaN,,,,0 / 0,159,2014-12-14 04:38:21:673
0.7355,-9.993,-0.1961,1.0482,-9.7391,-0.4717,-0.4107,-0.2049,0.2657,0.0049,-0.0037,-0.0086,0.0,36.3,6.9,35.6,68.5,83.27,-114.23,0.4,58.668,,,,NaN,,,,0 / 0,209,2014-12-14 04:38:21:723
0.863,-9.9243,-0.0883,1.0524,-9.738,-0.4846,-0.2564,-0.2352,0.3773,0.0073,0.0391,-0.0086,0.0,36.7,6.9,34.6,68.5,83.27,-114.23,0.4,58.668,,,,NaN,,,,0 / 0,258,2014-12-14 04:38:21:772
0.8238,-9.8263,-0.0196,1.0855,-9.7343,-0.4853,-0.5226,-0.2309,0.4142,-0.0415,0.0037,-0.0489,0.0,36.3,6.9,36.1,68.34,83.04,-114.09,0.4,37.808,,,,NaN,,,,0 / 0,308,2014-12-14 04:38:21:822
0.608,-9.9636,-0.1373,1.1018,-9.7327,-0.4814,-0.4937,-0.2309,0.3441,-0.011,-0.0342,-0.0867,0.0,35.8,6.9,36.1,67.85,82.96,-113.6,0.4,37.808,,,,NaN,,,,0 / 0,359,2014-12-14 04:38:21:873
0.0588,-10.1989,0.3923,1.1061,-9.7333,-0.4574,-1.0472,-0.4656,0.8497,0.0171,0.1613,-0.1185,0.0,35.8,7.3,36.1,66.73,82.99,-112.47,0.4,37.808,,,,NaN,,,,0 / 0,409,2014-12-14 04:38:21:923
0.2354,-9.787,-0.2648,1.0607,-9.742,-0.3723,-0.8253,-0.045,0.1075,-0.0476,0.3238,-0.1857,0.0,35.0,7.3,36.1,64.46,83.42,-109.34,0.4,37.808,,,,NaN,,,,0 / 0,458,2014-12-14 04:38:21:972
-0.0785,-10.0224,-0.2746,1.0796,-9.7374,-0.4336,-1.158,-0.285,0.1591,-0.1772,0.303,-0.2578,0.0,34.5,7.3,37.0,64.46,83.42,-109.34,0.4,37.808,,,,NaN,,,,0 / 0,508,2014-12-14 04:38:22:022
-0.1863,-10.1205,-0.2452,1.0826,-9.736,-0.4569,-1.2689,-0.3845,0.2117,-0.1735,0.292,-0.2737,0.0,34.1,7.3,37.0,69.54,83.12,-112.88,0.4,37.808,,,,NaN,,,,0 / 0,558,2014-12-14 04:38:22:072
-0.3825,-10.2283,0.7453,1.0788,-9.7347,-0.4925,-1.4612,-0.4937,1.2378,-0.0892,0.1295,-0.3946,0.0,32.3,8.2,37.0,69.54,83.12,-112.88,0.4,37.808,,,,NaN,,,,0 / 0,609,2014-12-14 04:38:22:123
0.4413,-10.4245,2.5399,1.1107,-9.7433,-0.0678,-0.8859,-0.3815,1.7103,0.0305,0.237,-0.3885,0.0,31.9,8.6,38.0,70.07,83.27,-111.2,0.4,37.808,,,,NaN,,,,0 / 0,658,2014-12-14 04:38:22:172
0.1961,-10.6206,2.5497,1.1009,-9.738,0.361,-0.9048,-0.8826,2.1888,0.5913,0.27,-0.1014,0.0,31.0,9.9,36.1,37.92,83.35,-79.33,0.4,37.808,,,,NaN,,,,0 / 0,708,2014-12-14 04:38:22:222
0.1961,-10.6206,2.5497,1.1009,-9.738,0.361,-0.9048,-0.8826,2.1888,0.8283,0.022,0.1002,0.0,31.5,10.8,34.1,37.92,83.35,-79.33,0.4,42.115,,,,NaN,,,,0 / 0,759,2014-12-14 04:38:22:273
2.4222,-11.7876,1.4514,1.1024,-9.6641,1.2491,1.3198,-2.1235,0.2023,1.1582,-0.5021,0.1271,0.0,32.8,11.7,28.8,352.96,80.22,-41.43,0.4,42.115,,,,NaN,,,,0 / 0,808,2014-12-14 04:38:22:322
2.5791,-8.1984,-0.3727,1.413,-9.5924,1.4697,1.1661,1.394,-1.8423,0.6597,0.1979,0.2297,0.0,35.4,12.1,22.9,346.38,78.17,-42.56,0.4,42.115,,,,NaN,,,,0 / 0,858,2014-12-14 04:38:22:372
0.863,-7.1392,0.0686,1.5022,-9.5952,1.3588,-0.6393,2.4559,-1.2902,0.1943,0.4655,0.2981,0.0,36.7,12.1,20.9,347.89,78.08,-47.87,0.4,42.115,,,,NaN,,,,0 / 0,909,2014-12-14 04:38:22:423
1.5691,-5.9134,0.9905,1.4601,-9.6231,1.1974,-0.5294,2.7079,-1.1873,0.1185,0.4191,0.281,0.0,37.1,12.1,21.9,347.89,78.08,-47.87,0.4,42.115,,,,NaN,,,,0 / 0,959,2014-12-14 04:38:22:473
1.3337,-5.6682,1.5004,1.4823,-9.6214,1.1842,-0.1486,3.9531,0.3162,-0.0855,-0.022,0.2346,0.0,38.0,11.7,20.5,350.63,78.84,-51.38,0.4,42.115,,,,NaN,,,,0 / 0,1009,2014-12-14 04:38:22:523
1.3141,-3.9129,1.8535,1.5814,-9.6001,1.2276,-0.1871,4.2153,0.4172,-0.1002,-0.0953,0.2187,0.0,38.4,11.3,21.9,350.63,78.84,-51.38,0.4,42.115,,,,NaN,,,,0 / 0,1058,2014-12-14 04:38:22:572
1.167,-4.5209,1.9123,1.6631,-9.5859,1.231,-0.4961,5.065,0.6813,-0.6487,0.3079,0.1063,0.0,38.9,11.3,23.9,353.57,77.94,-52.85,0.4,42.115,,,,NaN,,,,0 / 0,1108,2014-12-14 04:38:22:622
-0.6276,-7.149,2.1673,1.6262,-9.6015,1.1562,-2.2538,2.4525,1.0111,-0.7257,0.4154,-0.0318,0.0,37.6,9.9,26.8,359.98,78.26,-54.59,0.4,42.115,,,,NaN,,,,0 / 0,1159,2014-12-14 04:38:22:673
0.1079,-9.3457,1.8829,1.4142,-9.6402,1.1122,-1.3063,0.2945,0.7707,-0.766,0.099,-0.1234,0.0,36.7,9.5,27.3,357.98,79.43,-51.82,0.4,42.115,,,,NaN,,,,0 / 0,1208,2014-12-14 04:38:22:722
2.079,-13.3959,-1.775,1.3129,-9.6673,0.9947,0.1189,-7.2099,-2.0342,-0.3665,0.1491,0.4862,0.0,37.1,7.8,27.8,359.97,80.33,-52.85,0.4,50.301,,,,NaN,,,,0 / 0,1259,2014-12-14 04:38:22:773
1.8142,-13.0919,-0.5492,1.1324,-9.7226,0.599,0.6819,-3.3693,-1.1482,-0.5864,0.1295,0.4484,0.0,36.7,7.8,28.8,359.97,80.33,-52.85,0.4,50.301,,,,NaN,,,,0 / 0,1309,2014-12-14 04:38:22:823
2.3536,-6.9627,-4.4718,0.8576,-9.7437,0.704,1.5843,1.4963,-3.3224,0.5608,0.1344,-0.1503,0.0,38.4,6.5,26.8,356.05,83.5,-50.62,0.4,50.301,,,,NaN,,,,0 / 0,1359,2014-12-14 04:38:22:873
2.3732,-6.7666,-5.3446,1.0132,-9.7355,0.6039,1.36,2.9689,-5.9485,0.1014,0.606,-0.3629,0.0,37.6,6.5,25.8,356.05,83.5,-50.62,0.4,50.301,,,,NaN,,,,0 / 0,1410,2014-12-14 04:38:22:924
-3.4323,-11.3757,1.2749,1.0038,-9.7083,-0.9552,-4.4362,-1.6675,2.2301,-0.6451,0.5376,0.0354,0.0,36.3,6.0,33.1,85.14,81.88,-133.58,0.4,50.301,,,,NaN,,,,0 / 0,1459,2014-12-14 04:38:22:973
0.9512,-7.5805,0.5394,0.62,-9.7357,-1.001,0.3313,2.1552,1.5404,-0.4936,0.0464,-0.2737,0.0,35.4,5.2,35.6,85.14,81.88,-133.58,0.4,50.301,,,,NaN,,,,0 / 0,1508,2014-12-14 04:38:23:022
-0.2942,-8.7671,3.0695,0.7814,-9.7531,-0.6606,-1.0756,0.986,3.7301,0.4362,-0.0611,-0.1283,0.0,35.0,5.6,35.6,96.46,82.48,-142.25,0.4,50.301,,,,NaN,,,,0 / 0,1558,2014-12-14 04:38:23:072
1.471,-6.4332,1.5887,0.7645,-9.7727,-0.285,0.7065,3.3395,1.8737,0.6915,-0.1075,-0.3714,0.0,34.5,5.6,33.6,64.16,85.23,-110.45,0.4,50.301,,,,NaN,,,,0 / 0,1608,2014-12-14 04:38:23:122
1.471,-6.4332,1.5887,0.7645,-9.7727,-0.285,0.7065,3.3395,1.8737,0.6915,-0.1075,-0.3714,0.0,34.5,5.6,33.6,64.16,85.23,-110.45,0.4,50.301,,,,NaN,,,,0 / 0,1659,2014-12-14 04:38:23:173
-1.7162,-6.6979,-0.1961,1.2541,-9.7206,0.3273,-2.9703,3.0227,-0.5234,0.3286,0.2529,-0.5217,0.0,28.9,5.6,28.8,34.16,82.47,-80.41,0.4,50.301,,,,NaN,,,,0 / 0,1709,2014-12-14 04:38:23:223
-1.9417,-9.2771,-0.559,1.184,-9.7291,0.337,-3.1257,0.452,-0.896,0.3286,0.2529,-0.5217,0.0,28.9,5.6,28.8,34.16,82.47,-80.41,0.4,62.024,,,,NaN,,,,0 / 0,1759,2014-12-14 04:38:23:273
-3.2166,-16.3477,3.0891,0.7183,-9.765,0.5474,-3.9349,-6.5827,2.5417,1.6506,-0.6854,0.3372,0.0,27.1,5.6,23.9,4.27,84.72,-52.69,0.4,62.024,,,,NaN,,,,0 / 0,1809,2014-12-14 04:38:23:323
6.4724,-18.6915,1.2749,0.304,-9.5928,2.0139,6.1684,-9.0986,-0.739,2.43,-1.3378,0.6561,0.0,28.9,4.3,13.1,303.42,78.01,-8.58,0.4,62.024,,,,NaN,,,,0 / 0,1858,2014-12-14 04:38:23:372
3.0695,-12.121,-0.657,0.6667,-9.4929,2.3689,1.579,-1.9025,-2.1923,1.0812,-0.0953,0.755,0.0,32.8,2.6,5.3,294.82,75.47,-15.72,0.4,62.024,,,,NaN,,,,0 / 0,1908,2014-12-14 04:38:23:422
1.1474,-9.0613,0.3727,0.7072,-9.4956,2.346,0.4401,0.4343,-1.9733,0.6439,-0.6646,0.4618,0.0,33.6,2.1,2.9,291.97,75.53,-16.78,0.4,62.024,,,,NaN,,,,0 / 0,1959,2014-12-14 04:38:23:473
1.8044,-4.668,-1.3337,0.8198,-9.5455,2.0933,0.9846,4.8775,-3.4271,0.0134,-0.4899,0.2297,0.0,34.5,2.6,0.9,291.97,75.53,-16.78,0.4,62.024,,,,NaN,,,,0 / 0,2008,2014-12-14 04:38:23:522
1.8927,-3.9521,-1.4024,0.8677,-9.5669,1.9728,1.1524,6.1248,-3.434,-0.314,-0.2627,0.1319,0.0,34.1,2.6,1.4,295.89,77.3,-23.74,0.4,62.024,,,,NaN,,,,0 / 0,2058,2014-12-14 04:38:23:572
1.9613,-3.3539,-0.6865,1.3839,-9.6558,1.0103,0.5382,6.1843,-1.4221,-1.0311,0.1429,-0.1637,0.0,33.2,3.0,4.9,332.54,79.94,-53.87,0.4,62.024,,,,NaN,,,,0 / 0,2108,2014-12-14 04:38:23:622
1.3043,-4.0992,0.1275,1.8355,-9.6282,0.3142,-0.5313,5.529,-0.1867,-1.4942,-0.4924,-0.3421,0.0,31.9,3.0,8.8,332.54,79.94,-53.87,0.4,62.024,,,,NaN,,,,0 / 0,2159,2014-12-14 04:38:23:673
-0.4413,-10.2774,1.4024,1.9738,-9.6056,-0.086,-2.4151,-0.6718,1.4884,-1.7715,-0.6133,-0.0159,0.0,30.2,2.1,12.7,26.08,78.38,-92.5,0.4,62.024,,,,NaN,,,,0 / 0,2209,2014-12-14 04:38:23:723
-0.4805,-8.9535,5.58,1.4438,-9.6987,-0.1459,-1.9243,0.7452,5.7259,-0.5608,0.5315,0.2957,0.0,30.2,1.3,15.1,26.08,78.38,-92.5,0.4,55.519,,,,NaN,,,,0 / 0,2259,2014-12-14 04:38:23:773
1.0101,-8.1886,5.4427,1.2938,-9.719,0.195,1.05,1.9227,5.0221,-0.3958,0.3262,0.0562,0.0,29.3,0.4,16.1,20.48,82.33,-81.43,0.4,55.519,,,,NaN,,,,0 / 0,2308,2014-12-14 04:38:23:822
4.3934,-15.0826,-1.6475,1.7116,-9.6372,0.604,2.6818,-5.4454,-2.2515,-0.3958,-1.3292,0.011,0.0,28.0,-0.9,15.6,10.55,79.33,-70.56,0.4,55.519,,,,NaN,,,,0 / 0,2359,2014-12-14 04:38:23:873
0.3825,-16.2006,-0.3727,1.4374,-9.7007,-0.009,-0.3033,-6.7923,0.1215,0.2211,0.744,0.1478,0.0,28.0,-2.7,18.5,22.65,79.04,-77.75,0.4,55.519,,,,NaN,,,,0 / 0,2408,2014-12-14 04:38:23:922
0.2648,-11.4247,-2.128,1.112,-9.7434,-0.0085,-0.8472,-1.6813,-2.1196,0.3152,0.5278,0.1234,0.0,28.4,-3.1,18.5,22.65,79.04,-77.75,0.4,55.519,,,,NaN,,,,0 / 0,2459,2014-12-14 04:38:23:973
-0.2256,-11.2286,-2.8341,1.1239,-9.7399,-0.2052,-1.3494,-1.4887,-2.6289,-0.4154,0.3812,-0.3128,0.0,28.4,-3.5,18.0,43.7,83.31,-100.35,0.4,55.519,,,,NaN,,,,0 / 0,2509,2014-12-14 04:38:24:023
-0.814,-9.3654,0.7453,0.7218,-9.6901,-1.3236,-1.5357,0.3247,2.0689,-0.711,0.1234,0.044,0.0,27.1,-3.5,23.9,103.59,81.16,-151.4,0.4,55.519,,,,NaN,,,,0 / 0,2559,2014-12-14 04:38:24:073
-0.0392,-8.6593,2.5105,0.8029,-9.7307,-0.9159,-0.1271,1.0236,3.4619,-0.3005,0.0476,-0.3054,0.0,26.3,-3.5,26.3,110.39,81.49,-154.94,0.4,55.519,,,,NaN,,,,0 / 0,2656,2014-12-14 04:38:24:170
-0.2648,-8.1395,2.5693,0.8359,-9.7424,-0.7466,-1.1007,1.6029,3.3159,0.1344,0.391,-0.281,0.0,23.6,-4.0,24.9,88.71,83.44,-131.77,0.4,55.519,,,,NaN,,,,0 / 0,2717,2014-12-14 04:38:24:231
-0.2648,-8.1395,2.5693,0.8359,-9.7424,-0.7466,-1.1007,1.6029,3.3159,0.1344,0.391,-0.281,0.0,23.6,-4.0,24.9,88.71,83.44,-131.77,0.4,55.519,,,,NaN,,,,0 / 0,2723,2014-12-14 04:38:24:237
-0.2648,-8.1395,2.5693,0.8359,-9.7424,-0.7466,-1.1007,1.6029,3.3159,0.1344,0.391,-0.281,0.0,23.6,-4.0,24.9,88.71,83.44,-131.77,0.4,55.519,,,,NaN,,,,0 / 0,2759,2014-12-14 04:38:24:273
-0.8532,-6.2272,0.4315,0.8771,-9.7513,-0.5601,-1.7303,3.5241,0.9916,0.8149,0.4154,-0.6292,0.0,20.6,-4.4,20.5,78.43,83.91,-122.56,0.4,57.989,,,,NaN,,,,0 / 0,2809,2014-12-14 04:38:24:323
-1.0689,-5.6781,-0.7845,0.9119,-9.7605,-0.2686,-1.9808,4.0824,-0.5159,0.4716,0.3201,-0.5082,0.0,19.3,-4.8,20.0,63.9,84.44,-106.41,0.4,57.989,,,,NaN,,,,0 / 0,2859,2014-12-14 04:38:24:373
-1.0689,-5.6781,-0.7845,0.9119,-9.7605,-0.2686,-1.9808,4.0824,-0.5159,0.4716,0.3201,-0.5082,0.0,19.3,-4.8,20.0,63.9,84.44,-106.41,0.4,57.989,,,,NaN,,,,0 / 0,2909,2014-12-14 04:38:24:423
2.0594,-16.8871,2.1378,0.1043,-9.7903,0.5555,-3.3999,-1.0458,0.2474,1.7361,-1.2828,0.463,0.0,16.7,-4.8,19.0,66.95,84.48,-107.68,0.4,57.989,,,,NaN,,,,0 / 0,2959,2014-12-14 04:38:24:473
3.1872,-16.6713,2.3046,0.0789,-9.7774,0.7523,3.1082,-6.8939,1.5522,1.7923,-1.3182,0.5119,0.0,16.3,-6.1,11.7,311.78,85.58,-5.99,0.4,57.989,,,,NaN,,,,0 / 0,3009,2014-12-14 04:38:24:523
3.1872,-16.6713,2.3046,0.0789,-9.7774,0.7523,3.1082,-6.8939,1.5522,1.7923,-1.3182,0.5119,0.0,16.3,-6.1,11.7,311.78,85.58,-5.99,0.4,57.989,,,,NaN,,,,0 / 0,3059,2014-12-14 04:38:24:573
2.4222,-11.8072,0.4511,0.5371,-9.5588,2.124,1.8851,-2.2484,-1.6729,0.8552,-0.54,0.7123,0.0,19.3,-7.9,2.4,293.8,78.16,-12.84,0.4,57.989,,,,NaN,,,,0 / 0,3109,2014-12-14 04:38:24:623
2.5791,-8.0709,0.3727,0.6793,-9.5671,2.0446,1.8999,1.4962,-1.6719,0.4105,-0.7379,0.3421,0.0,19.7,-7.4,1.4,286.53,77.31,-18.38,0.4,57.989,,,,NaN,,,,0 / 0,3158,2014-12-14 04:38:24:672
2.6086,-7.0902,0.2059,0.7359,-9.5696,2.0127,1.8726,2.4794,-1.8068,0.2969,-0.6732,0.2773,0.0,19.3,-7.9,1.9,286.53,77.31,-18.38,0.4,57.989,,,,NaN,,,,0 / 0,3209,2014-12-14 04:38:24:723
2.9126,-3.501,-0.657,1.5694,-9.6552,0.6968,1.3432,6.1542,-1.3538,-0.3971,-0.0733,0.1185,0.0,19.3,-7.4,1.4,298.67,78.16,-30.04,0.4,57.989,,,,NaN,,,,0 / 0,3259,2014-12-14 04:38:24:773
0.2059,-6.5705,0.1667,2.2731,-9.5347,-0.3043,-2.0672,2.9643,0.471,-1.6432,0.1784,-0.3213,0.0,17.1,-6.1,12.7,14.38,79.92,-66.06,0.4,57.989,,,,NaN,,,,0 / 0,3309,2014-12-14 04:38:24:823
-0.6767,-7.5413,1.2553,2.2694,-9.5277,-0.4924,-2.9461,1.9864,1.7477,-1.5773,0.1222,0.0782,0.0,16.7,-6.6,13.6,56.14,76.3,-102.24,0.4,54.976,,,,NaN,,,,0 / 0,3358,2014-12-14 04:38:24:872
-1.3631,-9.8851,3.3245,1.9126,-9.593,-0.6975,-3.2757,-0.2921,4.022,-1.1985,0.4203,0.226,0.0,16.3,-6.1,16.1,56.14,76.3,-102.24,0.4,54.976,,,,NaN,,,,0 / 0,3408,2014-12-14 04:38:24:922
0.6963,-8.5612,3.5794,1.5609,-9.6747,-0.3674,-0.8646,1.1135,3.9468,-0.5583,0.2859,-0.1784,0.0,16.3,-7.0,17.5,64.4,80.59,-103.24,0.4,54.976,,,,NaN,,,,0 / 0,3459,2014-12-14 04:38:24:973
1.5985,-8.7377,2.7361,1.5111,-9.6872,-0.2132,0.0874,0.9495,2.9493,-0.5437,0.2724,-0.1772,0.0,15.4,-7.4,17.5,60.87,81.05,-98.03,0.4,54.976,,,,NaN,,,,0 / 0,3508,2014-12-14 04:38:25:022
3.7952,-9.2673,1.167,1.6183,-9.6721,-0.0314,2.1768,0.4049,1.1984,-0.6096,0.3018,-0.0476,0.0,15.4,-7.4,18.0,53.99,80.5,-91.11,0.4,54.976,,,,NaN,,,,0 / 0,3566,2014-12-14 04:38:25:080
1.6671,-16.6811,0.8532,2.0034,-9.5998,-0.037,-0.3363,-7.0813,0.8902,-0.6194,0.3567,0.1344,0.0,15.0,-7.9,19.5,57.97,78.21,-91.06,0.4,54.976,,,,NaN,,,,0 / 0,3609,2014-12-14 04:38:25:123
-0.0883,-12.2387,-1.3435,1.6693,-9.6632,-0.0758,-1.7576,-2.5755,-1.2677,-0.1161,0.9432,0.325,0.0,15.0,-8.7,20.9,57.97,78.21,-91.06,0.4,54.976,,,,NaN,,,,0 / 0,3658,2014-12-14 04:38:25:172
-2.3634,-16.5732,2.0006,1.25,-9.6978,-0.7485,-3.6135,-6.8754,2.7491,0.4533,0.0782,0.2224,0.0,15.0,-9.2,21.4,88.39,81.46,-120.91,0.4,54.976,,,,NaN,,,,0 / 0,3709,2014-12-14 04:38:25:223
0.7453,-9.9636,-2.6478,0.9621,-9.7491,-0.4464,-0.2167,-0.2144,-2.2014,0.2602,0.2749,-0.1173,0.0,14.5,-9.2,21.4,88.39,81.46,-120.91,0.4,54.976,,,,NaN,,,,0 / 0,3759,2014-12-14 04:38:25:273
-0.1373,-8.8358,2.9714,0.8282,-9.7171,-1.0306,-0.9655,0.8813,4.002,-0.4618,0.4447,0.0538,0.0,12.8,-9.6,26.8,126.47,78.53,-149.63,0.4,54.976,,,,NaN,,,,0 / 0,3809,2014-12-14 04:38:25:323
0.3138,-7.1392,1.1866,0.8831,-9.7456,-0.6437,-1.3538,1.0569,3.2523,0.5742,0.2737,-0.3348,0.0,11.9,-9.6,26.8,104.15,83.6,-126.09,0.4,62.687,,,,NaN,,,,0 / 0,3858,2014-12-14 04:38:25:372
-1.6181,-6.3351,1.0101,0.9104,-9.7642,-0.0527,-0.7044,2.7818,1.1706,0.5486,0.121,-0.3665,0.0,11.0,-9.6,25.8,104.15,83.6,-126.09,0.4,62.687,,,,NaN,,,,0 / 0,3908,2014-12-14 04:38:25:422
-1.0983,-6.0507,0.1079,0.8444,-9.7446,0.7074,-1.9721,2.4386,-1.2566,0.5095,-0.0672,-0.6182,0.0,8.9,-10.9,22.9,37.1,84.02,-59.01,0.4,62.687,,,,NaN,,,,0 / 0,3959,2014-12-14 04:38:25:473
-2.4222,-13.6018,-0.6767,0.6514,-9.7652,0.6226,-3.0736,-3.8367,-1.2993,0.8357,-0.573,0.0391,0.0,8.4,-11.8,21.4,26.81,84.73,-46.3,0.4,62.687,,,,NaN,,,,0 / 0,4008,2014-12-14 04:38:25:522
3.9619,-18.1227,3.2754,0.0718,-9.6611,1.6816,3.8901,-8.4616,1.5938,2.4716,-2.2614,0.6695,0.0,11.0,-11.8,17.0,26.81,84.73,-46.3,0.4,62.687,,,,NaN,,,,0 / 0,4058,2014-12-14 04:38:25:572
5.5898,-18.2502,1.8437,0.1103,-9.6114,1.9441,5.4795,-8.6388,-0.1004,2.281,-1.2266,0.9823,0.0,13.2,-12.7,11.7,308.78,78.55,-3.25,0.4,62.687,,,,NaN,,,,0 / 0,4109,2014-12-14 04:38:25:623
4.2071,-10.1499,0.5786,0.6819,-9.4407,2.5649,4.549,-1.2706,-2.7399,1.2388,-0.3311,0.8198,4.0,15.4,-13.5,8.3,301.54,74.3,-14.89,0.4,62.687,,,,NaN,,,,0 / 0,4158,2014-12-14 04:38:25:672
1.9221,-8.0316,-0.3236,0.9044,-9.4231,2.5608,1.0177,1.3915,-2.8844,0.4276,-0.5168,0.3262,4.0,16.7,-14.0,5.3,292.99,73.92,-19.45,0.4,62.687,,,,NaN,,,,0 / 0,4208,2014-12-14 04:38:25:722
1.9613,-6.7862,-0.6472,0.9324,-9.4366,2.5004,1.0289,2.6504,-3.1477,0.2749,-0.4557,0.2566,4.0,16.7,-14.0,5.8,292.99,73.92,-19.45,0.4,62.687,,,,NaN,,,,0 / 0,4259,2014-12-14 04:38:25:773
1.9417,-2.0692,-1.726,1.2248,-9.5785,1.7093,0.7169,7.5093,-3.4353,-0.9701,0.7624,0.0012,4.0,17.6,-14.0,7.8,323.73,77.62,-35.62,0.4,59.367,,,,NaN,,,,0 / 0,4308,2014-12-14 04:38:25:822
1.9417,-2.0692,-1.726,1.2248,-9.5785,1.7093,0.7169,7.5093,-3.4353,-0.9701,0.7624,0.0012,4.0,17.6,-14.0,7.8,323.73,77.62,-35.62,0.4,59.367,,,,NaN,,,,0 / 0,4358,2014-12-14 04:38:25:872
-1.6966,-14.0627,5.1387,1.956,-9.5901,-0.6115,-3.6525,-4.4726,5.7502,-1.0898,0.3641,0.292,4.0,18.0,-14.0,18.5,32.12,78.39,-82.14,0.4,59.367,,,,NaN,,,,0 / 0,4409,2014-12-14 04:38:25:923
0.1177,-5.6094,4.5797,1.4213,-9.703,-0.0398,-1.7449,2.6128,5.9042,-0.2407,1.0568,0.099,4.0,18.9,-14.8,18.5,50.51,81.66,-91.6,0.4,59.367,,,,NaN,,,,0 / 0,4458,2014-12-14 04:38:25:972
5.7271,-17.5049,3.4912,1.6545,-9.6596,0.354,4.0726,-7.8453,3.1371,-1.2779,-1.4991,-0.1772,4.0,19.7,-16.1,21.4,38.13,80.07,-77.92,0.4,59.367,,,,NaN,,,,0 / 0,4509,2014-12-14 04:38:26:023
1.8731,-12.1014,-1.6573,1.4259,-9.6936,0.4151,-2.2202,-3.8298,-0.268,0.5168,1.4649,0.4594,4.0,21.0,-17.4,20.9,38.13,80.07,-77.92,0.4,59.367,,,,NaN,,,,0 / 0,4559,2014-12-14 04:38:26:073
0.559,-19.172,-0.1667,1.4076,-9.702,0.2432,-0.8487,-9.47,-0.41,-0.2468,0.5046,-0.4459,4.0,21.0,-17.9,21.4,38.67,81.62,-80.2,0.4,59.367,,,,NaN,,,,0 / 0,4609,2014-12-14 04:38:26:123
-0.7747,-10.5029,-2.8341,1.1643,-9.7358,0.1689,-1.9391,-0.7671,-3.003,0.0904,0.3079,-0.0855,4.0,21.9,-17.9,20.9,38.67,81.62,-80.2,0.4,59.367,,,,NaN,,,,0 / 0,4659,2014-12-14 04:38:26:173
-0.1177,-10.5912,-4.7856,1.1522,-9.727,-0.4769,-1.2699,-0.8641,-4.3088,-0.9505,-0.1613,-0.65,4.0,21.5,-17.9,21.9,71.66,82.69,-112.48,0.4,59.367,,,,NaN,,,,0 / 0,4709,2014-12-14 04:38:26:223
-0.2942,-10.4441,-0.2354,1.1276,-9.6203,-1.5323,-1.4218,-0.8237,1.2969,-1.0446,0.6512,-0.055,4.0,20.6,-18.3,25.3,109.17,78.81,-143.65,0.4,59.367,,,,NaN,,,,0 / 0,4759,2014-12-14 04:38:26:273
0.9807,-8.6299,1.5495,1.0409,-9.6152,-1.6231,-0.0602,0.9854,3.1726,-0.3299,0.1185,-0.1258,4.0,20.6,-17.9,26.3,113.64,78.66,-147.33,0.4,61.667,,,,NaN,,,,0 / 0,4808,2014-12-14 04:38:26:322
0.7551,-7.7571,0.2746,1.3432,-9.6228,-1.3299,-1.255,1.6794,1.2809,-0.1161,0.4398,-0.5021,4.0,19.7,-18.3,26.3,102.93,78.89,-134.72,0.4,61.667,,,,NaN,,,,0 / 0,4858,2014-12-14 04:38:26:372
-0.9512,-6.7372,0.1667,1.3432,-9.6228,-1.3299,-1.255,1.6794,1.2809,0.1686,0.1808,-0.3824,4.0,19.7,-18.3,26.3,102.93,78.89,-134.72,0.4,61.667,,,,NaN,,,,0 / 0,4908,2014-12-14 04:38:26:422
-0.9807,-6.5312,-0.2452,1.3849,-9.637,-1.1753,-2.2871,3.243,1.1753,0.1246,0.1881,-0.4325,4.0,18.0,-17.9,26.3,101.46,79.33,-130.32,0.4,61.667,,,,NaN,,,,0 / 0,4958,2014-12-14 04:38:26:472
0.7943,-6.3155,0.5198,1.7005,-9.658,0.0408,-3.2303,-6.1601,3.313,0.3519,0.3995,-0.8186,4.0,12.8,-17.0,20.9,70.28,81.15,-98.98,0.4,61.667,,,,NaN,,,,0 / 0,5130,2014-12-14 04:38:26:644
0.7943,-6.3155,0.5198,1.7005,-9.658,0.0408,-3.2303,-6.1601,3.313,0.3519,0.3995,-0.8186,4.0,12.8,-17.0,20.9,70.28,81.15,-98.98,0.4,61.667,,,,NaN,,,,0 / 0,5131,2014-12-14 04:38:26:645
0.7943,-6.3155,0.5198,1.7005,-9.658,0.0408,-3.2303,-6.1601,3.313,0.3519,0.3995,-0.8186,4.0,12.8,-17.0,20.9,70.28,81.15,-98.98,0.4,61.667,,,,NaN,,,,0 / 0,5133,2014-12-14 04:38:26:647
-2.4713,-17.9069,2.7361,1.5714,-9.6739,0.3419,-4.0427,-8.233,2.3942,1.7849,0.0171,0.1662,4.0,12.8,-17.4,19.0,49.02,80.56,-77.73,0.4,61.667,,,,NaN,,,,0 / 0,5158,2014-12-14 04:38:26:672
0.7355,-19.476,3.5794,1.2179,-9.6888,0.902,-0.4824,-9.7872,2.6774,2.0879,-0.8577,0.2541,4.0,12.8,-17.4,19.0,49.02,80.56,-77.73,0.4,61.667,,,,NaN,,,,0 / 0,5208,2014-12-14 04:38:26:722
5.5408,-14.1216,-0.3825,0.7759,-9.6293,1.6868,2.413,-2.1487,-2.1358,1.8155,-0.1112,1.5821,4.0,16.7,-17.0,7.3,351.25,79.18,-33.51,0.4,61.667,,,,NaN,,,,0 / 0,5259,2014-12-14 04:38:26:773
3.5108,-10.5323,-1.0493,0.8677,-9.6347,1.6091,1.4957,-2.5157,-2.276,0.6035,-0.628,0.2382,4.0,16.7,-17.0,6.8,312.88,79.26,-28.33,0.4,59.592,,,,NaN,,,,0 / 0,5309,2014-12-14 04:38:26:823
4.0207,-5.2368,-0.0098,1.4008,-9.6149,1.3274,2.6199,4.3781,-1.3372,0.4679,-0.292,0.3213,4.0,17.1,-17.9,3.9,322.01,78.65,-46.54,0.4,59.592,,,,NaN,,,,0 / 0,5358,2014-12-14 04:38:26:872
3.1185,-4.413,0.8336,1.9429,-9.542,1.1597,1.1756,5.129,-0.3262,-0.193,-0.7282,0.1662,4.0,16.7,-17.9,3.9,336.34,76.66,-59.17,0.4,59.592,,,,NaN,,,,0 / 0,5408,2014-12-14 04:38:26:922
0.7943,-5.6094,-0.8826,2.3193,-9.4928,0.8238,-1.525,3.8834,-1.7064,-0.755,0.6707,-0.0684,4.0,16.3,-17.4,5.8,336.34,76.66,-59.17,0.4,59.592,,,,NaN,,,,0 / 0,5458,2014-12-14 04:38:26:972
0.2844,-7.149,-0.657,2.2323,-9.5451,0.28,-1.9479,2.3961,-0.937,-1.0018,1.1338,0.0061,0.0,17.1,-16.6,6.3,16.16,76.74,-82.85,0.4,59.592,,,,NaN,,,,0 / 0,5509,2014-12-14 04:38:27:023
0.7061,-10.4931,1.2553,2.0048,-9.5945,-0.31,-1.2987,-0.8986,1.5653,-0.8968,-0.551,-0.0843,0.0,17.1,-16.1,10.2,16.16,76.74,-82.85,0.4,59.592,,,,NaN,,,,0 / 0,5559,2014-12-14 04:38:27:073
2.1084,-8.8064,-0.8336,1.9114,-9.6025,-0.5552,0.197,0.7962,-0.2783,-0.9456,-0.8222,-0.259,0.0,16.3,-15.3,11.7,61.38,78.29,-106.2,0.4,59.592,,,,NaN,,,,0 / 0,5609,2014-12-14 04:38:27:123
3.2558,-17.1224,8.8946,2.1454,-9.4813,-1.2933,1.1104,-7.6411,10.1879,-1.2816,0.529,0.2175,0.0,16.3,-14.8,15.6,61.38,78.29,-106.2,0.4,59.592,,,,NaN,,,,0 / 0,5659,2014-12-14 04:38:27:173
3.1577,-4.4718,-3.0499,1.8105,-9.6157,0.6568,1.3473,5.1438,-3.7067,1.091,0.5217,0.2639,0.0,16.7,-16.1,12.2,18.34,78.67,-70.06,0.4,59.592,,,,NaN,,,,0 / 0,5709,2014-12-14 04:38:27:223
2.0006,-5.0995,-1.4906,1.9566,-9.6068,0.2265,0.0439,4.5073,-1.7171,-1.0983,0.7563,0.6683,0.0,18.4,-16.1,11.7,18.34,78.67,-70.06,0.4,59.592,,,,NaN,,,,0 / 0,5759,2014-12-14 04:38:27:273
-4.0894,-12.4152,-0.2942,1.4471,-9.6877,-0.4734,-5.5364,-2.7275,0.1792,-0.3604,0.4545,0.226,0.0,19.7,-15.7,13.1,56.49,81.07,-108.12,0.4,65.963,,,,NaN,,,,0 / 0,5809,2014-12-14 04:38:27:323
1.0983,-10.1008,2.2163,0.6151,-9.7833,-0.2812,0.4833,-0.3175,2.4975,0.1442,-0.887,0.0257,0.0,18.9,-15.7,14.6,56.49,81.07,-108.12,0.4,65.963,,,,NaN,,,,0 / 0,5858,2014-12-14 04:38:27:372
-1.0885,-10.5323,0.4021,0.7279,-9.7757,-0.2743,-1.8165,-0.7566,0.6764,-0.314,0.4777,0.1979,0.0,19.3,-16.1,15.6,50.82,85.78,-102.14,0.4,65.963,,,,NaN,,,,0 / 0,5908,2014-12-14 04:38:27:422
-1.2945,-10.6206,0.4511,0.6578,-9.7804,-0.286,-1.9523,-0.8402,0.7371,-0.2456,0.4423,0.2162,0.0,19.3,-15.7,16.6,67.81,85.81,-113.5,0.4,65.963,,,,NaN,,,,0 / 0,5958,2014-12-14 04:38:27:472
-0.5688,-10.0518,0.7355,0.3478,-9.7974,-0.247,-0.9166,-0.2544,0.9825,0.0415,0.2395,0.1747,0.0,20.2,-16.1,16.1,67.81,85.81,-113.5,0.4,65.963,,,,NaN,,,,0 / 0,6008,2014-12-14 04:38:27:522
0.4315,-9.6399,1.2454,0.2695,-9.8011,-0.1921,0.162,0.1611,1.4376,0.0635,0.1393,0.0611,0.0,20.2,-16.6,17.0,77.08,88.07,-125.48,0.4,65.963,,,,NaN,,,,0 / 0,6059,2014-12-14 04:38:27:573
-0.559,-10.4245,0.1177,0.3161,-9.8015,-0.0218,-0.8751,-0.6229,0.1395,-0.099,0.3494,0.011,0.0,19.7,-16.1,17.5,46.75,88.15,-93.94,0.4,65.963,,,,NaN,,,,0 / 0,6108,2014-12-14 04:38:27:622
-0.4805,-10.3068,0.1667,0.2938,-9.8022,-0.035,-0.7744,-0.5046,0.2017,-0.0867,0.3995,0.0037,0.0,19.7,-16.6,17.5,46.75,88.15,-93.94,0.4,65.963,,,,NaN,,,,0 / 0,6158,2014-12-14 04:38:27:672
-0.1373,-9.8459,0.5492,0.2292,-9.8038,-0.0537,-0.3665,-0.0421,0.6028,-0.0012,-0.0183,-0.0183,0.0,20.2,-16.6,17.5,55.89,88.62,-103.18,0.4,65.963,,,,NaN,,,,0 / 0,6209,2014-12-14 04:38:27:723
0.0,-9.9734,-0.0392,0.2229,-9.8037,-0.0886,-0.2229,-0.1696,0.0493,-0.0086,0.1881,0.0147,0.0,20.2,-16.1,16.6,62.81,88.6,-111.67,0.4,65.963,,,,NaN,,,,0 / 0,6258,2014-12-14 04:38:27:772
0.0,-9.9734,-0.0392,0.2229,-9.8037,-0.0886,-0.2229,-0.1696,0.0493,-0.0086,0.1881,0.0147,0.0,20.2,-16.1,16.6,62.81,88.6,-111.67,0.4,65.963,,,,NaN,,,,0 / 0,6309,2014-12-14 04:38:27:823
-0.1275,-10.0224,-0.0981,0.2225,-9.8032,-0.1372,-0.35,-0.2192,0.0391,0.044,0.0721,-0.0012,0.0,20.6,-16.1,17.0,71.51,88.47,-121.66,0.4,57.931,,,,NaN,,,,0 / 0,6359,2014-12-14 04:38:27:873
-0.1667,-9.8949,0.0196,0.223,-9.8023,-0.1912,-0.3897,-0.0927,0.2108,-0.0037,0.0953,-0.0098,0.0,20.6,-16.1,16.6,71.51,88.47,-121.66,0.4,57.931,,,,NaN,,,,0 / 0,6408,2014-12-14 04:38:27:922
-0.1079,-10.1401,0.0294,0.2188,-9.8021,-0.2056,-0.3561,-0.2596,0.2154,0.0183,0.077,-0.0257,0.0,20.2,-15.7,17.5,86.24,88.25,-133.21,0.4,57.931,,,,NaN,,,,0 / 0,6458,2014-12-14 04:38:27:972
-0.1373,-10.0028,0.255,0.194,-9.8017,-0.2456,-0.3313,-0.2011,0.5006,0.1539,0.0195,-0.0073,0.0,20.2,-16.1,17.5,94.77,88.17,-141.7,0.4,57.931,,,,NaN,,,,0 / 0,6509,2014-12-14 04:38:28:023
-0.1079,-10.0322,0.0785,0.1877,-9.8027,-0.2064,-0.2955,-0.2295,0.2849,0.1442,0.0843,-0.0061,0.0,19.7,-16.1,17.0,94.77,88.17,-141.7,0.4,57.931,,,,NaN,,,,0 / 0,6558,2014-12-14 04:38:28:072
-0.0196,-9.8949,-0.0294,0.1908,-9.8026,-0.2084,-0.2105,-0.0923,0.179,0.0538,0.0452,-0.0122,0.0,20.2,-15.7,17.0,88.89,88.35,-137.52,0.4,57.931,,,,NaN,,,,0 / 0,6608,2014-12-14 04:38:28:122