ACCELEROMETER X (m/s²),ACCELEROMETER Y (m/s²),ACCELEROMETER Z (m/s²),GRAVITY X (m/s²),GRAVITY Y (m/s²),GRAVITY Z (m/s²),LINEAR ACCELERATION X (m/s²),LINEAR ACCELERATION Y (m/s²),LINEAR ACCELERATION Z (m/s²),GYROSCOPE X (rad/s),GYROSCOPE Y (rad/s),GYROSCOPE Z (rad/s),LIGHT (lux),MAGNETIC FIELD X (μT),MAGNETIC FIELD Y (μT),MAGNETIC FIELD Z (μT),ORIENTATION X (°),ORIENTATION Y (°),ORIENTATION Z (°),PROXIMITY (i),SOUND LEVEL (dB),LOCATION Latitude : ,LOCATION Longitude : ,LOCATION Altitude ( m),LOCATION Altitude-google ( m),LOCATION Speed ( Kmh),LOCATION Accuracy ( m),LOCATION ORIENTATION (°),Satellites in range,Time since start in ms ,YYYY-MO-DD HH-MI-SS_SSS
0.255,-9.9832,0.0981,0.4818,-9.7942,0.1055,-0.2269,-0.2184,0.0711,0.0183,-0.033,-0.022,0.0,-67.0,36.9,53.1,128.33,87.14,-77.68,0.4,55.991,,,,NaN,,,,0 / 0,7,2014-12-14 04:36:08:222
0.2256,-9.9538,0.0294,0.4854,-9.794,0.1069,-0.2599,-0.1597,-0.0775,0.0244,-0.011,-0.0122,0.0,-66.1,37.3,52.6,127.78,87.09,-77.58,0.4,55.991,,,,NaN,,,,0 / 0,57,2014-12-14 04:36:08:272
0.2844,-10.0224,0.1373,0.4841,-9.7942,0.0977,-0.2487,-0.1792,-0.029,0.0195,0.0012,0.0012,0.0,-67.0,37.3,52.6,127.78,87.09,-77.58,0.4,55.991,,,,NaN,,,,0 / 0,107,2014-12-14 04:36:08:322
0.2157,-10.0028,0.0883,0.4804,-9.7945,0.0907,-0.2451,-0.2083,-0.0025,0.0269,0.0,-0.0061,0.0,-67.0,36.5,52.6,129.98,87.14,-79.31,0.4,55.991,,,,NaN,,,,0 / 0,158,2014-12-14 04:36:08:373
0.2256,-9.9636,0.0588,0.4831,-9.7945,0.0722,-0.2267,-0.1592,0.0288,0.0269,-0.0098,-0.0073,0.0,-66.1,36.9,52.6,129.98,87.14,-79.31,0.4,55.991,,,,NaN,,,,0 / 0,207,2014-12-14 04:36:08:422
0.2157,-9.9734,0.1569,0.478,-9.7948,0.0636,-0.2623,-0.1786,0.0933,0.0208,0.0293,0.0049,0.0,-67.0,36.9,53.1,132.21,87.14,-81.5,0.4,55.991,,,,NaN,,,,0 / 0,257,2014-12-14 04:36:08:472
0.2256,-9.9341,0.1569,0.4696,-9.7951,0.0752,-0.244,-0.139,0.0817,0.0208,0.0293,0.0049,0.0,-67.0,36.9,53.1,132.21,87.14,-81.5,0.4,55.991,,,,NaN,,,,0 / 0,308,2014-12-14 04:36:08:523
0.2452,-9.9832,0.1373,0.4657,-9.7953,0.0776,-0.2107,-0.1683,0.0302,0.0354,0.0354,0.0073,0.0,-66.6,37.3,53.1,131.26,87.24,-80.54,0.4,36.775,,,,NaN,,,,0 / 0,357,2014-12-14 04:36:08:572
0.1961,-9.9636,0.1275,0.4573,-9.7957,0.078,-0.2612,-0.1679,0.0593,0.0183,0.0415,-0.0147,0.0,-66.6,36.9,53.1,131.06,87.29,-80.32,0.4,36.775,,,,NaN,,,,0 / 0,408,2014-12-14 04:36:08:623
0.2157,-10.0714,0.0785,0.4559,-9.7958,0.0745,-0.2401,-0.2757,0.0039,0.0318,0.0562,-0.0073,0.0,-67.0,36.9,54.1,131.06,87.29,-80.32,0.4,36.775,,,,NaN,,,,0 / 0,457,2014-12-14 04:36:08:672
0.1569,-9.993,0.2059,0.4501,-9.7961,0.0711,-0.2932,-0.1969,0.1348,0.0208,0.0819,-0.0147,0.0,-67.4,37.3,53.6,131.26,87.34,-81.02,0.4,36.775,,,,NaN,,,,0 / 0,508,2014-12-14 04:36:08:723
-0.1373,-10.0224,0.1863,0.4053,-9.7979,0.0816,-0.5426,-0.2245,0.1047,0.0281,0.0916,-0.0391,0.0,-67.4,37.3,54.1,128.92,87.58,-78.62,0.4,36.775,,,,NaN,,,,0 / 0,557,2014-12-14 04:36:08:772
0.0686,-9.9832,0.0686,0.3856,-9.7987,0.0889,-0.317,-0.1845,-0.0202,0.0367,0.033,-0.066,0.0,-67.4,37.3,53.1,127.87,87.69,-77.02,0.4,36.775,,,,NaN,,,,0 / 0,607,2014-12-14 04:36:08:822
0.2942,-9.9636,-0.0392,0.4064,-9.7979,0.0769,-0.1122,-0.1656,-0.1162,0.0318,0.0513,-0.0916,0.0,-67.4,36.9,54.1,127.87,87.69,-77.02,0.4,36.775,,,,NaN,,,,0 / 0,659,2014-12-14 04:36:08:874
0.3628,-9.8753,0.0098,0.4633,-9.7956,0.0454,-0.1005,-0.0797,-0.0356,0.0403,0.1295,-0.0794,0.0,-67.9,37.3,54.6,134.59,87.28,-84.41,0.4,36.775,,,,NaN,,,,0 / 0,708,2014-12-14 04:36:08:923
-0.0196,-10.0812,0.6472,0.5048,-9.7934,0.0635,-0.5244,-0.2878,0.5837,0.0476,0.1258,-0.0721,0.0,-68.3,37.8,54.1,133.39,87.03,-82.82,0.4,36.775,,,,NaN,,,,0 / 0,758,2014-12-14 04:36:08:973
0.0294,-10.0714,0.9022,0.4892,-9.793,0.1678,-0.5088,-0.2294,0.8129,0.0855,0.1527,-0.099,0.0,-68.3,37.8,54.1,121.45,86.98,-71.07,0.4,35.663,,,,NaN,,,,0 / 0,807,2014-12-14 04:36:09:022
-0.2059,-10.1008,1.3533,0.4892,-9.793,0.1678,-0.5088,-0.2294,0.8129,0.1161,0.0867,-0.1307,0.0,-68.3,37.8,54.1,121.45,86.98,-71.07,0.4,35.663,,,,NaN,,,,0 / 0,858,2014-12-14 04:36:09:073
-0.1863,-10.2774,1.5691,0.4857,-9.7908,0.2729,-0.6917,-0.31,1.0804,0.1368,0.0672,-0.1393,0.0,-68.7,37.8,53.6,111.27,86.74,-60.67,0.4,35.663,,,,NaN,,,,0 / 0,907,2014-12-14 04:36:09:122
-0.1863,-10.2774,1.5691,0.4857,-9.7908,0.2729,-0.6917,-0.31,1.0804,0.1368,0.0672,-0.1393,0.0,-68.7,37.8,53.6,111.27,86.74,-60.67,0.4,35.663,,,,NaN,,,,0 / 0,957,2014-12-14 04:36:09:172
-1.0297,-11.7778,2.5301,0.4561,-9.7794,0.5711,-1.4858,-1.9984,1.959,0.3079,0.011,-0.0733,0.0,-68.3,38.2,52.6,88.79,85.73,-38.61,0.4,35.663,,,,NaN,,,,0 / 0,1008,2014-12-14 04:36:09:223
-2.432,-12.3073,2.1967,0.1243,-9.7452,1.0892,-2.5564,-2.5622,1.1075,0.887,0.3629,0.3189,0.0,-68.3,39.1,50.7,57.32,83.58,-6.51,0.4,35.663,,,,NaN,,,,0 / 0,1058,2014-12-14 04:36:09:273
1.3337,-8.267,0.7355,0.3011,-9.4406,2.6373,2.3382,0.6914,-0.9259,1.1924,-0.2272,0.2053,0.0,-64.0,39.5,40.4,57.32,83.58,-6.51,0.4,35.663,,,,NaN,,,,0 / 0,1108,2014-12-14 04:36:09:323
0.4217,-7.5315,0.5394,0.3514,-9.4282,2.6752,0.0703,1.8967,-2.1358,0.6402,0.2285,0.1637,0.0,-63.1,39.5,37.5,59.73,74.03,-7.48,0.4,35.663,,,,NaN,,,,0 / 0,1157,2014-12-14 04:36:09:372
-0.608,-7.3158,1.7358,0.2323,-9.4826,2.4892,-0.8403,2.1669,-0.7535,0.1307,-0.2321,0.0452,0.0,-62.2,39.5,36.0,60.02,74.03,-7.48,0.4,35.663,,,,NaN,,,,0 / 0,1208,2014-12-14 04:36:09:423
0.3138,-6.747,2.8243,0.1483,-9.4959,2.4446,0.1655,2.7489,0.3798,-0.2908,0.1857,0.1136,0.0,-60.9,39.1,34.6,57.6,75.54,-3.47,0.4,35.663,,,,NaN,,,,0 / 0,1259,2014-12-14 04:36:09:474
0.7747,-6.5705,2.7164,0.1645,-9.4895,2.4682,0.6102,2.9191,0.2482,-0.4875,0.3702,0.0757,0.0,-61.4,39.1,38.0,57.6,75.54,-3.47,0.4,35.663,,,,NaN,,,,0 / 0,1308,2014-12-14 04:36:09:523
0.0588,-5.7173,2.1084,0.3183,-9.4998,2.4132,-0.0536,4.0375,-0.295,-0.5095,0.4581,0.0024,0.0,-61.8,39.5,39.9,58.74,75.63,-7.51,0.4,49.687,,,,NaN,,,,0 / 0,1358,2014-12-14 04:36:09:573
-0.657,-8.5906,2.9518,0.3502,-9.5275,2.2966,-0.9991,0.9471,0.6967,-0.5095,-0.1686,-0.1466,0.0,-62.7,39.1,41.9,58.74,75.63,-7.51,0.4,49.687,,,,NaN,,,,0 / 0,1407,2014-12-14 04:36:09:622
1.0003,-7.8944,1.7064,0.3192,-9.5446,2.229,-1.192,0.7285,0.3502,-0.4838,-0.3531,-0.1344,0.0,-63.1,39.5,42.4,59.06,76.73,-8.15,0.4,49.687,,,,NaN,,,,0 / 0,1457,2014-12-14 04:36:09:672
2.2163,-8.1003,1.6181,0.3106,-9.6345,1.8026,1.9057,1.5343,-0.1845,-0.7379,0.6536,-0.2724,0.0,-65.3,38.6,45.8,60.31,79.25,-9.78,0.4,49.687,,,,NaN,,,,0 / 0,1507,2014-12-14 04:36:09:722
-1.2945,-12.9448,-2.6674,0.6596,-9.6664,1.5149,-1.7874,-4.3865,-4.3981,0.0281,0.4472,0.5229,0.0,-66.1,37.8,47.3,73.88,80.3,-23.53,0.4,49.687,,,,NaN,,,,0 / 0,1557,2014-12-14 04:36:09:772
0.5786,-16.8969,0.7551,0.0415,-9.6918,1.4957,-1.322,-9.6217,0.7472,1.438,-0.2101,0.5852,0.0,-63.5,36.9,45.3,60.55,82.68,-8.94,0.4,49.687,,,,NaN,,,,0 / 0,1608,2014-12-14 04:36:09:823
2.8341,-5.8546,-5.0406,0.1833,-9.6799,1.5609,2.6508,3.8253,-6.6015,0.2407,0.766,-0.2334,0.0,-63.1,35.6,41.9,59.53,80.78,-6.7,0.4,49.687,,,,NaN,,,,0 / 0,1658,2014-12-14 04:36:09:873
2.8341,-5.8546,-5.0406,0.1833,-9.6799,1.5609,2.6508,3.8253,-6.6015,0.2407,0.766,-0.2334,0.0,-63.1,35.6,41.9,59.53,80.78,-6.7,0.4,49.687,,,,NaN,,,,0 / 0,1708,2014-12-14 04:36:09:923
-6.6587,-16.3967,-0.5198,0.6643,-9.7841,0.0112,-7.323,-6.6126,-0.5309,-0.6023,0.2651,0.0024,0.0,-64.8,35.2,48.2,141.48,86.12,-89.04,0.4,49.687,,,,NaN,,,,0 / 0,1758,2014-12-14 04:36:09:973
0.0392,-7.7178,0.3138,-0.0086,-9.8024,-0.2871,-0.4592,1.7834,-0.1922,-0.3555,-1.0299,-0.2346,0.0,-64.8,35.2,48.7,244.32,89.04,169.04,0.4,49.687,,,,NaN,,,,0 / 0,1808,2014-12-14 04:36:10:023
-0.1079,-8.0513,1.0003,0.0255,-9.7996,-0.3715,-0.1333,1.7483,1.3718,-0.788,-0.1112,-0.3225,0.0,-65.7,35.6,49.7,229.67,87.82,-176.08,0.4,63.825,,,,NaN,,,,0 / 0,1857,2014-12-14 04:36:10:072
-1.0199,-9.1496,3.0597,0.0619,-9.8005,-0.3426,-1.5329,-0.0944,3.1179,0.1955,-0.3115,-0.0171,0.0,-65.7,35.2,50.2,223.23,87.97,-169.77,0.4,63.825,,,,NaN,,,,0 / 0,1908,2014-12-14 04:36:10:123
1.6671,-4.9524,1.8437,0.3308,-9.7588,0.9088,1.3364,4.8065,0.9349,0.6023,0.2944,-0.4472,0.0,-66.6,34.7,46.8,72.71,84.34,-20.0,0.4,63.825,,,,NaN,,,,0 / 0,1958,2014-12-14 04:36:10:173
1.6671,-4.9524,1.8437,0.3308,-9.7588,0.9088,1.3364,4.8065,0.9349,0.6023,0.2944,-0.4472,0.0,-66.6,34.7,46.8,72.71,84.34,-20.0,0.4,63.825,,,,NaN,,,,0 / 0,2007,2014-12-14 04:36:10:222
-1.6769,-8.2866,0.7159,0.6284,-9.6988,1.307,-2.3054,1.4122,-0.5911,0.3641,0.7233,-0.2834,0.0,-69.2,35.2,44.8,79.11,81.5,-25.68,0.4,63.825,,,,NaN,,,,0 / 0,2057,2014-12-14 04:36:10:272
-2.6282,-17.3872,3.8442,-0.3383,-9.6852,1.5009,-2.2899,-7.702,2.3433,0.4337,0.0672,-0.2834,0.0,-70.9,34.3,42.9,68.07,81.78,-12.21,0.4,63.825,,,,NaN,,,,0 / 0,2107,2014-12-14 04:36:10:322
-1.3239,-18.6915,4.9426,-0.4733,-9.65,1.6805,-0.8506,-9.0415,3.2621,1.7691,-1.372,0.7123,0.0,-70.5,33.4,36.5,43.9,79.74,15.73,0.4,63.825,,,,NaN,,,,0 / 0,2157,2014-12-14 04:36:10:372
5.1387,-17.5245,0.7453,-0.3321,-9.3477,2.9464,5.4708,-8.1768,-2.2011,2.1124,-1.2743,0.9187,0.0,-68.3,32.1,26.3,43.9,79.74,15.73,0.4,63.825,,,,NaN,,,,0 / 0,2208,2014-12-14 04:36:10:423
1.0591,-9.5615,1.4416,-0.038,-9.2641,3.2165,1.0971,-0.2974,-1.7749,1.0959,-0.2615,0.7123,0.0,-65.3,30.4,19.0,61.43,72.4,6.43,0.4,63.825,,,,NaN,,,,0 / 0,2257,2014-12-14 04:36:10:472
0.5198,-9.8165,1.4318,-0.0191,-9.2404,3.2841,0.5389,-0.5761,-1.8524,0.9297,-0.3091,0.4276,0.0,-64.0,28.6,15.6,68.53,70.43,0.33,0.4,63.825,,,,NaN,,,,0 / 0,2308,2014-12-14 04:36:10:523
1.6769,-6.1095,0.1765,0.1239,-9.2569,3.2349,1.5531,3.1474,-3.0584,0.2786,-0.5534,0.0501,0.0,-63.5,28.6,15.1,71.35,70.72,-2.19,0.4,63.825,,,,NaN,,,,0 / 0,2358,2014-12-14 04:36:10:573
1.8633,-2.8635,-0.5099,0.3732,-9.3228,3.0194,1.49,6.4592,-3.5294,-0.248,-0.5315,-0.0195,0.0,-64.4,28.6,14.6,71.35,70.72,-2.19,0.4,56.427,,,,NaN,,,,0 / 0,2408,2014-12-14 04:36:10:623
1.8535,-1.1768,-0.0392,0.8223,-9.4924,2.3213,1.0312,8.3156,-2.3605,-1.2547,0.5962,-0.3457,0.0,-64.8,29.9,19.0,86.73,75.46,-19.51,0.4,56.427,,,,NaN,,,,0 / 0,2458,2014-12-14 04:36:10:673
0.0,-5.5211,2.3634,1.6836,-9.5613,1.3846,-1.6836,4.0402,0.9788,-1.4807,0.2578,-0.2505,0.0,-67.4,29.5,26.8,113.11,77.16,-50.57,0.4,56.427,,,,NaN,,,,0 / 0,2508,2014-12-14 04:36:10:723
-0.608,-7.149,2.3732,1.6948,-9.5672,1.3293,-2.3028,2.4181,1.0439,-1.5455,0.3201,-0.171,0.0,-67.9,29.9,28.2,113.11,77.16,-50.57,0.4,56.427,,,,NaN,,,,0 / 0,2558,2014-12-14 04:36:10:773
-1.4514,-8.7671,2.8145,1.1919,-9.6736,1.0823,-2.6433,0.9064,1.7322,-0.8748,0.5046,-0.1258,0.0,-69.6,28.6,32.1,109.56,80.55,-47.76,0.4,56.427,,,,NaN,,,,0 / 0,2607,2014-12-14 04:36:10:822
2.8047,-17.7598,5.1583,1.0392,-9.714,0.8535,1.7655,-8.0458,4.3048,-0.7587,-1.5015,-0.1637,0.0,-74.0,26.9,37.0,103.87,81.77,-42.45,0.4,56.427,,,,NaN,,,,0 / 0,2658,2014-12-14 04:36:10:873
2.8047,-17.7598,5.1583,1.0392,-9.714,0.8535,1.7655,-8.0458,4.3048,-0.7587,-1.5015,-0.1637,0.0,-74.0,26.9,37.0,103.87,81.77,-42.45,0.4,56.427,,,,NaN,,,,0 / 0,2708,2014-12-14 04:36:10:923
2.8047,-17.7598,5.1583,1.0392,-9.714,0.8535,1.7655,-8.0458,4.3048,-0.7587,-1.5015,-0.1637,0.0,-74.0,26.9,37.0,103.87,81.77,-42.45,0.4,56.427,,,,NaN,,,,0 / 0,2758,2014-12-14 04:36:10:973
-0.3334,-9.9047,-1.8338,1.0736,-9.6865,1.0902,-1.407,-0.2182,-2.9241,0.6878,1.4123,0.2773,0.0,-73.1,23.4,36.5,105.05,81.02,-44.56,0.4,56.427,,,,NaN,,,,0 / 0,2808,2014-12-14 04:36:11:023
-0.2648,-9.5419,-3.2754,1.0792,-9.6661,1.2539,-1.344,0.1242,-4.5293,0.2651,1.157,-0.0501,0.0,-72.7,23.4,36.0,105.05,81.02,-44.56,0.4,56.427,,,,NaN,,,,0 / 0,2858,2014-12-14 04:36:11:073
-0.2648,-9.5419,-3.2754,1.0792,-9.6661,1.2539,-1.344,0.1242,-4.5293,0.2651,1.157,-0.0501,0.0,-72.7,23.4,36.0,105.05,81.02,-44.56,0.4,56.427,,,,NaN,,,,0 / 0,2908,2014-12-14 04:36:11:123
-1.0689,-11.4934,2.9714,0.3566,-9.7899,-0.4485,-1.4256,-1.7035,3.4199,-0.215,-0.507,-0.0379,0.0,-73.5,23.4,40.9,202.58,86.65,-141.51,0.4,62.736,,,,NaN,,,,0 / 0,2958,2014-12-14 04:36:11:173
1.6966,-7.9728,0.1961,0.3569,-9.7996,-0.1018,1.3397,1.8268,0.2979,-0.0831,-0.2187,-0.3885,0.0,-74.4,24.3,39.9,167.39,87.83,-105.92,0.4,62.736,,,,NaN,,,,0 / 0,3007,2014-12-14 04:36:11:222
1.5102,-6.6097,0.0392,0.5545,-9.7903,-0.1162,0.9557,3.1806,0.1554,-0.237,0.4337,-0.4581,0.0,-74.8,23.9,40.9,167.39,87.83,-105.92,0.4,62.736,,,,NaN,,,,0 / 0,3057,2014-12-14 04:36:11:272
-1.8731,-8.3749,3.3539,0.5136,-9.7855,0.3892,-2.3867,1.4106,2.9647,0.6463,-0.226,-0.0293,0.0,-76.6,23.9,41.4,162.26,84.84,-101.69,0.4,62.736,,,,NaN,,,,0 / 0,3107,2014-12-14 04:36:11:322
1.5396,-3.4225,0.2256,0.5046,-9.7232,1.1727,1.035,6.3007,-0.9471,0.6976,0.1759,-0.4105,0.0,-77.9,23.9,38.0,85.27,82.52,-23.28,0.4,62.736,,,,NaN,,,,0 / 0,3157,2014-12-14 04:36:11:372
1.216,-2.5595,-0.2354,0.6179,-9.7098,1.2283,0.5981,7.1502,-1.4637,0.54,0.3213,-0.4862,0.0,-79.2,23.4,38.5,85.27,82.52,-23.28,0.4,62.736,,,,NaN,,,,0 / 0,3208,2014-12-14 04:36:11:423
-3.9619,-13.5234,1.5985,0.6252,-9.6922,1.357,-4.5871,-3.8312,0.2415,0.5547,-0.0073,-0.0733,0.0,-83.1,22.1,36.0,101.38,80.93,-38.96,0.4,62.736,,,,NaN,,,,0 / 0,3257,2014-12-14 04:36:11:472
-2.8832,-15.4357,1.3533,0.0611,-9.6832,1.5496,-2.9442,-5.7524,-0.1963,1.1118,-0.9676,-0.0391,0.0,-84.4,21.7,33.6,68.4,80.9,-2.26,0.4,62.736,,,,NaN,,,,0 / 0,3308,2014-12-14 04:36:11:523
0.6276,-19.1818,4.0992,-0.294,-9.5845,2.0547,0.9217,-9.5973,2.0445,2.0269,-1.3305,0.7563,0.0,-84.4,21.7,29.7,60.13,77.78,8.14,0.4,62.736,,,,NaN,,,,0 / 0,3358,2014-12-14 04:36:11:573
5.7271,-14.6217,-0.4315,-0.1335,-9.3001,3.1081,5.8606,-5.3216,-3.5396,1.9731,-0.7489,1.0519,0.0,14.9,-18.1,2.9,257.04,71.5,2.46,0.4,62.736,,,,NaN,,,,0 / 0,3408,2014-12-14 04:36:11:623
1.0199,-9.2183,0.4021,0.0835,-9.2862,3.1511,0.9364,0.068,-2.7491,0.9358,-0.0147,0.722,0.0,15.8,-18.5,1.4,257.04,71.5,2.46,0.4,62.736,,,,NaN,,,,0 / 0,3458,2014-12-14 04:36:11:673
1.2749,-8.6397,0.8336,0.0835,-9.2862,3.1511,0.9364,0.068,-2.7491,0.9358,-0.0147,0.722,0.0,15.8,-18.5,1.4,257.04,71.5,2.46,0.4,62.736,,,,NaN,,,,0 / 0,3507,2014-12-14 04:36:11:722
1.9711,-4.6189,-0.0196,0.172,-9.389,2.8262,1.7992,4.7701,-2.8458,-0.226,-0.6939,0.171,0.0,16.6,-18.1,-1.0,246.54,71.99,-0.3,0.4,59.136,,,,NaN,,,,0 / 0,3557,2014-12-14 04:36:11:772
1.5298,-2.7066,-0.6472,0.4229,-9.4675,2.5215,1.5384,6.349,-2.9138,-1.0055,0.2822,-0.2712,0.0,16.2,-18.1,0.0,262.28,74.89,-9.52,0.4,59.136,,,,NaN,,,,0 / 0,3608,2014-12-14 04:36:11:823
1.5298,-2.7066,-0.6472,0.7095,-9.5514,2.1066,0.8203,6.8448,-2.7538,-1.0055,0.2822,-0.2712,0.0,15.8,-17.2,1.9,262.28,74.89,-9.52,0.4,59.136,,,,NaN,,,,0 / 0,3658,2014-12-14 04:36:11:873
2.6184,-3.7069,-0.1765,1.4471,-9.6635,0.832,1.1713,5.9566,-1.0085,-1.6713,0.6817,-0.0843,0.0,14.0,-16.3,7.3,355.9,80.2,-60.1,0.4,59.136,,,,NaN,,,,0 / 0,3708,2014-12-14 04:36:11:923
-0.1961,-5.6192,1.0689,1.746,-9.6473,0.2278,-1.9421,4.0281,0.8412,-1.8815,0.485,0.0257,0.0,13.6,-16.3,10.2,355.9,80.2,-60.1,0.4,59.136,,,,NaN,,,,0 / 0,3758,2014-12-14 04:36:11:973
-0.1961,-5.6192,1.0689,1.746,-9.6473,0.2278,-1.9421,4.0281,0.8412,-1.8815,0.485,0.0257,0.0,13.6,-16.3,10.2,355.9,80.2,-60.1,0.4,59.136,,,,NaN,,,,0 / 0,3808,2014-12-14 04:36:12:023
-2.0692,-10.1303,5.2073,0.7169,-9.7803,0.0427,-2.7861,-0.35,5.1646,-0.4178,0.2138,-0.2456,0.0,10.6,-16.3,16.6,64.32,82.01,-99.17,0.4,59.136,,,,NaN,,,,0 / 0,3858,2014-12-14 04:36:12:073
3.4029,-14.4746,-2.9224,0.8304,-9.69,1.2585,2.5725,-4.7846,-4.1809,0.2126,0.4899,0.4154,0.0,9.7,-17.2,16.1,1.66,81.16,-33.42,0.4,59.136,,,,NaN,,,,0 / 0,3908,2014-12-14 04:36:12:123
2.4811,-17.0243,1.6671,0.8503,-9.7264,0.9186,1.6307,-7.2979,0.7486,-0.5192,1.069,0.5119,0.0,10.1,-17.2,17.0,1.66,81.16,-33.42,0.4,59.136,,,,NaN,,,,0 / 0,3958,2014-12-14 04:36:12:173
-0.1275,-10.5323,-4.6385,0.7751,-9.7711,0.3088,-0.9026,-0.7612,-4.9473,0.3714,0.3787,-0.1051,0.0,10.1,-18.1,16.1,10.7,83.94,-41.58,0.4,59.136,,,,NaN,,,,0 / 0,4008,2014-12-14 04:36:12:223
-2.3732,-12.2289,-0.0196,0.5001,-9.7575,-0.843,-2.8733,-2.4713,0.8234,-1.0275,0.2309,-0.3115,0.0,8.8,-18.1,18.5,10.7,83.94,-41.58,0.4,59.136,,,,NaN,,,,0 / 0,4057,2014-12-14 04:36:12:272
0.1667,-10.1891,1.1082,0.2913,-9.761,-0.8992,0.2874,0.1039,1.6761,-0.369,-0.2505,-0.0745,0.0,8.4,-17.6,20.9,142.37,84.32,-160.58,0.4,59.136,,,,NaN,,,,0 / 0,4108,2014-12-14 04:36:12:323
-2.2163,-9.6301,2.7949,0.3967,-9.7662,-0.7961,-1.3867,3.239,0.9087,0.3091,-0.5632,0.0024,0.0,7.5,-18.1,23.9,132.78,83.51,-148.0,0.4,64.787,,,,NaN,,,,0 / 0,4158,2014-12-14 04:36:12:373
0.912,-4.1776,0.7943,0.3023,-9.8005,-0.1722,0.6097,5.6228,0.9666,0.5779,-0.3213,-0.1503,0.0,7.1,-17.6,23.4,132.78,83.51,-148.0,0.4,64.787,,,,NaN,,,,0 / 0,4207,2014-12-14 04:36:12:422
-0.4903,-11.7091,3.3735,0.5142,-9.7625,0.7743,-1.0045,-1.9466,2.5992,0.4032,0.4643,-0.3946,0.0,5.8,-18.5,22.4,105.95,87.97,-119.67,0.4,64.787,,,,NaN,,,,0 / 0,4257,2014-12-14 04:36:12:472
-0.5099,-5.4819,-0.8238,0.6427,-9.6956,1.3242,-2.0058,2.8996,-2.2558,0.2053,1.0311,-0.5339,0.0,5.3,-18.5,20.0,13.79,81.37,-25.89,0.4,64.787,,,,NaN,,,,0 / 0,4307,2014-12-14 04:36:12:522
-5.5702,-17.7795,2.5203,0.2584,-9.6971,1.4387,-5.8286,-8.0824,1.0816,1.6151,-0.0073,0.5583,0.0,5.3,-18.9,19.0,13.79,81.37,-25.89,0.4,64.787,,,,NaN,,,,0 / 0,4358,2014-12-14 04:36:12:573
0.0392,-16.6419,2.3144,-0.3285,-9.6175,1.8882,1.4968,-6.1573,-0.3328,1.6151,-0.0073,0.5583,0.0,5.3,-18.9,19.0,13.79,81.37,-25.89,0.4,64.787,,,,NaN,,,,0 / 0,4408,2014-12-14 04:36:12:623
3.3539,-19.4564,2.0692,-0.2374,-9.5118,2.375,3.5912,-9.9446,-0.3058,1.8436,-1.4526,0.8259,0.0,9.3,-20.2,12.7,303.61,75.91,5.71,0.4,64.787,,,,NaN,,,,0 / 0,4458,2014-12-14 04:36:12:673
2.0594,-10.3656,0.5394,0.1637,-9.3991,2.7929,1.8957,-0.9665,-2.2535,0.992,-0.2126,0.5986,4.0,11.4,-21.5,7.3,277.14,73.42,-3.35,0.4,58.443,,,,NaN,,,,0 / 0,4508,2014-12-14 04:36:12:723
1.3925,-4.7758,-0.0686,0.3109,-9.3966,2.789,1.1993,0.0214,-1.5533,-0.2297,-0.4655,0.0501,4.0,12.7,-21.5,5.3,277.14,73.42,-3.35,0.4,58.443,,,,NaN,,,,0 / 0,4558,2014-12-14 04:36:12:773
1.2945,-3.3343,-0.3236,0.5094,-9.4402,2.6065,0.8831,4.6643,-2.6752,-0.7282,-0.0794,-0.2199,4.0,13.2,-21.5,5.8,281.6,74.29,-11.06,0.4,58.443,,,,NaN,,,,0 / 0,4608,2014-12-14 04:36:12:823
1.4808,-3.1479,-0.4315,0.931,-9.5745,1.9062,0.5498,6.4265,-2.3376,-0.9334,0.193,-0.3299,4.0,13.2,-21.1,7.3,309.78,77.51,-26.03,0.4,58.443,,,,NaN,,,,0 / 0,4658,2014-12-14 04:36:12:873
2.4222,-3.8834,0.0785,1.2906,-9.6379,1.2709,1.1316,5.7545,-1.1925,-1.372,0.7123,-0.2663,4.0,12.3,-21.1,10.2,353.53,79.36,-45.44,0.4,58.443,,,,NaN,,,,0 / 0,4708,2014-12-14 04:36:12:923
-2.2653,-9.1888,2.2653,1.6579,-9.6475,0.5886,-0.5007,4.2735,0.0586,-1.708,0.7282,0.1552,4.0,12.7,-20.7,13.6,34.45,79.67,-70.45,0.4,58.443,,,,NaN,,,,0 / 0,4758,2014-12-14 04:36:12:973
-0.9807,-8.0709,4.5797,0.6919,-9.7775,0.3041,-1.6726,1.7066,4.2756,-1.3854,0.3274,0.0819,4.0,13.6,-22.4,20.5,60.19,81.94,-90.07,0.4,58.443,,,,NaN,,,,0 / 0,4808,2014-12-14 04:36:13:023
-0.5198,-7.9042,5.0308,0.6256,-9.7771,0.4333,-1.1454,1.8729,4.5975,-0.4154,0.5302,-0.1808,4.0,13.6,-22.8,20.5,23.27,85.55,-55.29,0.4,58.443,,,,NaN,,,,0 / 0,4857,2014-12-14 04:36:13:072
2.3634,-9.9047,1.5691,0.6432,-9.7261,1.0766,1.6319,1.008,1.277,-0.4899,0.2712,0.0794,4.0,14.5,-24.1,21.4,23.27,85.55,-55.29,0.4,57.045,,,,NaN,,,,0 / 0,4907,2014-12-14 04:36:13:122
1.6966,-13.6607,-2.942,0.4576,-9.6999,1.3683,1.239,-3.9607,-4.3103,0.16,0.9505,0.441,4.0,16.2,-25.4,21.4,337.97,81.54,-18.49,0.4,57.045,,,,NaN,,,,0 / 0,4957,2014-12-14 04:36:13:172
-0.7943,-15.6416,-0.7943,0.5937,-9.7344,1.0291,-1.3881,-5.9072,-1.8234,1.4368,0.3604,0.2089,4.0,18.0,-26.3,20.9,347.93,83.04,-29.98,0.4,57.045,,,,NaN,,,,0 / 0,5061,2014-12-14 04:36:13:276
-0.7943,-15.6416,-0.7943,0.5937,-9.7344,1.0291,-1.3881,-5.9072,-1.8234,1.4368,0.3604,0.2089,4.0,18.0,-26.3,20.9,347.93,83.04,-29.98,0.4,57.045,,,,NaN,,,,0 / 0,5063,2014-12-14 04:36:13:278
1.0003,-8.9731,-6.6097,0.6084,-9.7539,0.8133,0.3918,0.7808,-7.423,-0.4166,0.6842,-0.4276,4.0,18.0,-27.2,21.4,347.93,83.04,-29.98,0.4,57.045,,,,NaN,,,,0 / 0,5108,2014-12-14 04:36:13:323
-3.6775,-14.2883,-1.9613,0.8898,-9.7339,-0.793,-4.5673,-4.5543,-1.1683,-1.3854,0.7807,-0.3115,4.0,17.1,-27.2,24.9,103.5,83.02,-131.71,0.4,57.045,,,,NaN,,,,0 / 0,5158,2014-12-14 04:36:13:373
0.0981,-8.9535,0.2354,0.3908,-9.7355,-1.1125,-0.9115,0.2309,1.7854,-0.4789,-0.0318,-0.1637,4.0,17.1,-26.7,26.3,131.75,83.09,-160.65,0.4,57.045,,,,NaN,,,,0 / 0,5208,2014-12-14 04:36:13:423
1.1082,-8.1003,-0.559,0.4104,-9.7312,-1.1427,0.6978,1.6309,0.5837,-0.7391,0.3384,-0.3457,4.0,16.2,-27.2,27.3,131.75,83.09,-160.65,0.4,57.045,,,,NaN,,,,0 / 0,5258,2014-12-14 04:36:13:473
-0.9218,-8.9437,3.9325,0.3572,-9.7845,-0.553,-2.5813,0.6239,3.0696,-0.3189,0.4814,-0.1234,4.0,16.2,-27.2,28.8,132.44,80.62,-156.04,0.4,57.045,,,,NaN,,,,0 / 0,5308,2014-12-14 04:36:13:523
0.7453,-9.1594,0.3138,0.3944,-9.7908,-0.3941,0.3509,0.6314,0.7079,0.6451,0.2773,-0.2077,4.0,15.8,-26.7,28.3,107.81,86.74,-134.98,0.4,57.045,,,,NaN,,,,0 / 0,5358,2014-12-14 04:36:13:573
-0.3727,-4.2071,-0.1961,0.6198,-9.7842,0.2369,-0.9924,5.5771,-0.433,0.9481,0.5376,-0.3213,4.0,15.3,-26.7,24.4,39.5,86.12,-69.08,0.4,67.842,,,,NaN,,,,0 / 0,5408,2014-12-14 04:36:13:623
-0.3727,-4.2071,-0.1961,0.6198,-9.7842,0.2369,-0.9924,5.5771,-0.433,0.9481,0.5376,-0.3213,4.0,15.3,-26.7,24.4,39.5,86.12,-69.08,0.4,67.842,,,,NaN,,,,0 / 0,5458,2014-12-14 04:36:13:673
-2.0986,-8.9437,-0.0294,0.5623,-9.7788,0.4784,-2.6609,0.8352,-0.5078,0.8027,0.2896,-0.1674,4.0,14.9,-26.7,21.4,15.3,85.68,-49.61,0.4,67.842,,,,NaN,,,,0 / 0,5508,2014-12-14 04:36:13:723
-1.0395,-8.1493,1.6083,0.1611,-9.7432,1.1025,-1.2006,1.5938,0.5058,0.9982,0.0476,-0.2101,4.0,13.6,-27.2,18.5,15.3,85.68,-49.61,0.4,67.842,,,,NaN,,,,0 / 0,5558,2014-12-14 04:36:13:773
-2.2555,-15.9162,2.5693,-0.043,-9.6928,1.4893,-2.2125,-6.2234,1.08,1.383,-0.1576,0.3091,4.0,12.7,-26.7,15.6,310.11,81.26,1.65,0.4,67.842,,,,NaN,,,,0 / 0,5608,2014-12-14 04:36:13:823
1.9417,-19.829,1.8044,-0.5464,-9.4917,2.4039,2.4881,-10.3373,-0.5995,2.2993,-1.5394,1.179,4.0,14.0,-27.2,9.2,310.11,81.26,1.65,0.4,67.842,,,,NaN,,,,0 / 0,5658,2014-12-14 04:36:13:873
1.9417,-19.829,1.8044,-0.5464,-9.4917,2.4039,2.4881,-10.3373,-0.5995,2.2993,-1.5394,1.179,4.0,14.0,-27.2,9.2,310.11,81.26,1.65,0.4,67.842,,,,NaN,,,,0 / 0,5708,2014-12-14 04:36:13:923
4.4424,-13.9843,0.6963,-0.3819,-9.3572,2.9098,4.8243,-4.6271,-2.2135,1.5382,-1.4441,1.047,4.0,15.3,-28.5,4.4,247.24,72.59,7.48,0.4,67.842,,,,NaN,,,,0 / 0,5758,2014-12-14 04:36:13:973
2.942,-7.0804,0.8924,0.4192,-9.3653,2.8785,2.8366,2.2849,-1.9273,0.3958,-0.1979,-0.1845,4.0,15.3,-28.9,0.5,249.17,72.75,-8.29,0.4,67.842,,,,NaN,,,,0 / 0,5808,2014-12-14 04:36:14:023
3.7658,-6.5803,1.0591,0.5319,-9.3711,2.8409,3.2339,2.7908,-1.7817,0.1344,-0.182,-0.1161,4.0,14.9,-28.9,0.0,248.16,72.86,-10.6,0.4,67.842,,,,NaN,,,,0 / 0,5858,2014-12-14 04:36:14:073
2.0986,-5.4623,-0.1765,1.5028,-9.4484,2.1539,0.5958,3.9861,-2.3304,-0.4801,-0.5143,-0.1271,4.0,14.0,-28.5,0.0,248.16,72.86,-10.6,0.4,67.842,,,,NaN,,,,0 / 0,5908,2014-12-14 04:36:14:123
0.8434,-5.1093,0.2059,1.79,-9.5074,1.6049,-0.9466,4.3981,-1.399,-1.1264,0.7269,-0.1662,4.0,13.2,-27.6,2.9,304.69,75.81,-48.12,0.4,56.071,,,,NaN,,,,0 / 0,5958,2014-12-14 04:36:14:173
0.1961,-8.2866,0.2746,1.7525,-9.6336,0.5418,-1.5564,1.3469,-0.2672,-1.3451,-0.1662,-0.1857,4.0,13.2,-26.3,7.3,16.91,79.22,-72.82,0.4,56.071,,,,NaN,,,,0 / 0,6008,2014-12-14 04:36:14:223
0.2157,-8.5906,-0.2256,1.7163,-9.647,0.3999,-1.5006,1.0564,-0.6255,-1.3182,-0.3213,-0.1674,4.0,12.7,-26.3,7.8,16.91,79.22,-72.82,0.4,56.071,,,,NaN,,,,0 / 0,6058,2014-12-14 04:36:14:273
2.334,-11.8072,0.8924,1.499,-9.6406,-0.9907,0.8349,-2.1666,1.8831,-1.5015,-0.1625,-0.0696,4.0,11.9,-25.4,13.6,97.25,79.44,-123.46,0.4,56.071,,,,NaN,,,,0 / 0,6108,2014-12-14 04:36:14:323
4.8837,-3.0401,-2.7066,1.3529,-9.6591,1.0206,2.864,8.9923,-2.9329,-0.6781,-0.2517,0.4423,4.0,13.2,-25.9,11.2,4.44,80.05,-52.97,0.4,56.071,,,,NaN,,,,0 / 0,6158,2014-12-14 04:36:14:373
-4.3247,-13.7685,-2.7164,1.6295,-9.6642,0.3449,-5.9543,-4.1044,-3.0613,-0.4545,0.5473,0.1552,0.0,13.6,-25.9,13.6,42.13,80.22,-78.05,0.4,56.071,,,,NaN,,,,0 / 0,6207,2014-12-14 04:36:14:422
-1.9809,-11.4836,2.8145,0.4976,-9.7926,0.1686,-2.4786,-1.691,2.6459,0.5424,-0.7135,0.1222,0.0,14.5,-26.7,12.7,23.92,86.93,-71.28,0.4,56.071,,,,NaN,,,,0 / 0,6257,2014-12-14 04:36:14:472
2.5791,-7.9532,1.9613,0.3722,-9.7829,0.5717,2.2069,1.8297,1.3896,-0.0648,-0.0513,0.0538,0.0,14.5,-26.3,13.1,342.36,86.01,-33.07,0.4,56.071,,,,NaN,,,,0 / 0,6307,2014-12-14 04:36:14:522
2.5791,-7.9532,1.9613,0.3722,-9.7829,0.5717,2.2069,1.8297,1.3896,-0.0648,-0.0513,0.0538,0.0,14.5,-26.3,13.1,342.36,86.01,-33.07,0.4,56.071,,,,NaN,,,,0 / 0,6357,2014-12-14 04:36:14:572
-0.5001,-10.4833,1.7652,0.6573,-9.7578,0.7232,-1.1574,-0.7255,1.042,0.0012,0.3506,0.0929,0.0,14.5,-26.7,13.1,352.07,84.28,-42.27,0.4,56.071,,,,NaN,,,,0 / 0,6407,2014-12-14 04:36:14:622
-1.0983,-9.4928,1.4612,0.3946,-9.7624,0.8427,-1.4929,0.2696,0.6185,-0.0183,0.4252,0.0061,0.0,14.5,-26.7,14.1,334.99,84.56,-25.09,0.4,68.316,,,,NaN,,,,0 / 0,6458,2014-12-14 04:36:14:673
-0.4315,-9.8851,1.8044,0.2163,-9.7594,0.9364,-0.7851,-0.2237,0.721,0.0379,0.2395,-0.0037,0.0,14.5,-26.7,13.6,321.26,84.38,-13.01,0.4,68.316,,,,NaN,,,,0 / 0,6508,2014-12-14 04:36:14:723
0.2354,-10.4931,1.167,0.1226,-9.7495,1.0502,0.0637,0.4332,0.1854,0.1222,0.1442,0.0501,0.0,14.9,-26.3,14.1,313.84,83.81,-6.66,0.4,68.316,,,,NaN,,,,0 / 0,6558,2014-12-14 04:36:14:773
-0.2746,-10.1205,0.9709,0.216,-9.7465,1.0627,-0.059,-0.8447,0.016,0.0415,0.1833,-0.1368,0.0,14.5,-26.3,13.1,316.48,83.65,-11.49,0.4,68.316,,,,NaN,,,,0 / 0,6608,2014-12-14 04:36:14:823
-0.2844,-9.9636,0.9316,0.2561,-9.7509,1.0121,-0.5405,-0.2126,-0.0805,0.0024,0.0855,-0.0354,0.0,14.5,-25.9,13.6,322.33,83.89,-14.2,0.4,68.316,,,,NaN,,,,0 / 0,6658,2014-12-14 04:36:14:873
0.353,-9.7478,0.8826,0.2322,-9.7629,0.8958,0.1208,0.0151,-0.0132,-0.0208,0.0513,-0.0721,0.0,14.5,-25.9,13.6,323.33,84.59,-14.53,0.4,68.316,,,,NaN,,,,0 / 0,6708,2014-12-14 04:36:14:923
0.3138,-10.0126,1.52,0.3406,-9.7621,0.8694,-0.0268,-0.2505,0.6506,0.0037,0.1881,-0.0782,0.0,14.5,-25.9,13.1,323.33,84.59,-14.53,0.4,68.316,,,,NaN,,,,0 / 0,6758,2014-12-14 04:36:14:973
0.1275,-10.0126,1.1376,0.3816,-9.7561,0.9179,-0.2541,-0.2565,0.2197,0.0012,0.1038,-0.033,0.0,14.9,-25.4,13.1,329.66,84.18,-22.58,0.4,68.316,,,,NaN,,,,0 / 0,6807,2014-12-14 04:36:15:022
0.049,-10.0028,0.9512,0.3858,-9.7566,0.9114,-0.2191,-0.1187,-0.1759,0.011,0.0916,-0.0208,0.0,14.5,-26.3,13.6,329.66,84.18,-22.58,0.4,68.316,,,,NaN,,,,0 / 0,6857,2014-12-14 04:36:15:072
0.3138,-10.042,1.0885,0.3961,-9.7642,0.8215,-0.0823,-0.2779,0.2671,0.0464,-0.1112,-0.044,0.0,14.5,-25.9,14.1,334.87,84.47,-24.92,0.4,68.316,,,,NaN,,,,0 / 0,6907,2014-12-14 04:36:15:122
0.3923,-9.9734,1.1082,0.4019,-9.7636,0.8256,-0.0096,-0.2098,0.2826,0.0929,-0.0171,-0.0379,0.0,14.0,-25.9,14.1,338.26,84.63,-25.96,0.4,52.74,,,,NaN,,,,0 / 0,6957,2014-12-14 04:36:15:172
0.2256,-9.8459,0.7747,0.4233,-9.7615,0.8393,-0.1978,-0.0844,-0.0645,-0.0244,0.16,0.0183,0.0,14.5,-26.3,13.6,338.26,84.63,-25.96,0.4,52.74,,,,NaN,,,,0 / 0,7007,2014-12-14 04:36:15:222
0.2354,-10.042,1.0199,0.4235,-9.7639,0.8109,-0.1881,-0.2781,0.2089,-0.0024,0.0574,-0.0037,0.0,14.5,-25.9,13.6,337.97,84.65,-27.57,0.4,52.74,,,,NaN,,,,0 / 0,7057,2014-12-14 04:36:15:272
0.1765,-10.0028,1.1866,0.4265,-9.7637,0.8114,-0.25,-0.2391,0.3753,0.0379,-0.0538,0.0024,0.0,14.5,-25.9,14.1,337.97,84.65,-27.57,0.4,52.74,,,,NaN,,,,0 / 0,7129,2014-12-14 04:36:15:344