ACCELEROMETER X (m/s²),ACCELEROMETER Y (m/s²),ACCELEROMETER Z (m/s²),GRAVITY X (m/s²),GRAVITY Y (m/s²),GRAVITY Z (m/s²),LINEAR ACCELERATION X (m/s²),LINEAR ACCELERATION Y (m/s²),LINEAR ACCELERATION Z (m/s²),GYROSCOPE X (rad/s),GYROSCOPE Y (rad/s),GYROSCOPE Z (rad/s),LIGHT (lux),MAGNETIC FIELD X (μT),MAGNETIC FIELD Y (μT),MAGNETIC FIELD Z (μT),ORIENTATION X (°),ORIENTATION Y (°),ORIENTATION Z (°),PROXIMITY (i),SOUND LEVEL (dB),LOCATION Latitude : ,LOCATION Longitude : ,LOCATION Altitude ( m),LOCATION Altitude-google ( m),LOCATION Speed ( Kmh),LOCATION Accuracy ( m),LOCATION ORIENTATION (°),Satellites in range,Time since start in ms ,YYYY-MO-DD HH-MI-SS_SSS
0.1373,-9.9636,0.2256,0.5237,-9.7926,0.0143,-0.3864,-0.1709,0.2112,0.0318,-0.011,-0.0012,0.0,37.1,8.2,37.0,43.15,86.94,-88.43,0.4,57.33,,,,NaN,,,,0 / 0,9,2014-12-14 04:39:51:934
0.1569,-9.9636,0.1961,0.5176,-9.793,0.0083,-0.4195,-0.1412,0.1977,0.0293,-0.0024,0.011,0.0,37.6,8.2,36.6,43.15,86.94,-88.43,0.4,57.33,,,,NaN,,,,0 / 0,58,2014-12-14 04:39:51:983
0.1569,-9.9145,0.2452,0.5187,-9.7929,0.0049,-0.3618,-0.1216,0.2402,0.0342,-0.0183,0.0037,0.0,37.1,8.6,36.6,44.13,86.97,-89.46,0.4,57.33,,,,NaN,,,,0 / 0,108,2014-12-14 04:39:52:033
0.1275,-9.9341,0.2354,0.5186,-9.7929,6.0E-4,-0.3911,-0.1412,0.2347,0.0318,-0.0134,0.0061,0.0,37.1,8.2,37.0,44.65,86.97,-89.93,0.4,57.33,,,,NaN,,,,0 / 0,159,2014-12-14 04:39:52:084
0.1765,-9.9341,0.2648,0.5198,-9.7929,-0.0118,-0.3911,-0.1412,0.2347,0.0318,-0.0134,0.0061,0.0,37.1,8.2,37.0,44.65,86.97,-89.93,0.4,57.33,,,,NaN,,,,0 / 0,209,2014-12-14 04:39:52:134
0.1079,-9.9439,0.4609,0.5261,-9.7925,-0.0028,-0.4183,-0.1514,0.4637,0.0232,0.0086,-0.0159,0.0,37.1,8.2,36.1,44.23,86.92,-90.3,0.4,57.33,,,,NaN,,,,0 / 0,259,2014-12-14 04:39:52:184
0.1373,-9.9439,0.7061,0.5318,-9.7922,0.0241,-0.3945,-0.1518,0.682,0.0012,0.0305,-0.0195,0.0,36.7,8.2,37.5,43.53,86.92,-89.57,0.4,57.33,,,,NaN,,,,0 / 0,308,2014-12-14 04:39:52:233
0.1373,-9.9439,0.7061,0.5318,-9.7922,0.0241,-0.3945,-0.1518,0.682,0.0012,0.0305,-0.0195,0.0,36.7,8.2,37.5,43.53,86.92,-89.57,0.4,57.33,,,,NaN,,,,0 / 0,370,2014-12-14 04:39:52:295
0.0588,-9.9145,0.3334,0.5404,-9.7915,0.0735,-0.4816,-0.1231,0.2599,-0.0916,0.11,-0.0806,0.0,37.1,8.6,37.0,36.97,86.81,-82.26,0.4,57.33,,,,NaN,,,,0 / 0,408,2014-12-14 04:39:52:333
-0.7257,-9.9047,0.0883,0.5461,-9.7912,-0.0654,-1.3404,-0.3489,-0.2876,-0.1759,0.3885,-0.1393,0.0,36.7,8.2,38.5,36.97,86.81,-82.26,0.4,57.33,,,,NaN,,,,0 / 0,459,2014-12-14 04:39:52:384
-0.3236,-9.993,0.6963,0.4738,-9.7933,-0.1939,-0.7974,-0.1997,0.8902,-0.0611,0.0513,-0.2126,0.0,35.8,8.2,39.5,67.1,86.96,-110.2,0.4,57.33,,,,NaN,,,,0 / 0,508,2014-12-14 04:39:52:433
-0.4413,-9.9538,0.4413,0.5503,-9.791,-0.0661,-0.9916,-0.1628,0.5074,-0.0831,0.2211,-0.2566,0.0,34.5,8.6,40.5,55.96,86.76,-96.85,0.4,36.954,,,,NaN,,,,0 / 0,558,2014-12-14 04:39:52:483
-0.9414,-10.297,1.4024,0.5645,-9.7902,0.0571,-1.5059,-0.5068,1.3453,0.0037,0.1063,-0.4081,0.0,33.2,9.5,40.9,45.0,86.68,-84.23,0.4,36.954,,,,NaN,,,,0 / 0,609,2014-12-14 04:39:52:534
-1.3141,-10.6696,2.1378,0.5645,-9.7894,0.1376,-1.81,-0.8018,1.7649,0.0843,0.1014,-0.4019,0.0,31.9,9.5,40.9,45.0,86.68,-84.23,0.4,36.954,,,,NaN,,,,0 / 0,658,2014-12-14 04:39:52:583
-0.7061,-9.4242,2.2163,0.3493,-9.7329,1.1489,-0.6828,0.1027,-0.1192,0.7844,-0.1943,0.0403,0.0,32.3,12.1,37.0,7.93,86.0,-46.0,0.4,36.954,,,,NaN,,,,0 / 0,709,2014-12-14 04:39:52:634
-0.7061,-9.4242,2.2163,0.3493,-9.7329,1.1489,-0.6828,0.1027,-0.1192,0.7844,-0.1943,0.0403,0.0,32.3,12.1,37.0,7.93,86.0,-46.0,0.4,36.954,,,,NaN,,,,0 / 0,759,2014-12-14 04:39:52:684
2.3438,-12.121,-0.5394,0.4738,-9.7101,1.2883,1.87,-2.4109,-1.8276,0.7208,-1.1961,0.1979,0.0,35.4,13.0,30.7,328.61,81.9,-14.41,0.4,36.954,,,,NaN,,,,0 / 0,809,2014-12-14 04:39:52:734
2.2065,-9.4928,0.657,0.9052,-9.6788,1.293,1.3013,0.186,-0.636,0.6121,-0.1881,0.1417,0.0,38.0,13.4,24.4,338.01,80.74,-34.99,0.4,36.954,,,,NaN,,,,0 / 0,859,2014-12-14 04:39:52:784
2.383,-9.081,0.4119,1.0512,-9.6613,1.3135,1.0278,1.0118,-0.8428,0.1613,-0.2211,0.1197,0.0,40.2,13.4,22.4,338.01,80.74,-34.99,0.4,36.954,,,,NaN,,,,0 / 0,909,2014-12-14 04:39:52:834
0.7943,-8.316,0.8728,1.2429,-9.6533,1.1995,-0.4485,1.3373,-0.3267,0.1112,-0.325,0.0635,0.0,40.2,13.0,22.9,346.38,79.86,-46.02,0.4,36.954,,,,NaN,,,,0 / 0,959,2014-12-14 04:39:52:884
0.6767,-7.6786,1.2553,1.2786,-9.6595,1.1093,-0.602,1.9808,0.146,-0.1723,-0.1381,-0.0476,0.0,40.2,13.4,21.9,346.38,79.86,-46.02,0.4,44.85,,,,NaN,,,,0 / 0,1008,2014-12-14 04:39:52:933
1.5887,-7.6786,1.6083,1.3546,-9.6644,0.9673,0.234,1.9857,0.641,-0.3995,0.0159,0.0464,0.0,40.2,13.4,23.4,347.88,80.14,-49.72,0.4,44.85,,,,NaN,,,,0 / 0,1058,2014-12-14 04:39:52:983
1.4906,-7.7963,1.5495,1.4168,-9.6584,0.9377,0.234,1.9857,0.641,-0.38,0.0159,0.055,0.0,40.2,13.4,23.4,347.88,80.14,-49.72,0.4,44.85,,,,NaN,,,,0 / 0,1108,2014-12-14 04:39:53:033
1.5004,-7.8649,1.3925,1.4731,-9.6536,0.8988,0.0346,1.7934,0.5333,-0.3445,0.0721,0.0819,0.0,39.7,13.4,24.4,357.55,80.02,-56.5,0.4,44.85,,,,NaN,,,,0 / 0,1159,2014-12-14 04:39:53:084
0.5099,-6.6489,2.3242,1.5565,-9.642,0.8828,-1.0466,2.9931,1.4414,-0.347,0.0171,0.0672,0.0,40.6,13.4,25.8,2.73,79.49,-60.44,0.4,44.85,,,,NaN,,,,0 / 0,1209,2014-12-14 04:39:53:134
0.255,-6.4626,2.3144,1.554,-9.6399,0.9096,-1.2991,3.1773,1.4048,-0.347,0.0171,0.0672,0.0,39.7,13.4,26.3,2.73,79.49,-60.44,0.4,44.85,,,,NaN,,,,0 / 0,1258,2014-12-14 04:39:53:183
-0.255,-6.8058,1.5985,1.2557,-9.6724,1.0191,-1.5106,2.8666,0.5794,-0.6695,0.0183,0.1075,0.0,39.7,12.6,27.8,356.05,80.51,-50.94,0.4,44.85,,,,NaN,,,,0 / 0,1308,2014-12-14 04:39:53:233
1.6475,-16.6517,1.9123,1.1751,-9.6916,0.9283,1.9238,-8.2447,-1.9874,-0.4374,-0.4545,-0.1723,0.0,38.4,11.7,30.7,0.88,81.22,-51.69,0.4,44.85,,,,NaN,,,,0 / 0,1359,2014-12-14 04:39:53:284
-0.9512,-17.1126,-1.9809,1.1795,-9.7335,0.1958,-0.9246,-4.496,-3.736,-0.5156,0.6671,0.3433,0.0,38.9,10.8,31.7,29.38,83.0,-80.57,0.4,54.206,,,,NaN,,,,0 / 0,1409,2014-12-14 04:39:53:334
0.814,-14.8963,1.471,0.8178,-9.7725,0.02,-0.0038,-5.1238,1.451,-0.5156,0.6671,0.3433,0.0,38.9,10.8,31.7,29.38,83.0,-80.57,0.4,54.206,,,,NaN,,,,0 / 0,1458,2014-12-14 04:39:53:383
-0.7551,-10.7677,-5.6977,1.1483,-9.713,-0.7135,-1.9034,-1.0547,-4.9842,-1.3073,1.2498,-0.2896,0.0,38.9,9.1,32.2,14.52,85.35,-68.51,0.4,54.206,,,,NaN,,,,0 / 0,1508,2014-12-14 04:39:53:433
-1.775,-11.6013,-4.4228,1.1671,-9.6801,-1.0511,-2.9421,-1.9212,-3.3717,-0.8479,0.4862,-0.011,0.0,38.0,8.2,37.0,84.91,80.78,-132.01,0.4,54.206,,,,NaN,,,,0 / 0,1559,2014-12-14 04:39:53:484
0.4707,-8.5122,1.1866,0.6367,-9.6319,-1.7296,-0.1659,1.1197,2.9162,-0.5168,0.2358,-0.044,0.0,37.6,7.3,40.9,115.33,79.17,-159.79,0.4,54.206,,,,NaN,,,,0 / 0,1609,2014-12-14 04:39:53:534
-1.4318,-8.1199,2.9322,0.7781,-9.6777,-1.3808,-2.2099,1.5578,4.313,-0.0318,0.1784,-0.226,0.0,37.1,7.3,41.4,107.18,80.7,-150.6,0.4,54.206,,,,NaN,,,,0 / 0,1659,2014-12-14 04:39:53:584
-1.9025,-8.8848,1.7162,0.4406,-9.7887,-0.3975,-2.3431,0.9039,2.1137,0.7453,-0.1246,-0.1271,0.0,36.7,7.8,38.0,107.18,80.7,-150.6,0.4,54.206,,,,NaN,,,,0 / 0,1709,2014-12-14 04:39:53:634
-0.0098,-5.9919,1.2945,0.388,-9.7964,-0.2263,-0.4781,3.995,1.505,0.8858,-0.0782,-0.3128,0.0,36.3,8.2,35.6,74.87,87.37,-120.25,0.4,54.206,,,,NaN,,,,0 / 0,1759,2014-12-14 04:39:53:684
-0.0098,-5.9919,1.2945,0.4649,-9.7856,0.4421,-0.4781,3.995,1.505,0.8858,-0.0782,-0.3128,0.0,36.3,8.2,35.6,74.87,87.37,-120.25,0.4,54.206,,,,NaN,,,,0 / 0,1808,2014-12-14 04:39:53:733
-1.471,-7.8551,-0.5001,0.6284,-9.7627,0.6824,-2.0994,1.9075,-1.1826,0.4777,0.1613,-0.474,0.0,31.9,8.2,28.8,353.57,85.43,-41.96,0.4,54.206,,,,NaN,,,,0 / 0,1859,2014-12-14 04:39:53:784
-1.9907,-10.3362,-0.255,0.5473,-9.7664,0.6983,0.0045,-9.1117,2.0027,0.4777,0.1613,-0.474,0.0,31.9,8.2,28.8,353.57,85.43,-41.96,0.4,54.206,,,,NaN,,,,0 / 0,1909,2014-12-14 04:39:53:834
1.3729,-18.7307,3.2754,0.0862,-9.7238,1.2691,1.2867,-9.0069,2.0063,1.9328,-1.3024,0.4362,0.0,32.8,7.3,19.5,305.97,82.55,-3.89,0.4,62.342,,,,NaN,,,,0 / 0,1958,2014-12-14 04:39:53:883
3.4716,-17.9952,-0.3923,0.2117,-9.5477,2.2289,3.2599,-8.4476,-2.6212,2.1771,-1.2792,0.9249,0.0,34.5,6.5,10.7,294.61,76.8,-5.43,0.4,62.342,,,,NaN,,,,0 / 0,2009,2014-12-14 04:39:53:934
2.638,-16.3183,-1.7652,0.3012,-9.5187,2.3396,3.2599,-8.4476,-2.6212,2.1771,-1.2792,0.9249,0.0,34.5,6.5,10.7,294.61,76.8,-5.43,0.4,62.342,,,,NaN,,,,0 / 0,2059,2014-12-14 04:39:53:984
1.5593,-9.4536,0.5786,0.3252,-9.5241,2.3141,1.2341,0.0705,-1.7356,0.7196,-0.6463,0.7978,0.0,38.4,3.9,2.4,282.11,76.21,-8.0,0.4,62.342,,,,NaN,,,,0 / 0,2109,2014-12-14 04:39:54:034
2.7361,-3.7756,-1.5495,0.434,-9.59,2.0033,0.4093,3.8728,-3.3468,-0.1515,-0.474,0.0965,0.0,38.9,3.4,1.9,285.73,77.94,-12.22,0.4,62.342,,,,NaN,,,,0 / 0,2158,2014-12-14 04:39:54:083
2.9126,-3.55,-1.5593,0.8025,-9.7176,1.0463,2.1101,6.1676,-2.6056,-1.08,0.0354,-0.0623,0.0,38.4,4.7,5.3,315.43,82.27,-37.49,0.4,62.342,,,,NaN,,,,0 / 0,2208,2014-12-14 04:39:54:133
1.9417,-3.2558,-1.2651,1.4458,-9.6993,-0.056,0.4959,6.4435,-1.2091,-1.3011,-0.6487,-0.3543,0.0,37.1,4.7,8.3,315.43,82.27,-37.49,0.4,62.342,,,,NaN,,,,0 / 0,2259,2014-12-14 04:39:54:184
2.2359,-3.1283,-0.6865,1.5435,-9.6802,-0.287,0.6924,6.5519,-0.3995,-1.3647,-0.7819,-0.3897,0.0,36.3,5.2,10.2,25.81,80.79,-100.53,0.4,62.342,,,,NaN,,,,0 / 0,2308,2014-12-14 04:39:54:233
1.8633,-10.2185,5.5113,1.3064,-9.675,-0.9265,0.5569,-0.5435,6.4378,-0.5974,1.8607,0.5571,0.0,35.0,3.9,16.6,59.37,78.47,-126.97,0.4,62.342,,,,NaN,,,,0 / 0,2358,2014-12-14 04:39:54:283
2.5301,-4.3149,2.3536,1.3456,-9.7099,0.2779,1.518,4.2476,-0.0622,-0.2712,0.8784,0.0648,0.0,35.0,2.6,19.5,18.06,81.95,-78.33,0.4,62.342,,,,NaN,,,,0 / 0,2408,2014-12-14 04:39:54:333
2.2948,-9.7282,-0.0981,1.4343,-9.6941,0.3722,0.8605,-0.0341,-0.4703,-0.7514,0.0562,-0.1197,0.0,32.5,-3.9,-6.5,18.06,81.95,-78.33,0.4,62.342,,,,NaN,,,,0 / 0,2458,2014-12-14 04:39:54:383
-1.2749,-13.0625,-0.9709,1.3311,-9.7136,0.2119,-2.606,-3.3489,-1.1828,-0.9456,-1.2266,-0.0709,0.0,31.6,-4.7,-5.5,347.03,80.48,-86.41,0.4,57.264,,,,NaN,,,,0 / 0,2509,2014-12-14 04:39:54:434
-3.0401,-19.0249,1.2749,0.9525,-9.76,0.0767,-3.9925,-9.2649,1.1981,-0.0195,-0.0159,0.1527,0.0,32.5,-6.1,-6.5,347.03,80.48,-86.41,0.4,57.264,,,,NaN,,,,0 / 0,2558,2014-12-14 04:39:54:483
-5.3348,-19.5152,2.0594,0.8977,-9.7645,0.139,-6.2325,-9.7507,1.9204,0.5901,-0.0623,0.6512,0.0,32.5,-6.9,-7.5,338.74,84.68,-81.2,0.4,57.264,,,,NaN,,,,0 / 0,2608,2014-12-14 04:39:54:533
3.5696,-7.6296,-4.3149,0.463,-9.7719,0.6833,3.1066,2.1423,-4.9982,0.617,0.2724,-0.2016,0.0,33.4,-7.4,-10.4,338.74,84.68,-81.2,0.4,57.264,,,,NaN,,,,0 / 0,2659,2014-12-14 04:39:54:584
-1.0493,-14.102,-4.2071,0.463,-9.7719,0.6833,3.1066,2.1423,-4.9982,-1.7862,1.1448,-0.43,0.0,33.4,-7.4,-10.4,338.74,84.68,-81.2,0.4,57.264,,,,NaN,,,,0 / 0,2709,2014-12-14 04:39:54:634
-4.2757,-14.0627,-3.0597,1.0888,-9.7402,-0.3377,-2.1381,-4.3618,-3.8694,-1.4209,1.1729,-0.1894,0.0,30.8,-7.4,-4.6,8.34,83.32,-107.23,0.4,57.264,,,,NaN,,,,0 / 0,2759,2014-12-14 04:39:54:684
-4.2757,-14.0627,-3.0597,1.0888,-9.7402,-0.3377,-2.1381,-4.3618,-3.8694,-1.4209,1.1729,-0.1894,0.0,30.8,-7.4,-4.6,8.34,83.32,-107.23,0.4,57.264,,,,NaN,,,,0 / 0,2808,2014-12-14 04:39:54:733
-2.3634,-9.7086,0.9218,0.7242,-9.7442,-0.8342,-3.0876,0.0356,1.756,-0.3677,-0.336,-0.11,0.0,30.8,-6.9,-2.1,46.59,83.53,-139.04,0.4,57.264,,,,NaN,,,,0 / 0,2859,2014-12-14 04:39:54:784
-1.8633,-8.826,2.6184,0.7589,-9.7027,-1.2048,-2.6221,0.8767,3.8232,-0.27,0.2663,-0.1332,0.0,28.6,-6.9,0.3,59.81,81.65,-147.8,0.4,57.264,,,,NaN,,,,0 / 0,2909,2014-12-14 04:39:54:834
0.5982,-6.139,2.6576,0.5768,-9.7728,-0.5752,0.0214,3.6338,3.2328,0.6988,0.2236,-0.2651,0.0,26.9,-6.9,0.8,48.06,85.23,-134.92,0.4,57.264,,,,NaN,,,,0 / 0,2958,2014-12-14 04:39:54:883
-0.2354,-5.6682,-0.8728,0.9567,-9.7573,0.222,-1.1921,4.0891,-1.0948,0.4191,0.3848,-0.4459,0.0,25.1,-7.4,-2.6,48.06,85.23,-134.92,0.4,57.264,,,,NaN,,,,0 / 0,3008,2014-12-14 04:39:54:933
-4.0796,-13.7097,3.197,0.6091,-9.7803,0.3805,-4.6887,-3.9294,2.8165,1.1106,-0.1613,0.0244,0.0,21.6,-7.4,-5.5,314.19,85.8,-58.01,0.4,57.264,,,,NaN,,,,0 / 0,3059,2014-12-14 04:39:54:984
-3.9129,-15.3964,4.0992,0.4066,-9.7821,0.5619,-4.3194,-5.6143,3.5373,1.3903,-0.4691,0.3274,0.0,21.6,-8.2,-6.5,314.19,85.8,-58.01,0.4,57.264,,,,NaN,,,,0 / 0,3109,2014-12-14 04:39:55:034
3.4323,-13.2194,0.049,-0.0138,-9.4835,2.4965,3.4461,-3.7358,-2.4475,1.6383,-0.5046,0.8161,0.0,25.1,-10.8,-20.7,234.72,80.77,7.4,0.4,63.594,,,,NaN,,,,0 / 0,3158,2014-12-14 04:39:55:083
3.4323,-13.2194,0.049,-0.0138,-9.4835,2.4965,3.4461,-3.7358,-2.4475,1.6383,-0.5046,0.8161,0.0,25.1,-10.8,-20.7,234.72,80.77,7.4,0.4,63.594,,,,NaN,,,,0 / 0,3208,2014-12-14 04:39:55:133
0.4805,-7.6002,-0.2746,0.2695,-9.5726,2.1128,0.211,1.9724,-2.3874,-0.358,-0.0721,-0.0134,0.0,26.9,-10.8,-21.6,229.64,75.78,-3.71,0.4,63.594,,,,NaN,,,,0 / 0,3259,2014-12-14 04:39:55:184
3.2362,-4.1482,-0.9905,0.98,-9.7105,0.9574,2.3248,7.0235,-2.3009,-1.0715,-0.0232,-0.4032,0.0,24.7,-9.5,-16.8,278.99,81.97,-45.67,0.4,63.594,,,,NaN,,,,0 / 0,3308,2014-12-14 04:39:55:233
2.6576,-2.5301,-1.4122,1.7109,-9.6548,0.1698,0.9467,7.1246,-1.5819,-1.2034,-0.1588,-0.7147,0.0,22.5,-10.0,-13.8,320.16,79.9,-84.33,0.4,63.594,,,,NaN,,,,0 / 0,3359,2014-12-14 04:39:55:284
1.0689,-3.8638,0.6669,2.2377,-9.5331,-0.5315,-1.1688,5.6693,1.1983,-1.7886,-0.8027,-0.7685,0.0,20.8,-10.0,-11.4,320.16,79.9,-84.33,0.4,63.594,,,,NaN,,,,0 / 0,3409,2014-12-14 04:39:55:334
-2.2065,-12.0328,2.3634,2.1355,-9.5125,-1.0593,-4.342,-2.5203,3.4227,-1.5736,0.5388,0.2517,0.0,20.3,-10.0,-8.0,5.34,75.93,-116.38,0.4,63.594,,,,NaN,,,,0 / 0,3458,2014-12-14 04:39:55:383
0.7159,-7.3354,6.2468,1.3935,-9.7071,-0.0285,-0.6776,2.3717,6.2753,-0.4594,-0.744,-0.1906,0.0,19.9,-10.8,-6.5,5.34,75.93,-116.38,0.4,63.594,,,,NaN,,,,0 / 0,3509,2014-12-14 04:39:55:434
-0.0098,-13.9745,-5.0406,1.6102,-9.6358,0.8544,-1.62,-4.3387,-5.895,0.573,-0.7868,0.3848,0.0,18.2,-12.1,-6.0,344.19,81.83,-91.17,0.4,63.594,,,,NaN,,,,0 / 0,3559,2014-12-14 04:39:55:484
0.1667,-10.6696,-3.6579,1.3886,-9.685,0.6651,-1.2219,-0.9846,-4.3229,0.193,1.2388,0.5596,0.0,18.6,-12.1,-6.0,312.5,80.97,-64.41,0.4,63.594,,,,NaN,,,,0 / 0,3609,2014-12-14 04:39:55:534
0.4903,-15.4847,1.3729,1.1186,-9.7365,-0.3459,-6.3749,-8.7686,0.0419,0.8406,0.2224,0.4508,0.0,19.0,-13.0,-4.1,312.5,80.97,-64.41,0.4,56.635,,,,NaN,,,,0 / 0,3658,2014-12-14 04:39:55:583
2.8733,-9.5223,-5.3054,0.7873,-9.7748,-0.0678,2.086,0.2525,-5.2376,0.5559,-0.2089,0.011,0.0,19.5,-13.4,-5.1,349.57,86.46,-94.03,0.4,56.635,,,,NaN,,,,0 / 0,3709,2014-12-14 04:39:55:634
-1.5495,-9.9538,1.0003,0.7873,-9.7748,-0.0678,2.086,0.2525,-5.2376,-1.1362,1.4441,-0.5486,0.0,18.2,-13.4,-3.1,349.57,86.46,-94.03,0.4,56.635,,,,NaN,,,,0 / 0,3759,2014-12-14 04:39:55:684
-0.2059,-8.8946,1.2945,1.1462,-9.5184,-2.0633,-1.3521,0.6238,3.3577,-0.7575,0.2419,-0.1686,0.0,16.9,-13.4,3.7,84.93,76.07,-150.95,0.4,56.635,,,,NaN,,,,0 / 0,3808,2014-12-14 04:39:55:733
-2.1771,-7.4236,3.5794,1.0792,-9.6265,-1.5286,-3.2562,2.2029,5.108,0.2712,0.1552,-0.1527,0.0,15.6,-14.3,5.7,84.56,79.0,-144.78,0.4,56.635,,,,NaN,,,,0 / 0,3858,2014-12-14 04:39:55:783
1.1082,-7.9042,2.0888,0.6819,-9.782,-0.1362,0.4262,1.8778,2.225,1.4331,-0.1246,-0.0281,0.0,15.6,-13.9,2.3,19.65,85.93,-101.3,0.4,56.635,,,,NaN,,,,0 / 0,3908,2014-12-14 04:39:55:833
0.559,-4.4228,-3.4912,1.0039,-9.7407,0.5307,-0.445,5.3179,-4.0219,0.7135,0.3787,-0.4227,0.0,15.1,-13.4,-1.1,324.83,83.35,-62.14,0.4,56.635,,,,NaN,,,,0 / 0,3959,2014-12-14 04:39:55:884
-2.3046,-8.3553,0.5296,1.3385,-9.7067,-0.3994,-3.6431,1.3514,0.9289,-0.551,0.507,-0.5424,0.0,13.0,-14.3,0.3,324.83,83.35,-62.14,0.4,56.635,,,,NaN,,,,0 / 0,4009,2014-12-14 04:39:55:934
-4.5895,-12.4446,2.3928,1.3087,-9.7081,-0.4598,-5.8982,-2.7366,2.8526,-0.0391,0.3592,-0.1845,0.0,13.4,-15.2,0.8,28.45,81.87,-109.36,0.4,64.51,,,,NaN,,,,0 / 0,4058,2014-12-14 04:39:55:983
1.7848,-19.123,3.2558,-0.1633,-9.7311,1.2042,1.9481,-9.3919,2.0516,2.149,-1.6493,0.3604,0.0,15.6,-15.2,-4.1,242.64,82.88,7.72,0.4,64.51,,,,NaN,,,,0 / 0,4108,2014-12-14 04:39:56:033
3.4617,-18.8484,2.1182,-0.1742,-9.6948,1.4663,3.636,-9.1535,0.6519,2.2956,-0.6781,0.7807,0.0,17.7,-15.6,-9.9,242.64,82.88,7.72,0.4,64.51,,,,NaN,,,,0 / 0,4159,2014-12-14 04:39:56:084
2.7949,-11.0717,-0.1667,0.1884,-9.4986,2.4312,2.6065,-1.5731,-2.5979,0.3421,-0.237,0.6109,0.0,21.6,-16.9,-16.3,228.74,75.55,-3.76,0.4,64.51,,,,NaN,,,,0 / 0,4209,2014-12-14 04:39:56:134
0.5099,-7.5119,-0.7159,0.1884,-9.4986,2.4312,2.6065,-1.5731,-2.5979,0.3421,-0.237,0.6109,4.0,21.6,-16.9,-16.3,228.74,75.55,-3.76,0.4,64.51,,,,NaN,,,,0 / 0,4259,2014-12-14 04:39:56:184
0.5099,-7.5119,-0.7159,0.3451,-9.5868,2.0357,0.9985,3.1439,-2.9674,-0.1429,-0.628,0.0147,4.0,22.1,-17.4,-16.8,236.28,77.85,-9.62,0.4,64.51,,,,NaN,,,,0 / 0,4309,2014-12-14 04:39:56:234
3.2558,-3.7461,-1.5691,1.3346,-9.7003,0.5422,1.9212,5.9541,-2.1112,-1.2205,0.1918,-0.1625,4.0,21.6,-16.9,-10.9,274.33,81.63,-39.27,0.4,64.51,,,,NaN,,,,0 / 0,4358,2014-12-14 04:39:56:283
3.2558,-3.7461,-1.5691,1.3346,-9.7003,0.5422,1.9212,5.9541,-2.1112,-1.328,0.0428,-0.496,4.0,21.6,-16.9,-10.9,274.33,81.63,-39.27,0.4,64.51,,,,NaN,,,,0 / 0,4408,2014-12-14 04:39:56:333
-0.4217,-4.9426,1.9417,2.1807,-9.5439,-0.5737,-2.6024,4.6013,2.5155,-1.73,-0.7587,-0.6842,4.0,20.8,-16.5,-7.0,355.42,76.71,-104.74,0.4,64.51,,,,NaN,,,,0 / 0,4473,2014-12-14 04:39:56:398
-0.5492,-9.9047,4.0501,1.5989,-9.6505,-0.6935,-2.1481,-0.2542,4.7437,-0.6597,1.0287,0.391,4.0,21.2,-17.4,-3.6,14.99,79.76,-113.45,0.4,58.888,,,,NaN,,,,0 / 0,4509,2014-12-14 04:39:56:434
0.8041,-4.3443,3.6677,1.2938,-9.7209,0.0082,-0.4897,5.3766,3.6595,-0.2981,0.898,0.1649,4.0,21.6,-18.2,-2.1,14.99,79.76,-113.45,0.4,58.888,,,,NaN,,,,0 / 0,4558,2014-12-14 04:39:56:483
2.5595,-8.1101,-1.0101,1.4362,-9.6958,0.3149,1.1233,1.5857,-1.325,-0.6964,0.4264,-0.1136,4.0,21.6,-19.1,-2.1,339.65,81.38,-77.63,0.4,58.888,,,,NaN,,,,0 / 0,4609,2014-12-14 04:39:56:534
0.8728,-15.4553,-3.9619,1.6497,-9.6635,0.2564,-0.7769,-5.7918,-4.2183,0.4704,0.4191,0.2065,4.0,22.5,-19.5,-1.6,339.65,81.38,-77.63,0.4,58.888,,,,NaN,,,,0 / 0,4659,2014-12-14 04:39:56:584
0.7943,-10.8952,-4.766,1.5106,-9.6893,0.0794,-0.7769,-5.7918,-4.2183,-0.7416,1.146,0.1552,4.0,22.5,-19.5,-1.6,339.65,81.38,-77.63,0.4,58.888,,,,NaN,,,,0 / 0,4710,2014-12-14 04:39:56:635
1.2651,-11.0815,-4.4914,1.5106,-9.6893,0.0794,-0.7162,-1.2059,-4.8454,-1.2792,0.9261,0.0171,4.0,22.5,-20.0,-1.1,353.56,81.13,-86.99,0.4,58.888,,,,NaN,,,,0 / 0,4758,2014-12-14 04:39:56:683
-8.8456,-19.2406,2.9028,0.379,-9.7893,-0.4437,-0.0012,-4.2251,-3.3813,-1.6212,0.5376,-0.0574,4.0,22.5,-20.8,-0.2,24.78,80.81,-110.99,0.4,58.888,,,,NaN,,,,0 / 0,4808,2014-12-14 04:39:56:733
5.5113,-10.346,-3.6481,0.4718,-9.7952,0.0497,5.0395,-0.5508,-3.6978,1.0336,-0.4019,-0.3189,4.0,25.1,-21.7,-1.6,348.93,87.23,-83.99,0.4,58.888,,,,NaN,,,,0 / 0,4859,2014-12-14 04:39:56:784
0.2059,-9.7086,2.3046,0.9448,-9.5374,-2.0774,4.4521,0.7753,-8.0388,-1.1777,2.5522,-0.5486,4.0,24.3,-21.3,-1.1,348.93,87.23,-83.99,0.4,58.888,,,,NaN,,,,0 / 0,4909,2014-12-14 04:39:56:834
0.2059,-9.7086,2.3046,0.9448,-9.5374,-2.0774,4.4521,0.7753,-8.0388,-1.1777,2.5522,-0.5486,4.0,24.3,-21.3,-1.1,348.93,87.23,-83.99,0.4,58.888,,,,NaN,,,,0 / 0,4958,2014-12-14 04:39:56:883
0.5099,-6.4528,0.1177,1.1093,-9.6942,-0.9812,-0.5994,3.2414,1.0989,0.7868,0.1979,-0.325,4.0,19.5,-21.3,3.2,58.03,81.31,-131.49,0.4,68.165,,,,NaN,,,,0 / 0,5140,2014-12-14 04:39:57:065
0.5099,-6.4528,0.1177,1.1093,-9.6942,-0.9812,-0.5994,3.2414,1.0989,0.7868,0.1979,-0.325,4.0,19.5,-21.3,3.2,58.03,81.31,-131.49,0.4,68.165,,,,NaN,,,,0 / 0,5145,2014-12-14 04:39:57:070
0.5099,-6.4528,0.1177,1.1093,-9.6942,-0.9812,-0.5994,3.2414,1.0989,0.7868,0.1979,-0.325,4.0,19.5,-21.3,3.2,58.03,81.31,-131.49,0.4,68.165,,,,NaN,,,,0 / 0,5147,2014-12-14 04:39:57:072
0.5099,-6.4528,0.1177,1.1093,-9.6942,-0.9812,-0.5994,3.2414,1.0989,0.7868,0.1979,-0.325,4.0,19.5,-21.3,3.2,58.03,81.31,-131.49,0.4,68.165,,,,NaN,,,,0 / 0,5158,2014-12-14 04:39:57:083
-1.3239,-10.3362,1.216,1.5673,-9.6424,-0.8588,-1.8384,3.3371,0.9982,0.6683,0.3274,-0.8369,4.0,14.7,-20.8,-0.7,55.27,81.7,-128.52,0.4,68.165,,,,NaN,,,,0 / 0,5208,2014-12-14 04:39:57:133
0.1569,-6.7274,0.049,1.5776,-9.6781,-0.1296,-1.3858,4.9846,-0.7269,0.3421,0.3567,-0.9994,4.0,13.8,-20.8,-0.7,33.87,79.5,-118.72,0.4,68.165,,,,NaN,,,,0 / 0,5259,2014-12-14 04:39:57:184
2.8439,-19.7212,1.6083,1.0684,-9.7171,0.7785,1.7755,-10.004,0.8298,1.8534,-0.5889,0.8589,4.0,12.1,-20.0,-7.0,33.87,79.5,-118.72,0.4,68.165,,,,NaN,,,,0 / 0,5309,2014-12-14 04:39:57:234
5.8153,-14.2294,-0.7159,0.6135,-9.6551,1.604,5.2019,-4.5743,-2.3199,1.6066,-0.3751,1.6921,4.0,16.4,-19.5,-14.8,240.49,79.91,-20.93,0.4,68.165,,,,NaN,,,,0 / 0,5358,2014-12-14 04:39:57:283
2.7361,-8.0022,-1.6867,0.6135,-9.6551,1.604,5.2019,-4.5743,-2.3199,1.6066,-0.3751,1.6921,4.0,16.4,-19.5,-14.8,240.49,79.91,-20.93,0.4,68.165,,,,NaN,,,,0 / 0,5408,2014-12-14 04:39:57:333
2.4222,-7.0608,-1.5396,0.7761,-9.6434,1.604,1.6462,2.5826,-3.1436,0.584,-0.4459,0.4362,4.0,19.5,-20.0,-19.2,245.66,79.53,-25.82,0.4,68.165,,,,NaN,,,,0 / 0,5459,2014-12-14 04:39:57:384
3.3245,-4.0501,-0.7453,1.1424,-9.6654,1.202,2.1821,5.6153,-1.9473,-0.1136,-0.2529,0.1148,4.0,19.9,-20.4,-19.7,245.66,79.53,-25.82,0.4,58.333,,,,NaN,,,,0 / 0,5509,2014-12-14 04:39:57:434
3.6873,-3.4225,-0.9316,1.5957,-9.6459,0.7619,2.0916,6.2234,-1.6936,-0.7428,-0.1381,-0.0012,4.0,19.0,-20.4,-18.7,281.61,79.61,-64.48,0.4,58.333,,,,NaN,,,,0 / 0,5559,2014-12-14 04:39:57:484
-0.1471,-5.5211,-0.7649,2.2257,-9.548,-0.2273,-2.3728,4.0269,-0.5376,-1.8057,-0.1991,-0.1429,4.0,18.6,-19.5,-14.3,322.18,76.81,-95.83,0.4,58.333,,,,NaN,,,,0 / 0,5608,2014-12-14 04:39:57:533
-1.5887,-16.279,4.1188,1.7976,-9.5846,-1.0363,-3.3862,-6.6944,5.1551,-1.179,0.3946,0.1442,4.0,18.6,-18.2,-8.5,8.99,77.78,-119.96,0.4,58.333,,,,NaN,,,,0 / 0,5659,2014-12-14 04:39:57:584
2.9714,-12.68,5.1681,1.3874,-9.708,-0.033,1.584,-2.972,5.2011,1.9853,-1.1631,-0.1393,0.0,18.2,-18.2,-11.4,325.76,81.86,-91.36,0.4,58.333,,,,NaN,,,,0 / 0,5709,2014-12-14 04:39:57:634
3.7461,-5.5408,-2.4713,1.4253,-9.6748,0.7324,2.3208,4.1341,-3.2037,1.5455,-0.6475,0.1063,0.0,18.6,-18.7,-13.3,325.76,81.86,-91.36,0.4,58.333,,,,NaN,,,,0 / 0,5758,2014-12-14 04:39:57:683
-3.9913,-11.5718,-3.3441,1.8873,-9.6177,-0.3285,-4.3574,-0.9182,-3.7591,-0.7343,0.7721,0.4801,0.0,19.5,-19.1,-11.4,296.62,80.6,-62.8,0.4,58.333,,,,NaN,,,,0 / 0,5808,2014-12-14 04:39:57:733
0.1373,-10.4637,2.9126,0.8246,-9.7651,-0.3643,-0.6873,-0.6986,3.2769,0.3519,-0.8051,-0.1649,0.0,19.5,-18.7,-10.4,357.02,84.73,-113.83,0.4,58.333,,,,NaN,,,,0 / 0,5859,2014-12-14 04:39:57:784
0.1373,-10.4637,2.9126,0.8246,-9.7651,-0.3643,-0.6873,-0.6986,3.2769,0.3519,-0.8051,-0.1649,0.0,19.5,-18.7,-10.4,357.02,84.73,-113.83,0.4,58.333,,,,NaN,,,,0 / 0,5909,2014-12-14 04:39:57:834
2.5595,-8.5416,2.0104,0.8067,-9.7733,-0.0401,1.7528,1.2317,2.0505,-0.0037,-0.4753,-0.0012,0.0,19.5,-18.7,-11.9,329.87,85.28,-92.85,0.4,58.333,,,,NaN,,,,0 / 0,5958,2014-12-14 04:39:57:883
0.1079,-9.7968,1.6671,0.8331,-9.771,0.0653,-0.7252,-0.0259,1.6018,-0.1808,0.204,-0.0122,0.0,19.9,-18.7,-9.9,328.91,83.67,-88.41,0.4,65.369,,,,NaN,,,,0 / 0,6009,2014-12-14 04:39:57:934
0.1275,-9.7674,1.4906,0.8034,-9.773,0.1182,-0.6759,0.0055,1.3724,-0.1564,-0.022,-0.055,0.0,19.5,-18.7,-9.0,324.94,85.25,-81.63,0.4,65.369,,,,NaN,,,,0 / 0,6059,2014-12-14 04:39:57:984
0.0098,-10.1008,0.6178,0.7407,-9.7766,0.1984,-0.7309,-0.3242,0.4194,-0.0757,0.2761,-0.0134,0.0,19.5,-18.7,-9.0,318.09,85.52,-75.0,0.4,65.369,,,,NaN,,,,0 / 0,6108,2014-12-14 04:39:58:033
0.2354,-9.7184,0.2746,0.6785,-9.7819,0.1551,-0.4431,0.0635,0.1195,-0.0867,0.0367,-0.0305,0.0,19.5,-18.7,-8.0,318.09,85.52,-75.0,0.4,65.369,,,,NaN,,,,0 / 0,6159,2014-12-14 04:39:58:084
0.0883,-9.9243,0.0981,0.6775,-9.7828,0.0936,-0.5893,-0.1416,0.0044,-0.1112,0.0024,-0.0782,0.0,19.5,-18.2,-8.0,328.52,86.0,-82.13,0.4,65.369,,,,NaN,,,,0 / 0,6209,2014-12-14 04:39:58:134
0.0588,-10.1401,0.4021,0.6537,-9.7848,-0.0199,-0.5949,-0.3553,0.422,-0.1014,0.1173,-0.0538,0.0,19.5,-18.7,-8.5,338.67,86.18,-91.74,0.4,65.369,,,,NaN,,,,0 / 0,6259,2014-12-14 04:39:58:184
0.353,-9.7282,0.3923,0.6298,-9.7863,-0.0387,-0.316,-0.0301,0.48,-0.0538,0.099,-0.0501,0.0,19.5,-19.1,-8.5,340.6,86.31,-93.52,0.4,65.369,,,,NaN,,,,0 / 0,6308,2014-12-14 04:39:58:233
0.2354,-10.091,0.5296,0.6456,-9.7849,-0.0997,-0.5603,0.5771,-0.2478,-0.1258,-0.1161,-0.0965,0.0,19.5,-19.1,-8.5,340.6,86.31,-93.52,0.4,65.369,,,,NaN,,,,0 / 0,6359,2014-12-14 04:39:58:284
0.255,-10.2872,0.5198,0.6407,-9.7846,-0.144,-0.3857,-0.5025,0.6637,0.1002,0.066,-0.0648,0.0,18.6,-18.7,-7.0,351.92,86.16,-102.67,0.4,65.369,,,,NaN,,,,0 / 0,6409,2014-12-14 04:39:58:334
0.3727,-9.8263,0.2354,0.6287,-9.7864,-0.028,-0.256,-0.0398,0.2633,0.0257,0.0929,-0.0367,0.0,18.2,-18.2,-7.0,340.09,86.32,-92.55,0.4,65.369,,,,NaN,,,,0 / 0,6458,2014-12-14 04:39:58:383
0.2648,-10.0224,0.2157,0.6495,-9.7848,-0.0844,-0.3848,-0.2376,0.3002,-0.0819,-0.0281,-0.0635,0.0,18.2,-18.2,-7.0,340.09,86.32,-92.55,0.4,65.369,,,,NaN,,,,0 / 0,6508,2014-12-14 04:39:58:433