ACCELEROMETER X (m/s²),ACCELEROMETER Y (m/s²),ACCELEROMETER Z (m/s²),GRAVITY X (m/s²),GRAVITY Y (m/s²),GRAVITY Z (m/s²),LINEAR ACCELERATION X (m/s²),LINEAR ACCELERATION Y (m/s²),LINEAR ACCELERATION Z (m/s²),GYROSCOPE X (rad/s),GYROSCOPE Y (rad/s),GYROSCOPE Z (rad/s),LIGHT (lux),MAGNETIC FIELD X (μT),MAGNETIC FIELD Y (μT),MAGNETIC FIELD Z (μT),ORIENTATION X (°),ORIENTATION Y (°),ORIENTATION Z (°),PROXIMITY (i),SOUND LEVEL (dB),LOCATION Latitude : ,LOCATION Longitude : ,LOCATION Altitude ( m),LOCATION Altitude-google ( m),LOCATION Speed ( Kmh),LOCATION Accuracy ( m),LOCATION ORIENTATION (°),Satellites in range,Time since start in ms ,YYYY-MO-DD HH-MI-SS_SSS
0.0294,-9.993,0.4021,0.364,-9.7984,0.1697,-0.3345,-0.1946,0.2323,0.0269,0.0232,0.0,0.0,36.3,6.0,37.0,20.88,87.62,-65.17,0.4,51.885,,,,NaN,,,,0 / 0,14,2014-12-14 04:37:14:732
-0.0686,-9.9734,0.4217,0.3693,-9.7981,0.1756,-0.4379,-0.1752,0.246,0.0342,-0.0061,-0.0012,0.0,37.1,6.0,37.0,19.49,87.61,-64.56,0.4,51.885,,,,NaN,,,,0 / 0,63,2014-12-14 04:37:14:781
0.0098,-9.9341,0.3923,0.3709,-9.798,0.1774,-0.3611,-0.1361,0.2149,0.0293,0.0012,0.0037,0.0,36.7,5.6,37.5,20.13,87.6,-64.44,0.4,51.885,,,,NaN,,,,0 / 0,114,2014-12-14 04:37:14:832
0.0294,-9.9636,0.3727,0.3706,-9.7981,0.1747,-0.3804,-0.1361,0.2764,0.0318,-0.0159,0.0,0.0,37.1,6.0,37.0,20.13,87.6,-64.44,0.4,51.885,,,,NaN,,,,0 / 0,163,2014-12-14 04:37:14:881
-0.0294,-9.9832,0.3923,0.383,-9.7975,0.1811,-0.383,-0.1661,0.1719,0.0183,-0.0024,0.0012,0.0,36.7,6.0,37.5,20.38,87.52,-64.7,0.4,51.885,,,,NaN,,,,0 / 0,214,2014-12-14 04:37:14:932
0.0686,-9.9538,0.3825,0.3883,-9.7975,0.1697,-0.3997,-0.1955,0.2147,0.011,-0.0037,0.0037,0.0,36.7,6.0,37.0,20.83,87.53,-65.16,0.4,51.885,,,,NaN,,,,0 / 0,264,2014-12-14 04:37:14:982
0.0,-9.993,0.4707,0.3876,-9.7976,0.1644,-0.3974,-0.1758,0.2181,0.0293,0.0024,-0.0049,0.0,36.7,6.0,37.0,21.93,87.54,-67.01,0.4,51.885,,,,NaN,,,,0 / 0,314,2014-12-14 04:37:15:032
0.049,-10.0028,0.4119,0.3848,-9.7976,0.1723,-0.3357,-0.2052,0.2396,0.0305,-0.0098,-0.0073,0.0,36.7,5.6,37.5,21.56,87.54,-65.88,0.4,35.336,,,,NaN,,,,0 / 0,363,2014-12-14 04:37:15:081
-0.0883,-10.0322,0.3923,0.3882,-9.7974,0.1745,-0.4764,-0.2348,0.2178,0.0269,-0.0049,0.0,0.0,36.7,5.6,37.0,21.56,87.54,-65.88,0.4,35.336,,,,NaN,,,,0 / 0,414,2014-12-14 04:37:15:132
-0.0883,-10.0322,0.3923,0.3882,-9.7974,0.1745,-0.4764,-0.2348,0.2178,0.0269,-0.0049,0.0,0.0,36.7,5.6,37.0,21.56,87.54,-65.88,0.4,35.336,,,,NaN,,,,0 / 0,464,2014-12-14 04:37:15:182
0.0,-9.9047,0.3825,0.3825,-9.7976,0.1757,-0.3825,-0.1071,0.2068,0.0159,-0.0208,-0.0134,0.0,36.7,5.6,38.0,21.01,87.54,-65.33,0.4,35.336,,,,NaN,,,,0 / 0,514,2014-12-14 04:37:15:232
0.0196,-9.9832,0.3923,0.394,-9.7972,0.1706,-0.3744,-0.1859,0.2217,0.0049,-0.0269,-0.0195,0.0,37.1,6.0,37.0,21.01,87.54,-65.33,0.4,35.336,,,,NaN,,,,0 / 0,564,2014-12-14 04:37:15:282
0.0392,-9.9439,0.4609,0.3961,-9.7973,0.165,-0.3569,-0.1467,0.2959,0.0195,-0.0195,-0.0086,0.0,36.7,5.6,37.5,23.06,87.49,-67.39,0.4,35.336,,,,NaN,,,,0 / 0,614,2014-12-14 04:37:15:332
0.0588,-9.993,0.5296,0.3959,-9.7971,0.1739,-0.337,-0.1959,0.3557,0.044,-0.0257,0.0086,0.0,36.3,5.6,37.0,21.98,87.47,-66.29,0.4,35.336,,,,NaN,,,,0 / 0,663,2014-12-14 04:37:15:381
0.1275,-9.9243,0.4903,0.4021,-9.7966,0.1869,-0.2747,-0.1277,0.3034,0.0098,-0.0318,-0.011,0.0,36.3,6.0,37.5,21.53,87.41,-65.07,0.4,35.336,,,,NaN,,,,0 / 0,713,2014-12-14 04:37:15:431
0.1471,-9.8753,0.4805,0.4267,-9.7956,0.1881,-0.2796,-0.0797,0.2924,-0.0049,-0.0134,-0.0464,0.0,36.7,6.0,38.0,21.53,87.41,-65.07,0.4,35.336,,,,NaN,,,,0 / 0,764,2014-12-14 04:37:15:482
0.3628,-9.7968,0.4511,0.4458,-9.7948,0.1854,-0.083,-0.0021,0.2657,-0.0318,0.0293,-0.0648,0.0,36.3,6.0,38.0,23.87,87.18,-67.42,0.4,35.336,,,,NaN,,,,0 / 0,813,2014-12-14 04:37:15:531
-0.1373,-9.9734,0.9512,0.5578,-9.7895,0.1576,-0.6951,-0.1839,0.7937,-0.1674,0.0806,-0.1222,0.0,36.3,6.0,39.0,23.87,87.18,-67.42,0.4,35.836,,,,NaN,,,,0 / 0,863,2014-12-14 04:37:15:581
-0.5884,-10.091,0.9905,0.5323,-9.7913,0.1329,-1.1207,-0.2998,0.8575,-0.1796,0.077,-0.2737,0.0,35.4,6.0,39.5,34.63,86.79,-75.98,0.4,35.836,,,,NaN,,,,0 / 0,913,2014-12-14 04:37:15:631
-0.8238,-10.2283,0.6865,0.5031,-9.7919,0.1915,-1.3269,-0.4365,0.4949,-0.0513,-0.0171,-0.3018,0.0,34.1,6.0,40.9,29.36,86.85,-69.16,0.4,35.836,,,,NaN,,,,0 / 0,964,2014-12-14 04:37:15:682
-0.8238,-10.2283,0.6865,0.5031,-9.7919,0.1915,-1.3269,-0.4365,0.4949,-0.0513,-0.0171,-0.3018,0.0,34.1,6.0,40.9,29.36,86.85,-69.16,0.4,35.836,,,,NaN,,,,0 / 0,1014,2014-12-14 04:37:15:732
-1.0983,-10.3166,1.0003,0.5333,-9.7904,0.185,-1.6316,-0.5262,0.8153,-0.0257,-0.0122,-0.3323,0.0,32.3,7.3,40.9,28.82,86.78,-68.66,0.4,35.836,,,,NaN,,,,0 / 0,1064,2014-12-14 04:37:15:782
-1.6475,-10.3852,2.2163,0.4336,-9.7866,0.4532,-2.0812,-0.5987,1.7631,0.3042,-0.182,-0.2859,0.0,32.8,8.2,40.0,29.5,86.74,-69.23,0.4,35.836,,,,NaN,,,,0 / 0,1114,2014-12-14 04:37:15:832
-1.7456,-10.297,1.8829,0.3896,-9.7821,0.5742,-1.9961,-1.3516,0.9882,0.6451,-0.0953,-0.0855,0.0,32.3,8.6,37.5,354.12,85.94,-34.16,0.4,35.836,,,,NaN,,,,0 / 0,1163,2014-12-14 04:37:15:881
2.0594,-13.6607,1.4318,0.0163,-9.7304,1.2208,-0.0261,-4.1362,0.2698,1.4722,-0.6158,0.4667,0.0,34.5,9.9,32.7,314.91,82.85,-0.76,0.4,35.836,,,,NaN,,,,0 / 0,1213,2014-12-14 04:37:15:931
4.5111,-10.1793,0.0588,0.1353,-9.6132,1.9334,4.3757,-0.5661,-1.8745,1.5492,-1.6823,0.4349,0.0,38.0,10.4,23.9,314.91,82.85,-0.76,0.4,35.836,,,,NaN,,,,0 / 0,1264,2014-12-14 04:37:15:982
3.4617,-8.7083,-0.3334,0.4206,-9.585,2.0302,3.0412,0.8767,-2.3636,1.5492,-1.6823,0.4349,0.0,38.0,10.4,23.9,314.91,82.85,-0.76,0.4,35.836,,,,NaN,,,,0 / 0,1314,2014-12-14 04:37:16:032
1.3631,-8.0218,-0.1961,0.7765,-9.5687,2.0017,0.5866,1.5469,-2.1978,0.5302,0.0525,0.2541,0.0,40.2,10.8,17.0,315.77,77.35,-21.2,0.4,47.3,,,,NaN,,,,0 / 0,1364,2014-12-14 04:37:16:082
0.6669,-5.2269,0.9414,0.9239,-9.6719,1.3312,-0.1105,3.48,-1.7462,-0.0696,-0.0012,0.1747,0.0,41.5,10.4,17.5,320.2,78.77,-25.97,0.4,47.3,,,,NaN,,,,0 / 0,1414,2014-12-14 04:37:16:132
0.657,-5.2368,1.216,0.9529,-9.6782,1.2626,-0.2958,4.4415,-0.0466,-0.5315,-0.2749,0.0293,0.0,41.5,10.8,18.5,332.11,80.72,-37.04,0.4,47.3,,,,NaN,,,,0 / 0,1464,2014-12-14 04:37:16:182
0.8532,-6.1978,2.2065,1.0943,-9.6889,1.048,-0.2411,3.4911,1.1585,-0.6952,-0.4349,-0.0208,0.0,41.5,10.8,19.5,332.11,80.72,-37.04,0.4,47.3,,,,NaN,,,,0 / 0,1513,2014-12-14 04:37:16:231
1.2553,-8.6004,2.7753,1.23,-9.6789,0.9882,0.0252,1.0785,1.787,-0.7819,0.2529,-0.0134,0.0,40.6,10.8,23.4,343.76,81.11,-46.24,0.4,47.3,,,,NaN,,,,0 / 0,1564,2014-12-14 04:37:16:282
1.5396,-8.7671,3.2852,1.2738,-9.672,1.0001,0.2659,0.9049,2.2851,-0.7819,0.2529,-0.0134,0.0,40.6,10.8,23.4,343.76,81.11,-46.24,0.4,47.3,,,,NaN,,,,0 / 0,1613,2014-12-14 04:37:16:331
0.8924,-7.0412,2.7851,1.3568,-9.6495,1.1033,-0.4644,2.6083,1.6818,-0.5767,0.4349,-0.0012,0.0,39.7,10.8,26.8,355.02,79.73,-50.88,0.4,47.3,,,,NaN,,,,0 / 0,1663,2014-12-14 04:37:16:381
2.5301,-8.8358,1.0787,1.3752,-9.6618,0.9634,1.1549,0.826,0.1153,-1.0116,0.5119,-0.0428,0.0,38.4,9.5,29.7,3.21,80.14,-54.99,0.4,47.3,,,,NaN,,,,0 / 0,1713,2014-12-14 04:37:16:431
-0.8434,-16.485,-2.5105,1.4118,-9.6616,0.9119,-2.2551,-6.8234,-3.4224,-0.0061,0.6341,0.3861,0.0,37.6,9.1,31.7,7.13,80.13,-57.14,0.4,47.3,,,,NaN,,,,0 / 0,1765,2014-12-14 04:37:16:483
1.3631,-18.7405,0.0883,1.0323,-9.7367,0.5486,0.3308,-9.0038,-0.4604,0.2053,0.3934,0.1087,0.0,38.4,7.3,31.7,12.0,83.15,-62.01,0.4,47.3,,,,NaN,,,,0 / 0,1813,2014-12-14 04:37:16:531
1.7652,-7.404,-4.3051,0.9755,-9.7311,0.7244,0.7897,2.3271,-5.0296,0.4166,0.5571,-0.1014,0.0,39.3,6.9,28.8,12.0,83.15,-62.01,0.4,61.164,,,,NaN,,,,0 / 0,1863,2014-12-14 04:37:16:581
1.0003,-7.3746,-5.9526,1.1083,-9.7335,0.449,-0.108,2.3589,-6.4016,-0.3482,1.0214,-0.3335,0.0,38.4,6.9,30.2,16.07,83.0,-67.95,0.4,61.164,,,,NaN,,,,0 / 0,1913,2014-12-14 04:37:16:631
-3.7559,-11.5326,1.471,1.0617,-9.6808,-1.1513,-4.8176,-1.8518,2.6223,-0.6683,0.3164,-0.0525,0.0,36.3,6.0,37.5,92.77,80.81,-137.32,0.4,61.164,,,,NaN,,,,0 / 0,1963,2014-12-14 04:37:16:681
-1.5396,-10.1989,1.8829,0.7512,-9.7048,-1.1928,-2.2908,-0.4941,3.0757,-0.4252,-0.1588,-0.0538,0.0,36.7,5.6,38.0,92.77,80.81,-137.32,0.4,61.164,,,,NaN,,,,0 / 0,2013,2014-12-14 04:37:16:731
0.1177,-7.4825,-0.8434,0.7724,-9.7242,-1.0067,-0.6547,2.2417,0.1633,-0.3787,0.1222,-0.3543,0.0,35.8,5.2,39.0,99.02,82.57,-142.5,0.4,61.164,,,,NaN,,,,0 / 0,2064,2014-12-14 04:37:16:782
-2.1771,-9.3555,3.6088,0.8409,-9.7149,-1.0411,-2.6618,1.9218,0.8631,0.3433,-0.2749,0.0672,0.0,35.4,5.2,39.5,99.02,82.57,-149.43,0.4,61.164,,,,NaN,,,,0 / 0,2114,2014-12-14 04:37:16:832
-0.3727,-8.9044,3.6971,0.366,-9.7845,-0.5484,-0.7386,0.88,4.2455,0.7025,-0.6316,0.033,0.0,35.4,5.2,38.0,107.55,83.48,-149.43,0.4,61.164,,,,NaN,,,,0 / 0,2163,2014-12-14 04:37:16:881
0.608,-8.2964,3.0499,0.3238,-9.7962,-0.3166,0.2842,1.4998,3.3665,0.9639,-0.1784,-0.3873,0.0,35.0,6.0,33.6,88.2,87.35,-134.36,0.4,61.164,,,,NaN,,,,0 / 0,2213,2014-12-14 04:37:16:931
-1.7946,-10.6991,1.2651,1.0889,-9.744,0.1964,-1.8538,0.918,0.5685,0.066,0.2896,-0.4252,0.0,33.2,6.0,32.7,88.2,87.35,-134.36,0.4,61.164,,,,NaN,,,,0 / 0,2264,2014-12-14 04:37:16:982
-3.5108,-9.7086,1.9123,0.8599,-9.7581,0.4594,-4.3707,0.0495,1.4529,0.909,-0.1784,-0.2676,0.0,31.5,5.6,29.2,13.95,84.29,-61.89,0.4,61.164,,,,NaN,,,,0 / 0,2313,2014-12-14 04:37:17:031
-0.2942,-15.4749,0.7453,0.2811,-9.7425,1.0842,-1.3085,-3.0601,-1.365,0.865,-0.3897,-0.2077,0.0,31.0,6.0,26.3,330.24,83.7,-19.94,0.4,58.773,,,,NaN,,,,0 / 0,2363,2014-12-14 04:37:17:081
1.2553,-19.2406,3.0204,0.0316,-9.6383,1.8088,1.2237,-9.6023,1.2117,2.1893,-1.4502,1.0409,0.0,32.3,4.3,16.1,298.21,79.37,-1.0,0.4,58.773,,,,NaN,,,,0 / 0,2413,2014-12-14 04:37:17:131
4.4424,-11.3757,-0.863,0.0366,-9.4617,2.5779,4.4058,-1.914,-3.4409,1.5259,-0.8332,1.0678,0.0,37.1,2.6,4.4,277.94,74.76,-0.81,0.4,58.773,,,,NaN,,,,0 / 0,2463,2014-12-14 04:37:17:181
1.1964,-7.4727,0.8434,0.3944,-9.4324,2.6542,0.802,1.9597,-1.8108,0.6964,-0.7501,0.2236,0.0,38.0,1.3,0.9,279.99,74.12,-8.45,0.4,58.773,,,,NaN,,,,0 / 0,2514,2014-12-14 04:37:17:232
1.3631,-3.9619,-1.0297,0.7905,-9.487,2.3542,0.5726,5.5251,-3.3839,-0.2651,-0.0367,-0.1772,0.0,37.6,1.7,0.5,290.18,75.33,-18.56,0.4,58.773,,,,NaN,,,,0 / 0,2571,2014-12-14 04:37:17:289
1.3631,-3.9619,-1.0297,0.7905,-9.487,2.3542,0.5726,5.5251,-3.3839,-0.2651,-0.0367,-0.1772,0.0,37.6,1.7,0.5,290.18,75.33,-18.56,0.4,58.773,,,,NaN,,,,0 / 0,2613,2014-12-14 04:37:17:331
1.2454,-2.8145,-1.1964,1.1793,-9.6039,1.5951,0.0662,6.7894,-2.7915,-0.8406,-0.3091,-0.1527,0.0,36.3,2.1,2.9,311.14,78.33,-36.48,0.4,58.773,,,,NaN,,,,0 / 0,2664,2014-12-14 04:37:17:382
-1.0787,-5.9232,1.4122,1.458,-9.6491,0.9698,-2.5367,3.7258,0.4424,-1.7287,0.2297,-0.2028,0.0,34.1,2.6,10.7,344.29,79.71,-56.37,0.4,58.773,,,,NaN,,,,0 / 0,2713,2014-12-14 04:37:17:431
-1.0787,-5.9232,1.4122,1.458,-9.6491,0.9698,-2.5367,3.7258,0.4424,-1.7287,0.2297,-0.2028,0.0,34.1,2.6,10.7,344.29,79.71,-56.37,0.4,58.773,,,,NaN,,,,0 / 0,2764,2014-12-14 04:37:17:482
-1.0787,-5.9232,1.4122,1.458,-9.6491,0.9698,-2.5367,3.7258,0.4424,-1.2584,0.5999,-0.0012,0.0,34.1,2.6,10.7,344.29,79.71,-56.37,0.4,58.773,,,,NaN,,,,0 / 0,2813,2014-12-14 04:37:17:531
-1.0787,-5.9232,1.4122,1.458,-9.6491,0.9698,-2.5367,3.7258,0.4424,-1.2584,0.5999,-0.0012,0.0,34.1,2.6,10.7,344.29,79.71,-56.37,0.4,58.773,,,,NaN,,,,0 / 0,2863,2014-12-14 04:37:17:581
-0.3334,-9.8753,4.5013,1.6092,-9.6374,0.8375,-1.9427,-0.2379,3.6637,-0.6585,0.1173,-0.0073,0.0,32.8,1.7,16.6,359.76,79.34,-62.5,0.4,56.088,,,,NaN,,,,0 / 0,2914,2014-12-14 04:37:17:632
2.589,-15.4259,-2.7753,1.3958,-9.604,1.4091,1.1931,-5.8219,-4.1844,0.3433,-0.1637,0.3604,0.0,30.6,-1.8,17.5,344.39,78.33,-44.73,0.4,56.088,,,,NaN,,,,0 / 0,2963,2014-12-14 04:37:17:681
0.7159,-18.0835,0.1863,1.2841,-9.6908,0.7811,0.6478,-6.4706,-2.5855,-0.6463,1.2217,0.0806,0.0,30.2,-2.7,19.5,2.44,81.18,-58.69,0.4,56.088,,,,NaN,,,,0 / 0,3014,2014-12-14 04:37:17:732
2.0398,-6.9725,-4.1874,0.907,-9.7175,0.9576,1.1328,2.745,-5.145,0.7917,0.1319,-0.1075,0.0,31.0,-3.5,17.5,2.44,81.18,-58.69,0.4,56.088,,,,NaN,,,,0 / 0,3063,2014-12-14 04:37:17:781
1.7848,-6.2566,-5.5996,0.9818,-9.7148,0.9108,0.8031,3.4581,-6.5104,0.463,0.391,-0.2847,0.0,31.0,-4.0,17.0,345.53,82.15,-47.15,0.4,56.088,,,,NaN,,,,0 / 0,3113,2014-12-14 04:37:17:831
-1.3729,-11.4444,2.432,0.7918,-9.7537,-0.6391,1.4147,1.6828,0.5803,-0.3592,0.0354,-0.3702,0.0,28.4,-4.0,24.4,80.2,84.04,-128.91,0.4,56.088,,,,NaN,,,,0 / 0,3163,2014-12-14 04:37:17:881
1.7162,-7.1392,-0.3825,1.0003,-9.73,-0.7046,0.7158,2.5908,0.3221,-0.5229,0.5107,-0.5009,0.0,28.0,-3.5,25.3,80.2,84.04,-128.91,0.4,56.088,,,,NaN,,,,0 / 0,3214,2014-12-14 04:37:17:932
-2.3242,-8.1297,2.128,1.2631,-9.6902,-0.8215,-3.5873,1.5605,2.9495,-0.1539,0.3262,-0.2138,0.0,26.7,-3.5,27.8,77.69,82.1,-124.08,0.4,56.088,,,,NaN,,,,0 / 0,3273,2014-12-14 04:37:17:991
-2.3242,-8.1297,2.128,1.2631,-9.6902,-0.8215,-3.5873,1.5605,2.9495,-0.1539,0.3262,-0.2138,0.0,26.7,-3.5,27.8,77.69,82.1,-124.08,0.4,56.088,,,,NaN,,,,0 / 0,3313,2014-12-14 04:37:18:031
-1.7064,-7.8061,2.8341,0.9839,-9.7446,-0.4955,-2.6903,1.9385,3.3296,0.3702,-0.2651,-0.1417,0.0,25.8,-3.5,27.3,73.41,83.55,-116.73,0.4,56.088,,,,NaN,,,,0 / 0,3364,2014-12-14 04:37:18:082
-1.7064,-7.8061,2.8341,0.9839,-9.7446,-0.4955,-2.6903,1.9385,3.3296,0.6035,-0.0611,-0.325,0.0,25.8,-3.5,27.3,73.41,83.55,-116.73,0.4,56.088,,,,NaN,,,,0 / 0,3414,2014-12-14 04:37:18:132
1.0787,-5.5408,0.608,0.837,-9.7709,-0.0087,0.2417,4.2301,0.6167,0.5644,0.0672,-0.3861,0.0,25.4,-4.0,25.3,46.1,85.1,-90.59,0.4,56.088,,,,NaN,,,,0 / 0,3464,2014-12-14 04:37:18:182
-1.2651,-6.5508,1.3141,0.9397,-9.7143,0.9585,-2.2048,3.1635,0.3556,0.5974,0.496,-0.3763,0.0,21.0,-4.8,21.4,359.42,82.13,-44.43,0.4,66.262,,,,NaN,,,,0 / 0,3514,2014-12-14 04:37:18:232
-1.2651,-6.5508,1.3141,0.1177,-9.7044,1.4074,-2.2555,-6.7315,0.9266,0.5974,0.496,-0.3763,0.0,18.9,-5.3,15.6,359.42,82.13,-44.43,0.4,66.262,,,,NaN,,,,0 / 0,3564,2014-12-14 04:37:18:282
5.3348,-19.5937,0.1177,-0.1302,-9.6569,1.702,-0.3209,-9.1816,1.9068,2.1918,-1.2217,1.1423,0.0,18.9,-6.1,13.1,297.31,79.98,4.38,0.4,66.262,,,,NaN,,,,0 / 0,3614,2014-12-14 04:37:18:332
5.3348,-19.5937,0.1177,-0.0729,-9.401,2.7903,5.0155,-4.3479,-3.0452,0.6964,-0.2566,0.4875,0.0,21.9,-7.4,4.9,297.31,79.98,4.38,0.4,66.262,,,,NaN,,,,0 / 0,3664,2014-12-14 04:37:18:382
1.9319,-9.0417,0.5982,0.184,-9.3861,2.8349,1.748,0.3444,-2.2367,0.5864,-0.2786,0.3396,0.0,23.2,-8.7,1.9,271.83,73.16,-3.71,0.4,66.262,,,,NaN,,,,0 / 0,3714,2014-12-14 04:37:18:432
1.8338,-5.0995,-0.5394,0.4863,-9.452,2.5677,1.3476,4.3526,-3.1071,-0.077,0.0257,-0.1112,0.0,22.3,-8.3,1.9,279.9,74.54,-10.72,0.4,66.262,,,,NaN,,,,0 / 0,3764,2014-12-14 04:37:18:482
1.5298,-2.7262,-0.5688,0.8806,-9.5746,1.9292,0.6198,6.9464,-2.3803,-0.9236,0.4007,-0.2468,0.0,21.5,-7.9,5.3,279.9,74.54,-10.72,0.4,66.262,,,,NaN,,,,0 / 0,3814,2014-12-14 04:37:18:532
1.8338,-2.638,-0.2844,0.9651,-9.5966,1.7733,0.8688,6.9586,-2.0577,-1.0336,0.391,-0.2737,0.0,21.5,-7.9,5.8,309.99,78.12,-28.56,0.4,66.262,,,,NaN,,,,0 / 0,3864,2014-12-14 04:37:18:582
0.9709,-4.3934,0.6669,1.5737,-9.6281,0.9966,-0.6028,5.2347,-0.3298,-1.3354,0.6377,-0.2859,0.0,20.6,-7.4,8.3,309.99,78.12,-28.56,0.4,66.262,,,,NaN,,,,0 / 0,3914,2014-12-14 04:37:18:632
0.9709,-4.3934,0.6669,1.5737,-9.6281,0.9966,-0.6028,5.2347,-0.3298,-1.9633,-0.3726,-0.0721,0.0,19.3,-7.4,12.2,359.92,79.05,-57.65,0.4,66.262,,,,NaN,,,,0 / 0,3964,2014-12-14 04:37:18:682
2.0888,-6.8548,3.3833,0.7076,-9.739,0.9062,2.254,2.4527,1.8985,-0.4911,-0.5644,-0.1784,0.0,17.1,-7.9,16.6,2.65,84.54,-49.29,0.4,57.911,,,,NaN,,,,0 / 0,4013,2014-12-14 04:37:18:731
2.0888,-6.8548,3.3833,0.7076,-9.739,0.9062,2.254,2.4527,1.8985,-0.4911,-0.5644,-0.1784,0.0,17.1,-7.9,16.6,2.65,84.54,-49.29,0.4,57.911,,,,NaN,,,,0 / 0,4063,2014-12-14 04:37:18:781
0.353,-18.2502,1.9025,0.8775,-9.7093,1.0631,-0.0109,-0.9845,-4.3104,-0.0965,1.4197,0.4838,0.0,16.3,-9.2,16.1,356.72,81.37,-41.95,0.4,57.911,,,,NaN,,,,0 / 0,4114,2014-12-14 04:37:18:832
0.814,-10.1303,-4.7268,0.7959,-9.7243,0.9873,0.0181,-0.406,-5.7141,-0.3152,0.8479,-0.4826,0.0,16.3,-10.1,16.1,353.44,82.57,-38.87,0.4,57.911,,,,NaN,,,,0 / 0,4164,2014-12-14 04:37:18:882
0.814,-10.1303,-4.7268,0.7959,-9.7243,0.9873,0.0181,-0.406,-5.7141,-0.3152,0.8479,-0.4826,0.0,16.3,-10.1,16.1,353.44,82.57,-38.87,0.4,57.911,,,,NaN,,,,0 / 0,4213,2014-12-14 04:37:18:931
-1.2651,-11.0325,0.304,0.7506,-9.7519,-0.7119,-2.0157,-1.2805,1.0159,-0.6866,0.2847,-0.1881,0.0,15.4,-10.1,19.5,98.97,83.94,-133.48,0.4,57.911,,,,NaN,,,,0 / 0,4263,2014-12-14 04:37:18:981
0.6963,-7.2275,-0.6767,0.8116,-9.7154,-1.0596,-0.1154,2.4879,0.3829,-0.777,0.6854,-0.2834,0.0,14.1,-10.1,24.9,98.97,83.94,-133.48,0.4,57.911,,,,NaN,,,,0 / 0,4313,2014-12-14 04:37:19:031
-1.9907,-9.4634,1.0199,0.9444,-9.6675,-1.3487,-2.9351,0.204,2.3685,-0.628,0.43,-0.1833,0.0,13.2,-9.6,25.3,120.15,80.33,-145.0,0.4,57.911,,,,NaN,,,,0 / 0,4364,2014-12-14 04:37:19:082
-1.5102,-8.4141,0.8238,0.6161,-9.7877,0.2494,-2.1264,1.3266,0.5744,0.9383,0.248,-0.2529,0.0,12.8,-10.5,24.4,121.51,83.35,-147.14,0.4,64.357,,,,NaN,,,,0 / 0,4414,2014-12-14 04:37:19:132
-0.3334,-6.2468,-0.9905,0.8352,-9.7565,0.5328,-1.1686,3.5096,-1.5232,0.3995,0.3824,-0.5705,0.0,11.5,-10.9,23.4,31.32,84.2,-57.47,0.4,64.357,,,,NaN,,,,0 / 0,4464,2014-12-14 04:37:19:182
-3.0695,-10.2283,1.5495,0.8232,-9.7625,0.4316,-3.3239,0.2304,1.5102,0.3201,0.011,-0.3555,0.0,10.6,-10.9,23.4,31.32,84.2,-57.47,0.4,64.357,,,,NaN,,,,0 / 0,4513,2014-12-14 04:37:19:231
-3.0695,-11.6405,0.0785,0.2891,-9.771,0.784,-3.9862,-1.8695,-0.7055,0.5559,-0.3567,-0.3543,0.0,10.6,-11.4,22.4,353.4,85.11,-20.24,0.4,64.357,,,,NaN,,,,0 / 0,4564,2014-12-14 04:37:19:282
0.9512,-15.2886,0.0392,-0.3265,-9.7591,0.9073,-3.9862,-1.8695,-0.7055,0.5559,-0.3567,-0.3543,0.0,10.6,-11.4,22.4,353.4,85.11,-20.24,0.4,64.357,,,,NaN,,,,0 / 0,4614,2014-12-14 04:37:19:332
2.2163,-15.0336,0.8434,-0.3471,-9.7554,0.9387,2.5634,-5.2781,-0.0953,1.0055,-1.0678,0.2676,0.0,11.9,-11.8,20.9,307.51,84.14,20.29,0.4,64.357,,,,NaN,,,,0 / 0,4664,2014-12-14 04:37:19:382
2.9028,-18.5248,2.5105,-0.0389,-9.6795,1.5736,2.9417,-8.8453,0.9369,1.609,-0.8711,0.7404,0.0,14.1,-11.8,17.0,315.18,80.76,1.42,0.4,64.357,,,,NaN,,,,0 / 0,4713,2014-12-14 04:37:19:431
3.9717,-14.0627,-0.7943,0.0666,-9.6204,1.901,3.15,-3.2361,-2.3227,1.0372,-0.865,1.0006,0.0,17.1,-12.2,13.1,303.64,78.82,-2.01,0.4,64.357,,,,NaN,,,,0 / 0,4764,2014-12-14 04:37:19:482
1.5298,-10.297,-0.5982,0.1322,-9.6214,1.8925,1.3977,-0.6756,-2.4907,0.8784,-0.9456,0.8015,0.0,18.4,-12.7,12.2,303.64,78.82,-2.01,0.4,64.357,,,,NaN,,,,0 / 0,4814,2014-12-14 04:37:19:532
2.6282,-6.0997,-0.2648,0.3656,-9.6275,1.8298,2.2626,3.5278,-2.0945,0.4618,-0.4496,0.0171,4.0,18.4,-13.1,10.2,304.08,79.03,-11.3,0.4,64.357,,,,NaN,,,,0 / 0,4863,2014-12-14 04:37:19:581
1.5298,-4.3542,-0.9022,0.7338,-9.6596,1.5246,1.5119,4.6484,-2.2306,-0.6976,-0.3677,0.0086,4.0,18.9,-13.1,10.2,304.08,79.03,-11.3,0.4,64.357,,,,NaN,,,,0 / 0,4913,2014-12-14 04:37:19:631
1.5887,-4.1972,-0.814,1.1045,-9.7085,0.8339,0.4842,5.5113,-1.6478,-0.799,-0.496,0.0049,4.0,18.9,-13.5,12.2,354.74,81.89,-52.95,0.4,55.11,,,,NaN,,,,0 / 0,4964,2014-12-14 04:37:19:682
-1.2945,-11.0619,1.8338,1.7298,-9.6271,-0.7058,-3.0242,-1.4349,2.5397,-1.752,0.1564,-0.1857,4.0,18.9,-13.5,17.5,64.11,78.58,-105.04,0.4,55.11,,,,NaN,,,,0 / 0,5127,2014-12-14 04:37:19:845
-1.2945,-11.0619,1.8338,1.7298,-9.6271,-0.7058,-3.0242,-1.4349,2.5397,-1.752,0.1564,-0.1857,4.0,18.9,-13.5,17.5,64.11,78.58,-105.04,0.4,55.11,,,,NaN,,,,0 / 0,5129,2014-12-14 04:37:19:847
0.6767,-7.0019,5.0014,1.2284,-9.7262,-0.2506,-0.5518,2.7242,5.2519,-0.4972,-0.033,-0.0073,4.0,20.6,-15.3,20.9,59.96,82.66,-101.53,0.4,55.11,,,,NaN,,,,0 / 0,5133,2014-12-14 04:37:19:851
0.6767,-7.0019,5.0014,1.2284,-9.7262,-0.2506,-0.5518,2.7242,5.2519,-0.4972,-0.033,-0.0073,4.0,20.6,-15.3,20.9,59.96,82.66,-101.53,0.4,55.11,,,,NaN,,,,0 / 0,5164,2014-12-14 04:37:19:882
1.9908,-15.6416,-2.2457,1.1918,-9.717,0.5742,0.7809,-4.6753,-1.5078,-0.5486,-0.1283,-0.033,4.0,20.6,-15.3,21.4,59.96,82.66,-101.53,0.4,55.11,,,,NaN,,,,0 / 0,5213,2014-12-14 04:37:19:931
-0.2354,-15.4161,-1.9907,1.1322,-9.7375,0.2621,1.5321,-3.4892,-1.1167,0.1588,0.8638,0.1197,4.0,23.2,-17.9,22.4,26.42,83.18,-69.6,0.4,55.11,,,,NaN,,,,0 / 0,5263,2014-12-14 04:37:19:981
-0.1667,-12.7977,-2.0888,0.9022,-9.7646,0.0974,-1.0689,-3.0331,-2.1862,0.1539,0.3396,-0.1246,4.0,23.6,-18.3,22.4,38.29,84.69,-83.84,0.4,55.11,,,,NaN,,,,0 / 0,5314,2014-12-14 04:37:20:032
-0.1667,-12.7977,-2.0888,0.9022,-9.7646,0.0974,-1.0689,-3.0331,-2.1862,0.1539,0.3396,-0.1246,4.0,23.6,-18.3,22.4,38.29,84.69,-83.84,0.4,55.11,,,,NaN,,,,0 / 0,5363,2014-12-14 04:37:20:081
-1.0787,-10.3754,-1.8927,0.859,-9.722,-0.9565,-2.0259,-0.7711,-1.9659,-1.0079,0.6671,-0.281,4.0,23.6,-18.7,23.9,97.22,82.47,-138.07,0.4,64.687,,,,NaN,,,,0 / 0,5414,2014-12-14 04:37:20:132
0.7747,-9.3359,0.6276,0.6619,-9.6718,-1.4793,-1.0738,-0.5565,2.5678,-0.3934,0.2272,-0.077,4.0,23.2,-18.3,25.3,97.22,82.47,-138.07,0.4,64.687,,,,NaN,,,,0 / 0,5463,2014-12-14 04:37:20:181
0.7747,-9.3359,0.6276,0.6373,-9.6951,-1.3299,0.2453,0.9378,1.575,-0.1148,0.0721,-0.2773,4.0,22.8,-18.7,26.3,116.88,81.35,-154.4,0.4,64.687,,,,NaN,,,,0 / 0,5514,2014-12-14 04:37:20:232
-1.9319,-10.0812,1.8829,0.7341,-9.7172,-1.0992,-2.666,-0.3641,2.9821,0.3677,0.0403,-0.099,4.0,21.9,-18.3,25.3,108.71,81.09,-144.67,0.4,64.687,,,,NaN,,,,0 / 0,5564,2014-12-14 04:37:20:282
-1.4024,-9.7478,2.4517,0.6354,-9.7391,-0.9576,-2.0378,-0.0087,3.4093,0.5718,-0.0538,-0.0831,4.0,21.5,-18.3,25.8,109.44,83.27,-146.43,0.4,64.687,,,,NaN,,,,0 / 0,5614,2014-12-14 04:37:20:332
1.471,-4.0501,-0.5394,0.5834,-9.7891,-0.0636,0.8876,5.7389,-0.4757,0.8992,-0.0134,-0.3861,4.0,21.0,-17.9,22.4,109.44,83.27,-146.43,0.4,64.687,,,,NaN,,,,0 / 0,5664,2014-12-14 04:37:20:382
-1.3043,-8.8064,1.5495,0.8524,-9.7562,0.5101,-2.1567,0.9498,1.0393,0.9591,0.529,-0.1417,4.0,18.4,-18.3,20.5,52.83,86.0,-91.61,0.4,64.687,,,,NaN,,,,0 / 0,5714,2014-12-14 04:37:20:432
-1.5495,-7.7571,-0.7453,0.7241,-9.749,0.7768,-2.1567,0.9498,1.0393,0.9591,0.529,-0.1417,4.0,18.4,-18.3,20.5,52.83,86.0,-91.61,0.4,64.687,,,,NaN,,,,0 / 0,5763,2014-12-14 04:37:20:481
-3.5304,-15.1611,0.304,0.5735,-9.7701,0.6223,-4.1039,-5.391,-0.3183,0.7721,-0.0428,-0.1698,4.0,16.7,-17.9,19.0,0.9,85.05,-42.66,0.4,64.687,,,,NaN,,,,0 / 0,5813,2014-12-14 04:37:20:531
3.8834,-19.7506,2.2751,-0.0895,-9.6943,1.4774,3.9729,-10.0563,0.7978,2.0,-1.2963,0.9175,4.0,16.3,-17.4,11.7,0.9,85.05,-42.66,0.4,64.687,,,,NaN,,,,0 / 0,5864,2014-12-14 04:37:20:582
5.7859,-16.0927,0.3628,-0.0167,-9.5854,2.0713,5.8026,-6.5073,-1.7085,1.6261,-0.81,1.3085,4.0,18.0,-17.9,7.3,279.12,77.81,0.46,0.4,64.687,,,,NaN,,,,0 / 0,5913,2014-12-14 04:37:20:631
3.0204,-8.6495,-0.3236,0.0974,-9.5579,2.1926,2.7367,-1.3667,-2.2907,0.8662,-0.4105,0.6451,4.0,19.7,-18.7,5.3,274.29,77.07,-2.54,0.4,57.846,,,,NaN,,,,0 / 0,5963,2014-12-14 04:37:20:681
3.0695,-8.2278,-0.1471,0.4282,-9.5636,2.127,2.5922,0.9142,-2.4506,0.5376,-0.3225,0.0232,4.0,19.3,-19.2,2.9,274.29,77.07,-2.54,0.4,57.846,,,,NaN,,,,0 / 0,6014,2014-12-14 04:37:20:732
3.6383,-6.3351,0.9905,0.9264,-9.5514,2.0205,2.7119,3.2163,-1.03,0.3384,-0.6316,0.011,4.0,19.3,-19.2,1.4,284.28,76.9,-24.63,0.4,57.846,,,,NaN,,,,0 / 0,6064,2014-12-14 04:37:20:782
1.9711,-4.9524,0.6276,1.5664,-9.5002,1.8608,0.4048,4.5479,-1.2331,-0.259,-0.6023,-0.1283,4.0,18.4,-19.2,0.9,284.28,76.9,-24.63,0.4,57.846,,,,NaN,,,,0 / 0,6114,2014-12-14 04:37:20:832
0.8532,-6.6979,0.3138,1.8471,-9.5219,1.4465,-0.994,2.8239,-1.1327,-0.9701,0.5742,0.0012,0.0,17.6,-18.7,2.9,321.57,76.16,-51.94,0.4,57.846,,,,NaN,,,,0 / 0,6164,2014-12-14 04:37:20:882
0.5492,-8.1199,-0.049,1.7037,-9.6462,0.4674,-1.0309,1.0814,-0.2414,-0.9371,0.5009,-0.077,0.0,18.0,-17.9,5.3,347.19,78.6,-64.33,0.4,57.846,,,,NaN,,,,0 / 0,6213,2014-12-14 04:37:20:931
1.1376,-8.4043,-0.2648,1.7037,-9.6575,0.0152,-1.1048,1.6189,-0.6545,-0.6426,-0.6695,-0.2065,0.0,17.6,-17.4,7.8,10.4,79.62,-74.66,0.4,57.846,,,,NaN,,,,0 / 0,6264,2014-12-14 04:37:20:982
2.079,-9.1594,0.4805,1.7284,-9.6512,-0.1938,0.3506,0.4918,0.6744,-0.7172,-0.6817,-0.1112,0.0,16.7,-16.6,9.2,40.65,79.78,-96.4,0.4,57.846,,,,NaN,,,,0 / 0,6313,2014-12-14 04:37:21:031
0.7159,-16.181,6.4234,1.8169,-9.6256,-0.4665,-1.101,-6.5554,6.8899,-0.9676,0.3946,0.5718,0.0,16.3,-16.1,12.7,61.55,78.97,-104.4,0.4,57.846,,,,NaN,,,,0 / 0,6364,2014-12-14 04:37:21:082
3.9717,-8.012,0.3727,1.0147,-9.6776,1.2186,2.957,1.6656,-0.8459,1.4465,0.0929,0.452,0.0,18.9,-17.0,9.7,334.02,80.69,-39.78,0.4,57.846,,,,NaN,,,,0 / 0,6414,2014-12-14 04:37:21:132
-0.1471,-7.9336,-0.1471,1.416,-9.641,1.1027,-1.5631,1.7074,-1.2498,-0.5034,0.496,-0.0538,0.0,19.7,-16.6,10.2,346.59,79.45,-52.09,0.4,65.306,,,,NaN,,,,0 / 0,6464,2014-12-14 04:37:21:182
-1.471,-12.6015,0.657,1.2497,-9.6961,0.7709,-2.7207,-2.9054,-0.1139,-0.1344,0.0782,0.0782,0.0,19.3,-16.6,10.7,346.59,79.45,-52.09,0.4,65.306,,,,NaN,,,,0 / 0,6513,2014-12-14 04:37:21:231
-1.6475,-12.2583,1.3239,0.6647,-9.747,0.8514,-0.3313,1.176,0.8157,0.0794,0.1552,0.2419,0.0,19.7,-17.0,12.2,359.18,82.13,-58.31,0.4,65.306,,,,NaN,,,,0 / 0,6564,2014-12-14 04:37:21:282
0.2256,-8.571,1.6671,0.6137,-9.7472,0.8867,-0.6137,0.8035,0.4273,-0.0281,0.237,0.1686,0.0,20.2,-17.0,11.7,359.18,82.13,-58.31,0.4,65.306,,,,NaN,,,,0 / 0,6613,2014-12-14 04:37:21:331
-0.608,-10.7677,1.4514,0.5419,-9.7551,0.8454,-1.1499,-1.0126,0.606,-0.1515,0.1319,0.1442,0.0,21.0,-17.4,11.7,330.22,84.12,-32.66,0.4,65.306,,,,NaN,,,,0 / 0,6663,2014-12-14 04:37:21:381
0.255,-8.6593,1.8044,0.3528,-9.7599,0.8889,-0.0978,1.1006,0.9155,0.0012,0.1527,-0.0648,0.0,20.6,-17.4,12.7,320.84,84.4,-21.65,0.4,65.306,,,,NaN,,,,0 / 0,6714,2014-12-14 04:37:21:432
-0.2059,-10.4245,1.7162,0.3928,-9.7542,0.9341,-0.5988,-0.6703,0.782,-0.171,0.1955,0.0293,0.0,20.6,-17.4,12.2,320.84,84.4,-21.65,0.4,65.306,,,,NaN,,,,0 / 0,6763,2014-12-14 04:37:21:481
-0.4119,-10.3362,1.0787,0.3165,-9.7558,0.9458,-0.7284,-0.5804,0.1329,-0.0171,0.2248,0.0379,0.0,21.5,-17.4,12.7,316.24,84.16,-18.5,0.4,65.306,,,,NaN,,,,0 / 0,6813,2014-12-14 04:37:21:531
-0.3727,-10.1205,1.2356,0.2427,-9.7643,0.8773,-0.4368,0.2112,0.3766,-0.066,0.1356,-0.0391,0.0,21.0,-17.0,13.6,317.42,84.58,-16.33,0.4,65.306,,,,NaN,,,,0 / 0,6864,2014-12-14 04:37:21:582
-0.3432,-9.6497,1.0101,0.1879,-9.7681,0.8482,-0.512,0.0797,0.1267,0.0,-0.0208,-0.0037,0.0,20.6,-17.0,13.1,311.51,84.92,-12.49,0.4,59.203,,,,NaN,,,,0 / 0,6914,2014-12-14 04:37:21:632
-0.3432,-9.6497,1.0101,0.1879,-9.7681,0.8482,-0.512,0.0797,0.1267,0.0,-0.0208,-0.0037,0.0,20.6,-17.0,13.1,311.51,84.92,-12.49,0.4,59.203,,,,NaN,,,,0 / 0,6963,2014-12-14 04:37:21:681
0.0883,-9.993,0.8041,0.1845,-9.7757,0.757,-0.0962,-0.2173,0.0472,0.0159,-0.0696,-0.022,0.0,21.0,-17.4,12.7,310.35,85.18,-11.22,0.4,59.203,,,,NaN,,,,0 / 0,7014,2014-12-14 04:37:21:732
0.1471,-9.9341,0.8336,0.1916,-9.7767,0.7412,-0.0445,-0.1574,0.0924,-0.0269,0.0086,0.0024,0.0,20.6,-17.0,13.6,316.0,85.52,-14.49,0.4,59.203,,,,NaN,,,,0 / 0,7063,2014-12-14 04:37:21:781
-0.1569,-10.1303,0.863,0.1966,-9.7828,0.6553,-0.3535,-0.3475,0.2077,0.0452,-0.0904,0.0171,0.0,20.6,-16.6,13.1,316.49,86.0,-16.7,0.4,59.203,,,,NaN,,,,0 / 0,7113,2014-12-14 04:37:21:831
-0.1471,-10.0714,0.8041,0.1681,-9.7853,0.6239,-0.3152,-0.2861,0.1803,0.0293,0.033,0.0159,0.0,21.0,-17.0,13.1,316.49,86.0,-16.7,0.4,59.203,,,,NaN,,,,0 / 0,7163,2014-12-14 04:37:21:881
-0.0196,-9.8949,0.8826,0.1681,-9.7853,0.6239,-0.3152,-0.2861,0.1803,0.0,-0.1014,0.0012,0.0,21.0,-17.0,13.1,316.49,86.0,-16.7,0.4,59.203,,,,NaN,,,,0 / 0,7213,2014-12-14 04:37:21:931
-0.049,-9.8753,0.7943,0.1658,-9.7866,0.6044,-0.1952,-0.1377,0.2194,-0.0293,-0.0782,-0.011,0.0,20.6,-17.0,13.1,315.26,86.34,-15.34,0.4,59.203,,,,NaN,,,,0 / 0,7264,2014-12-14 04:37:21:982