ACCELEROMETER X (m/s²),ACCELEROMETER Y (m/s²),ACCELEROMETER Z (m/s²),GRAVITY X (m/s²),GRAVITY Y (m/s²),GRAVITY Z (m/s²),LINEAR ACCELERATION X (m/s²),LINEAR ACCELERATION Y (m/s²),LINEAR ACCELERATION Z (m/s²),GYROSCOPE X (rad/s),GYROSCOPE Y (rad/s),GYROSCOPE Z (rad/s),LIGHT (lux),MAGNETIC FIELD X (μT),MAGNETIC FIELD Y (μT),MAGNETIC FIELD Z (μT),ORIENTATION X (°),ORIENTATION Y (°),ORIENTATION Z (°),PROXIMITY (i),ATMOSPHERIC PRESSURE (hPa),SOUND LEVEL (dB),LOCATION Latitude : ,LOCATION Longitude : ,LOCATION Altitude ( m),LOCATION Speed ( Kmh),LOCATION Accuracy ( m),Satellites in range,Temperature (F),Level (%),Voltage (Volt),Time since start in ms ,YYYY-MO-DD HH-MI-SS_SSS
0.373495,-9.710882,-0.287304,0.091589,-9.805038,-0.152437,0.281906,0.094156,-0.134867,-9.16E-04,0.069333,0.078802,0,-13.08,46.98,19.68,181.3539,89.1091,-146.9304,0,1018.07,34.08611,,,,,,0 / 0,82.6,39,3.717,30,2014-11-17 17:16:38:107
0.47884,-9.65342,-0.162806,0.094218,-9.8039,-0.212237,0.384622,0.150479,0.049431,-0.043982,0.059254,0.064446,20,-13.68,46.5,20.16,191.5817,88.6432,-156.0622,0,1018.02,34.08611,,,,,,0 / 0,82.6,39,3.717,128,2014-11-17 17:16:38:205
-0.057461,-9.902418,-0.076614,0.10103,-9.803136,-0.242312,-0.15849,-0.099282,0.165697,-0.068417,0.12706,0.062003,20,-14.04,46.2,20.1,191.5817,88.6432,-156.0622,0,1018.02,34.08611,,,,,,0 / 0,82.6,39,3.717,203,2014-11-17 17:16:38:280
-0.488417,-9.701304,-0.220267,0.086189,-9.802524,-0.271062,-0.574606,0.101218,0.050795,-0.020159,0.051618,0.04215,23,-13.92,46.08,20.46,193.0142,88.4661,-157.3668,0,1018.02,34.08611,,,,,,0 / 0,82.6,39,3.717,265,2014-11-17 17:16:38:342
0.191536,-9.634268,-0.296881,0.097201,-9.801952,-0.287538,0.094335,0.167686,-0.009343,-0.04612,0.03207,0.043677,20,-14.04,45.96,20.58,195.9055,88.2265,-161.3224,0,1018.02,34.88416,,,,,,0 / 0,82.6,39,3.717,343,2014-11-17 17:16:38:420
0.430956,-9.65342,-0.632069,0.110805,-9.800852,-0.318504,0.320152,0.14743,-0.313565,-0.096822,0.064141,0.003665,0,-13.98,45.48,20.22,195.4747,88.0292,-160.8177,0,1018.02,34.88416,,,,,,0 / 0,82.6,39,3.717,399,2014-11-17 17:16:38:476
0.268151,-9.768342,-0.134075,0.140896,-9.798806,-0.365969,0.127255,0.030463,0.231894,-0.089186,0.069944,0.030849,17,-14.04,45.18,20.28,195.0433,87.7082,-158.9436,0,1018.05,34.88416,,,,,,0 / 0,82.6,39,3.717,455,2014-11-17 17:16:38:532
-0.21069,-9.710882,-0.057461,0.151154,-9.796906,-0.410083,-0.361844,0.086025,0.352622,-0.11973,0.012523,-0.019242,20,-14.58,45.3,19.74,198.0798,87.4457,-159.7664,0,1018.05,34.88416,,,,,,0 / 0,82.6,39,3.717,520,2014-11-17 17:16:38:597
0.411803,-9.758766,-0.076614,0.194448,-9.793522,-0.468526,0.217355,0.034756,0.391912,-0.071471,0.02138,0.025351,23,-14.76,45.48,20.04,198.0798,87.4457,-159.7664,0,1018.05,34.88416,,,,,,0 / 0,82.6,39,3.717,577,2014-11-17 17:16:38:654
0.344765,-9.77792,-0.890643,0.223384,-9.789952,-0.526637,0.121381,0.012033,-0.364006,-0.155771,0.058032,-0.01405,20,-15,45.42,20.16,195.5199,86.6559,-157.0147,0,1018.01,34.88416,,,,,,0 / 0,82.6,39,3.717,628,2014-11-17 17:16:38:705
0.344765,-9.59596,-0.881066,0.270666,-9.78313,-0.622473,0.0741,0.18717,-0.258593,-0.162185,-0.050702,-0.065668,0,-15.36,44.76,21,193.708,86.031,-156.4995,0,1018.01,35.13454,,,,,,0 / 0,82.6,39,3.717,688,2014-11-17 17:16:38:765
-0.067038,-9.816226,-0.220267,0.330256,-9.774372,-0.72317,-0.397294,-0.041855,0.502903,-0.203113,0.001833,-0.062308,30,-15.78,44.1,21.24,193.708,86.031,-156.4995,0,1018.01,35.13454,,,,,,0 / 0,82.6,39,3.717,740,2014-11-17 17:16:38:817
0.134075,-9.155426,-1.197101,0.385215,-9.763308,-0.836557,-0.251139,0.607882,-0.360544,-0.062308,0.036041,0.003665,0,-16.26,43.92,21.6,193.3734,84.6111,-155.275,0,1018.05,35.13454,,,,,,0 / 0,82.6,39,3.717,816,2014-11-17 17:16:38:893
0.6608,-9.461884,-1.570596,0.487433,-9.742406,-1.00911,0.173367,0.28052,-0.561487,-0.171653,-0.042761,-0.076053,23,-16.62,43.56,22.62,193.212,84.1828,-154.9711,0,1018.05,35.13454,,,,,,0 / 0,82.6,39,3.717,899,2014-11-17 17:16:38:976
1.321599,-9.078812,-2.020706,0.52622,-9.729412,-1.109967,0.79538,0.6506,-0.910739,-0.136834,0.015577,0.044899,26,-16.74,43.2,22.56,192.9821,83.4381,-154.218,0,1018.02,35.13454,,,,,,0 / 0,82.6,39,3.717,958,2014-11-17 17:16:39:035
1.321599,-9.078812,-2.020706,0.52622,-9.729412,-1.109967,0.79538,0.6506,-0.910739,-0.264505,0.062003,-0.149662,26,-17.4,42.66,22.62,192.9821,83.4381,-154.218,0,1018.02,35.13454,,,,,,0 / 0,82.6,39,3.717,1008,2014-11-17 17:16:39:085
0.325611,-9.844956,-1.101333,0.636005,-9.703818,-1.265628,-0.310393,-0.141138,0.164295,-0.220828,0.135918,-0.021686,23,-18.36,42.36,22.86,194.5847,81.6953,-153.3195,0,1018.02,50.91532,,,,,,0 / 0,82.6,39,3.717,1063,2014-11-17 17:16:39:140
0.871489,-9.548076,-0.967257,0.706709,-9.681916,-1.38977,0.16478,0.133841,0.422512,-0.121562,0.012523,-0.083994,23,-18.54,42,23.52,194.7884,80.8519,-153.0463,0,1018.02,50.91532,,,,,,0 / 0,82.6,39,3.717,1125,2014-11-17 17:16:39:202
1.407791,-9.155426,-1.838747,0.830671,-9.639714,-1.598845,0.57712,0.484288,-0.239902,-0.175013,-0.103236,-0.01405,20,-18.96,41.16,24.54,192.9247,80.1898,-152.6528,0,1017.97,50.91532,,,,,,0 / 0,82.6,39,3.717,1197,2014-11-17 17:16:39:274
1.407791,-9.155426,-1.838747,0.830671,-9.639714,-1.598845,0.57712,0.484288,-0.239902,-0.191812,-0.119424,-0.058643,20,-19.08,40.68,24.96,192.9247,80.1898,-152.6528,0,1017.97,50.91532,,,,,,0 / 0,82.6,39,3.717,1252,2014-11-17 17:16:39:329
1.254562,-9.38527,-1.924938,0.950527,-9.581942,-1.858302,0.304035,0.196671,-0.066636,-0.227547,-0.13775,-0.087048,19,-19.26,40.02,25.44,193.6356,78.6066,-152.7371,0,1018.01,50.91532,,,,,,0 / 0,82.6,39,3.717,1323,2014-11-17 17:16:39:400
1.11091,-9.471462,-1.723825,0.976112,-9.56757,-1.918131,0.134797,0.096107,0.194306,-0.075136,-0.044593,-0.005498,20,-19.5,39.72,26.34,193.6356,78.6066,-152.7371,0,1018.01,50.91532,,,,,,0 / 0,82.6,39,3.717,1373,2014-11-17 17:16:39:450
1.11091,-9.471462,-1.723825,0.976112,-9.56757,-1.918131,0.134797,0.096107,0.194306,-0.038179,0.015577,0.019853,20,-19.92,38.94,26.46,194.76,77.3224,-153.029,0,1018.01,56.02165,,,,,,0 / 0,82.6,39,3.717,1424,2014-11-17 17:16:39:501
0.871489,-9.366116,-1.723825,0.992602,-9.563542,-1.929713,-0.121113,0.197425,0.205888,0.015882,0.156687,0.035125,22,-20.28,38.82,26.16,194.4666,77.2157,-152.7797,0,1018.01,56.02165,,,,,,0 / 0,82.6,39,3.717,1478,2014-11-17 17:16:39:555
1.187524,-9.471462,-2.375048,1.018969,-9.560218,-1.932439,0.168555,0.088757,-0.442609,-0.102625,-0.040317,0.004276,19,-20.82,38.64,26.58,193.9163,77.1282,-152.1975,0,1018.01,56.02165,,,,,,0 / 0,82.6,39,3.717,1542,2014-11-17 17:16:39:619
1.359907,-9.35654,-1.790863,1.054434,-9.545294,-1.986442,0.305473,0.188753,0.195579,-0.134696,-0.10232,-0.043371,0,-21.06,38.52,26.46,193.9163,77.1282,-152.1975,0,1018.01,56.02165,,,,,,0 / 0,82.6,39,3.717,1597,2014-11-17 17:16:39:674
1.187524,-9.107542,-2.48997,1.099859,-9.518818,-2.086338,0.087665,0.411276,-0.403632,-0.189368,-0.051924,-0.029932,20,-20.94,37.92,27.3,194.2605,76.084,-152.203,0,1018.01,56.02165,,,,,,0 / 0,82.6,39,3.717,1661,2014-11-17 17:16:39:738
1.216255,-9.490616,-2.250549,1.156681,-9.479404,-2.2301,0.059574,-0.01121,-0.02045,-0.286496,-0.165239,-0.087048,0,-21.18,37.74,27.36,194.2605,76.084,-152.203,0,1018.03,56.02165,,,,,,0 / 0,82.6,39,3.717,1720,2014-11-17 17:16:39:797
1.034295,-9.519346,-1.972822,1.202559,-9.434932,-2.388793,-0.168264,-0.084414,0.415971,-0.178067,-0.186925,0.004276,17,-20.58,37.2,28.62,193.6717,75.1568,-152.5857,0,1018.03,48.45845,,,,,,0 / 0,82.6,39,3.717,1772,2014-11-17 17:16:39:849
1.56102,-9.040504,-2.442086,1.214482,-9.403598,-2.503559,0.346537,0.363092,0.061474,-0.110872,-0.12034,0.032376,0,-20.52,36.9,29.1,194.9794,73.5162,-154.1219,0,1018.03,48.45845,,,,,,0 / 0,82.6,39,3.717,1827,2014-11-17 17:16:39:904
1.321599,-9.088388,-2.422932,1.245791,-9.375042,-2.593647,0.075808,0.286653,0.170715,-0.239765,-0.03879,-0.052534,0,-20.52,36.54,30.24,194.0783,72.9381,-154.3439,0,1018.04,48.45845,,,,,,0 / 0,82.6,39,3.717,1890,2014-11-17 17:16:39:967
1.244985,-9.337386,-2.154781,1.297633,-9.342138,-2.685332,-0.052648,0.004752,0.530551,0.045204,0.010385,-0.003054,9,-20.34,36.36,30.42,194.0783,72.9381,-154.3439,0,1018.04,48.45845,,,,,,0 / 0,82.6,39,3.717,1946,2014-11-17 17:16:40:023
1.541866,-9.38527,-2.911349,1.329913,-9.340328,-2.675816,0.211953,-0.044943,-0.235533,-0.054062,0.149357,0.081856,0,-20.82,35.94,30.84,190.6954,72.2946,-154.2088,0,1018.04,48.45845,,,,,,0 / 0,82.6,39,3.717,2015,2014-11-17 17:16:40:092
1.321599,-9.270348,-2.691083,1.337654,-9.334422,-2.692519,-0.016055,0.064074,0.001436,-0.00733,0.139888,0.086132,12,-21,35.64,30.54,191.6677,72.147,-153.5816,0,1018.05,48.45845,,,,,,0 / 0,82.6,39,3.717,2071,2014-11-17 17:16:40:148
1.292869,-9.241618,-2.576161,1.342981,-9.335342,-2.686659,-0.050112,0.093725,0.110498,-0.025351,0.152716,0.078802,0,-21.54,35.52,30.6,191.6677,72.147,-153.5816,0,1018.05,48.45845,,,,,,0 / 0,82.6,39,3.717,2128,2014-11-17 17:16:40:205
1.283292,-9.289502,-2.786851,1.338008,-9.335646,-2.688088,-0.054715,0.046144,-0.098763,-6.11E-04,0.126144,0.107818,0,-21.66,35.64,30.36,194.6987,72.1646,-153.4409,0,1018.05,46.1256,,,,,,0 / 0,82.6,39,3.717,2197,2014-11-17 17:16:40:274
1.35033,-9.212888,-2.633622,1.326381,-9.341378,-2.673907,0.023949,0.128491,0.040285,0.029016,0.07086,0.098349,15,-21.66,35.58,30.66,193.4492,72.28,-153.6165,0,1018.11,46.1256,,,,,,0 / 0,82.6,39,3.717,2249,2014-11-17 17:16:40:326
1.398214,-9.136272,-2.863465,1.320628,-9.344658,-2.665268,0.077586,0.208385,-0.198197,-0.010996,0.057727,0.051618,0,-21.54,35.46,30.42,193.4492,72.28,-153.6165,0,1018.11,46.1256,,,,,,0 / 0,82.6,39,3.717,2304,2014-11-17 17:16:40:381
1.37906,-9.165004,-2.614468,1.334065,-9.339946,-2.675079,0.044995,0.174942,0.060611,-0.043982,0.018021,0.032376,12,-21.6,35.52,30.42,192.9624,72.3432,-153.6418,0,1018.11,46.1256,,,,,,0 / 0,82.6,39,3.717,2358,2014-11-17 17:16:40:435
1.177947,-9.366116,-2.595315,1.345269,-9.333466,-2.692028,-0.167322,-0.03265,0.096714,-0.037568,0.045204,0.033292,20,-21.18,35.88,30.48,192.9396,72.2526,-153.4945,0,1018.06,46.1256,,,,,,0 / 0,82.6,39,3.717,2428,2014-11-17 17:16:40:505
1.264139,-9.20331,-2.595315,1.357953,-9.328016,-2.70452,-0.093814,0.124706,0.109205,-0.028405,0.007025,0.037568,17,-21.36,35.7,30.36,192.7986,72.0253,-153.3385,0,1018.06,46.1256,,,,,,0 / 0,82.6,39,3.717,2484,2014-11-17 17:16:40:561
1.321599,-9.318232,-2.72939,1.362273,-9.32543,-2.711264,-0.040674,0.007197,-0.018126,-0.004887,0.020769,0.058032,0,-21.6,35.34,30.36,194.4293,71.9764,-153.3228,0,1018.06,43.49024,,,,,,0 / 0,82.6,39,3.717,2553,2014-11-17 17:16:40:630
1.225831,-9.212888,-2.585738,1.363849,-9.325644,-2.709738,-0.138018,0.112756,0.124001,0.010996,0.021686,0.049786,20,-21.54,35.34,30.24,194.3686,71.9804,-153.2832,0,1018.05,43.49024,,,,,,0 / 0,82.6,39,3.717,2627,2014-11-17 17:16:40:704
1.340753,-9.193734,-2.796427,1.367424,-9.32549,-2.708469,-0.026671,0.131756,-0.087959,-0.007941,0.005192,0.049175,12,-21.54,35.52,30.6,194.3686,71.9804,-153.2832,0,1018.05,43.49024,,,,,,0 / 0,82.6,39,3.717,2686,2014-11-17 17:16:40:763
1.283292,-9.251194,-2.633622,1.36827,-9.324682,-2.710818,-0.084978,0.073487,0.077196,6.11E-04,0.008247,0.057421,20,-21.54,35.58,30.24,194.264,71.9775,-153.2122,0,1018.05,43.49024,,,,,,0 / 0,82.6,39,3.717,2752,2014-11-17 17:16:40:829
1.37906,-9.136272,-2.834735,1.366459,-9.32447,-2.712466,0.012601,0.188196,-0.122269,0.003054,-0.015882,0.051313,0,-21.36,35.76,29.58,194.4772,71.9736,-153.2343,0,1018.05,43.49024,,,,,,0 / 0,82.6,39,3.717,2824,2014-11-17 17:16:40:901
1.37906,-9.155426,-2.710236,1.368161,-9.324284,-2.71224,0.010899,0.168858,0.002004,0.002749,-0.007025,0.052534,20,-21.36,35.88,29.94,192.7107,71.9582,-153.2624,0,1018.05,43.49024,,,,,,0 / 0,82.6,39,3.717,2895,2014-11-17 17:16:40:972
1.206678,-9.260772,-2.614468,1.371601,-9.323898,-2.711832,-0.164924,0.063127,0.097364,-0.001833,0.017715,0.046426,12,-21.36,36,30.54,191.1196,71.9475,-153.1704,0,1018.1,44.28357,,,,,,0 / 0,82.6,39,3.717,2983,2014-11-17 17:16:41:060
1.331176,-9.222464,-2.700659,1.377382,-9.321498,-2.717149,-0.046206,0.099033,0.01649,0.008858,-0.014355,0.048258,0,-20.82,35.82,30.9,191.0915,71.9225,-153.146,0,1018.1,44.28357,,,,,,0 / 0,82.6,39,3.717,3061,2014-11-17 17:16:41:138
1.331176,-9.222464,-2.700659,1.377382,-9.321498,-2.717149,-0.046206,0.099033,0.01649,0.003665,0.008247,0.053145,0,-21.06,35.64,31.02,191.0571,71.9023,-153.1186,0,1018.1,44.28357,,,,,,0 / 0,82.6,39,3.717,3113,2014-11-17 17:16:41:190
1.331176,-9.184156,-2.738967,1.377648,-9.322142,-2.714799,-0.046471,0.137985,-0.024168,-0.001527,0.012217,0.054672,0,-21.24,35.7,30.66,191.0571,71.9023,-153.1186,0,1018.02,44.28357,,,,,,0 / 0,82.6,39,3.717,3164,2014-11-17 17:16:41:241
1.369483,-9.184156,-2.72939,1.378549,-9.32218,-2.714223,-0.009066,0.138023,-0.015167,-0.005803,0.018937,0.05284,20,-21.42,35.58,30.3,192.441,71.9151,-153.074,0,1018.02,44.28357,,,,,,0 / 0,82.6,39,3.717,3215,2014-11-17 17:16:41:292
1.321599,-9.251194,-2.72939,1.380824,-9.321656,-2.71486,-0.059224,0.070462,-0.01453,6.11E-04,0.012828,0.054367,12,-21.6,35.7,30.12,192.441,71.9151,-153.074,0,1018.02,37.89996,,,,,,0 / 0,82.6,39,3.717,3270,2014-11-17 17:16:41:347
1.302446,-9.241618,-2.662352,1.38171,-9.32198,-2.713298,-0.079264,0.080363,0.050946,0.00336,0.016493,0.053756,20,-21.18,35.58,30.12,192.395,71.9052,-153.0413,0,1018.1,37.89996,,,,,,0 / 0,82.6,39,3.717,3327,2014-11-17 17:16:41:404
1.321599,-9.184156,-2.853888,1.381296,-9.32353,-2.708179,-0.059696,0.139373,-0.14571,0.012523,0.023518,0.061392,0,-21,35.7,30.42,192.3494,71.9114,-153.0131,0,1018.1,37.89996,,,,,,0 / 0,82.6,39,3.717,3392,2014-11-17 17:16:41:469
1.35033,-9.222464,-2.652775,1.383981,-9.324026,-2.705094,-0.033651,0.101563,0.052319,0.00336,0.028711,0.058643,0,-21.3,35.4,30.36,192.0134,71.9499,-152.9048,0,1018.1,37.89996,,,,,,0 / 0,82.6,39,3.717,3442,2014-11-17 17:16:41:519
1.197101,-9.251194,-2.700659,1.383036,-9.32491,-2.702531,-0.185935,0.073715,0.001872,0.001833,0.043982,0.058643,20,-21.36,35.58,30.54,192.0134,71.9499,-152.9048,0,1018.1,37.89996,,,,,,0 / 0,82.6,39,3.717,3500,2014-11-17 17:16:41:577
1.273715,-9.184156,-2.72939,1.381182,-9.327584,-2.694231,-0.107467,0.143427,-0.035159,0.013439,0.032987,0.068417,0,-21.48,35.76,30.6,193.974,71.9666,-152.8986,0,1018.1,37.89996,,,,,,0 / 0,82.6,39,3.717,3567,2014-11-17 17:16:41:644
1.340753,-9.165004,-2.710236,1.379945,-9.329154,-2.689435,-0.039192,0.16415,-0.020802,0.01069,0.030543,0.053145,20,-21.48,35.76,30.84,190.6224,72.0171,-152.8583,0,1018.1,37.89996,,,,,,0 / 0,82.6,39,3.717,3644,2014-11-17 17:16:41:721
1.254562,-9.270348,-2.681506,1.383256,-9.329978,-2.684863,-0.128695,0.05963,0.003357,-0.002749,0.018326,0.053145,0,-21.42,35.64,30.78,190.4271,72.0675,-152.7405,0,1018.1,43.48828,,,,,,0 / 0,82.6,39,3.717,3717,2014-11-17 17:16:41:794
1.254562,-9.270348,-2.681506,1.383256,-9.329978,-2.684863,-0.128695,0.05963,0.003357,0.009468,0.023518,0.054062,0,-21.48,35.58,30.72,190.4315,72.0625,-152.7422,0,1018.1,43.48828,,,,,,0 / 0,82.6,39,3.717,3769,2014-11-17 17:16:41:846
1.331176,-9.212888,-2.662352,1.385256,-9.331136,-2.679799,-0.05408,0.118249,0.017447,0.010079,0.012828,0.0562,20,-21.66,35.76,31.02,190.4315,72.0625,-152.7422,0,1018.1,43.48828,,,,,,0 / 0,82.6,39,3.717,3819,2014-11-17 17:16:41:896
1.312023,-9.23204,-2.748543,1.383838,-9.332436,-2.67601,-0.071815,0.100394,-0.072534,-0.007025,0.02138,0.051618,0,-21.48,35.82,31.26,190.2846,72.1092,-152.6553,0,1018.1,43.48828,,,,,,0 / 0,82.6,39,3.717,3872,2014-11-17 17:16:41:949
1.340753,-9.222464,-2.738967,1.38381,-9.333038,-2.673922,-0.043057,0.110574,-0.065044,0.006109,0.01741,0.058643,0,-21.24,36,30.6,190.2653,72.1109,-152.6429,0,1018.1,43.48828,,,,,,0 / 0,82.6,39,3.717,3959,2014-11-17 17:16:42:036
1.283292,-9.23204,-2.576161,1.384175,-9.333178,-2.673246,-0.100883,0.101138,0.097085,-0.001833,0.020159,0.05681,0,-21.24,35.82,30.66,190.254,72.1206,-152.6375,0,1018.09,44.21036,,,,,,0 / 0,82.6,39,3.717,4017,2014-11-17 17:16:42:094
1.283292,-9.23204,-2.576161,1.384175,-9.333178,-2.673246,-0.100883,0.101138,0.097085,0.00336,0.022907,0.059865,0,-21,35.76,30.54,190.254,72.1206,-152.6375,0,1018.09,44.21036,,,,,,0 / 0,82.6,39,3.717,4067,2014-11-17 17:16:42:144
1.369483,-9.136272,-2.710236,1.385387,-9.332964,-2.67336,-0.015903,0.196691,-0.036876,-0.010079,0.020159,0.051618,12,-20.7,35.64,30.54,190.0822,72.1192,-152.6059,0,1018.09,44.21036,,,,,,0 / 0,82.6,39,3.717,4127,2014-11-17 17:16:42:204
1.283292,-9.23204,-2.585738,1.388863,-9.331614,-2.676267,-0.105571,0.099574,0.090529,-0.002138,0.028711,0.045204,0,-20.88,35.46,30.48,191.4595,72.0936,-152.5727,0,1018.09,44.21036,,,,,,0 / 0,82.6,39,3.717,4184,2014-11-17 17:16:42:261
1.283292,-9.184156,-2.72939,1.39323,-9.330318,-2.67851,-0.109938,0.146162,-0.05088,-0.008858,0.010385,0.049786,12,-21.3,35.58,30.9,191.4595,72.0936,-152.5727,0,1018.05,44.21036,,,,,,0 / 0,82.6,39,3.717,4235,2014-11-17 17:16:42:312
1.254562,-9.251194,-2.614468,1.394179,-9.32922,-2.681851,-0.139617,0.078025,0.067383,-0.00336,0.015882,0.050396,0,-21.48,35.34,31.14,191.7544,72.069,-152.5187,0,1018.05,44.21036,,,,,,0 / 0,82.6,39,3.717,4289,2014-11-17 17:16:42:366
1.312023,-9.184156,-2.825158,1.394573,-9.328314,-2.684799,-0.08255,0.144156,-0.140359,-0.003971,0.011301,0.05284,20,-21.36,35.46,31.2,190.028,72.0309,-152.5512,0,1018.05,44.21036,,,,,,0 / 0,82.6,39,3.717,4354,2014-11-17 17:16:42:431
1.292869,-9.20331,-2.681506,1.394768,-9.327962,-2.685914,-0.101899,0.124651,0.004408,-6.11E-04,0.026267,0.04948,12,-21.06,35.52,30.84,190.1647,72.0243,-152.5576,0,1018.1,24.45844,,,,,,0 / 0,82.6,39,3.717,4422,2014-11-17 17:16:42:499
1.321599,-9.126696,-2.767697,1.398043,-9.32689,-2.687934,-0.076444,0.200194,-0.079763,-0.001222,0.029627,0.053451,0,-21.42,35.52,30.54,190.1647,72.0243,-152.5576,0,1018.1,24.45844,,,,,,0 / 0,82.6,39,3.717,4473,2014-11-17 17:16:42:550
1.292869,-9.20331,-2.671929,1.403577,-9.324862,-2.692073,-0.110708,0.121552,0.020144,-0.012828,0.028405,0.042455,12,-21.18,35.58,30.3,189.9901,72.004,-152.5202,0,1018.1,24.45844,,,,,,0 / 0,82.6,39,3.717,4535,2014-11-17 17:16:42:612
1.235408,-9.222464,-2.719813,1.409583,-9.322276,-2.697893,-0.174175,0.099812,-0.02192,0.001527,0.032376,0.046426,0,-21.54,35.64,30.36,193.2628,71.9169,-152.414,0,1018.07,24.45844,,,,,,0 / 0,82.6,39,3.717,4596,2014-11-17 17:16:42:673
1.340753,-9.23204,-2.614468,1.414377,-9.321756,-2.697182,-0.073624,0.089716,0.082714,0.002138,0.0281,0.055589,20,-21.36,35.46,30.54,189.7314,71.9072,-152.3279,0,1018.07,24.45844,,,,,,0 / 0,82.6,39,3.717,4658,2014-11-17 17:16:42:735
1.35033,-9.184156,-2.767697,1.417116,-9.320974,-2.698441,-0.066786,0.136817,-0.069256,-0.001833,0.048869,0.050702,12,-21.3,35.46,30.78,189.7314,71.9072,-152.3279,0,1018.07,24.45844,,,,,,0 / 0,82.6,39,3.717,4714,2014-11-17 17:16:42:791
1.225831,-9.17458,-2.748543,1.420112,-9.32048,-2.698574,-0.194281,0.145901,-0.049969,-0.002749,0.025045,0.05284,20,-21.06,35.52,30.6,189.7348,71.8832,-152.2446,0,1018.04,23.82016,,,,,,0 / 0,82.6,39,3.717,4783,2014-11-17 17:16:42:860
1.302446,-9.241618,-2.643199,1.42246,-9.320168,-2.69841,-0.120014,0.07855,0.055211,0.009163,0.019242,0.047037,12,-20.94,35.64,30.84,189.6751,71.8774,-152.2042,0,1018.04,23.82016,,,,,,0 / 0,82.6,39,3.717,4851,2014-11-17 17:16:42:928
1.417368,-9.222464,-2.75812,1.427958,-9.32003,-2.69599,-0.01059,0.097567,-0.06213,0.002443,0.026573,0.056505,0,-21.42,35.4,30.42,190.896,71.8772,-152.1483,0,1018.04,23.82016,,,,,,0 / 0,82.6,39,3.717,4923,2014-11-17 17:16:43:000
1.273715,-9.222464,-2.72939,1.430232,-9.319864,-2.69536,-0.156517,0.097401,-0.03403,-0.001833,0.036041,0.049786,9,-21.48,35.28,30.18,190.7464,71.8716,-152.0483,0,1018.04,23.82016,,,,,,0 / 0,82.6,39,3.717,4989,2014-11-17 17:16:43:066
1.359907,-9.212888,-2.633622,1.430166,-9.322168,-2.687415,-0.07026,0.109281,0.053793,0.004887,0.034514,0.058948,20,-21.48,35.28,30.36,190.7464,71.8716,-152.0483,0,1018.04,23.82016,,,,,,0 / 0,82.6,39,3.717,5042,2014-11-17 17:16:43:119
1.359907,-9.212888,-2.633622,1.430166,-9.322168,-2.687415,-0.07026,0.109281,0.053793,0.013439,0.02474,0.058948,20,-21.54,35.4,30.72,191.0071,71.9149,-151.9793,0,1018.04,23.82016,,,,,,0 / 0,82.6,39,3.717,5097,2014-11-17 17:16:43:174
1.369483,-9.212888,-2.700659,1.431462,-9.323236,-2.683017,-0.061979,0.110349,-0.017643,0.005498,0.015577,0.058338,0,-21.9,35.58,31.02,191.0854,71.9362,-151.9466,0,1017.99,29.09523,,,,,,0 / 0,82.6,39,3.717,5169,2014-11-17 17:16:43:246
1.264139,-9.308656,-2.633622,1.429696,-9.323346,-2.683581,-0.165557,0.01469,0.049959,-0.00336,0.022602,0.05284,0,-21.84,35.4,30.78,191.0854,71.9362,-151.9466,0,1017.99,29.09523,,,,,,0 / 0,82.6,39,3.717,5224,2014-11-17 17:16:43:301
1.37906,-9.222464,-2.786851,1.427224,-9.323024,-2.68601,-0.048164,0.10056,-0.100841,0.012828,-0.010996,0.061087,0,-21.36,35.4,30.72,189.1596,71.9371,-151.9532,0,1018.02,29.09523,,,,,,0 / 0,82.6,39,3.717,5282,2014-11-17 17:16:43:359
1.369483,-9.184156,-2.844312,1.419858,-9.324396,-2.685147,-0.050375,0.14024,-0.159165,0.011301,-0.011606,0.059865,20,-21.36,35.16,30.66,189.2555,71.931,-152.0158,0,1018.02,29.09523,,,,,,0 / 0,82.6,39,3.717,5338,2014-11-17 17:16:43:415
1.369483,-9.184156,-2.844312,1.419858,-9.324396,-2.685147,-0.050375,0.14024,-0.159165,3.05E-04,-0.003971,0.048564,20,-21.18,35.34,30.6,189.4207,71.9569,-152.1309,0,1018.02,29.09523,,,,,,0 / 0,82.6,39,3.717,5393,2014-11-17 17:16:43:470
1.254562,-9.17458,-2.700659,1.416506,-9.324648,-2.686052,-0.161945,0.150068,-0.014608,0.00336,0.007025,0.05681,0,-20.94,35.58,30.66,189.4207,71.9569,-152.1309,0,1018.02,29.09523,,,,,,0 / 0,82.6,39,3.717,5453,2014-11-17 17:16:43:530
1.273715,-9.241618,-2.585738,1.4114,-9.32612,-2.683612,-0.137685,0.084503,0.097875,0.013439,0.023518,0.064446,20,-20.52,35.82,30.54,189.7227,71.9895,-152.2586,0,1018.05,52.95842,,,,,,0 / 0,82.6,39,3.717,5506,2014-11-17 17:16:43:583
1.244985,-9.289502,-2.595315,1.407443,-9.329418,-2.674215,-0.162458,0.039917,0.0789,9.16E-04,0.014661,0.053145,0,-21.12,35.88,30.9,189.6734,72.0235,-152.2332,0,1018.05,52.95842,,,,,,0 / 0,82.6,39,3.717,5584,2014-11-17 17:16:43:661
1.264139,-9.184156,-2.710236,1.408308,-9.330974,-2.668334,-0.14417,0.146816,-0.041903,0.012828,0.025962,0.053756,20,-21.6,35.7,30.78,191.4883,72.0519,-152.2421,0,1018.02,52.95842,,,,,,0 / 0,82.6,39,3.717,5638,2014-11-17 17:16:43:715
1.264139,-9.184156,-2.710236,1.408308,-9.330974,-2.668334,-0.14417,0.146816,-0.041903,-6.11E-04,0.015882,0.055283,20,-21.48,35.64,31.02,191.4883,72.0519,-152.2421,0,1018.02,52.95842,,,,,,0 / 0,82.6,39,3.717,5688,2014-11-17 17:16:43:765
1.283292,-9.260772,-2.700659,1.405858,-9.331662,-2.667213,-0.122566,0.070891,-0.033446,0.00672,0.031154,0.062003,0,-21.54,35.64,30.84,191.42,72.0945,-152.2068,0,1018.02,52.95842,,,,,,0 / 0,82.6,39,3.717,5748,2014-11-17 17:16:43:825
1.292869,-9.155426,-2.662352,1.403013,-9.333116,-2.663629,-0.110144,0.177689,0.001277,0.005498,0.029627,0.0562,20,-21.36,35.64,31.2,189.6272,72.1221,-152.2229,0,1018.02,52.95842,,,,,,0 / 0,82.6,39,3.717,5801,2014-11-17 17:16:43:878
1.312023,-9.222464,-2.585738,1.40389,-9.333932,-2.660305,-0.091868,0.111467,0.074568,-0.007025,0.03146,0.048258,0,-21.54,35.64,30.9,189.6272,72.1221,-152.2229,0,1018.03,54.80915,,,,,,0 / 0,82.6,39,3.717,5851,2014-11-17 17:16:43:928
1.254562,-9.260772,-2.595315,1.405799,-9.334346,-2.657845,-0.151237,0.073574,0.06253,0.005192,0.022602,0.054367,0,-21.36,35.88,30.84,189.4715,72.1455,-152.1246,0,1018.03,54.80915,,,,,,0 / 0,82.6,39,3.717,5903,2014-11-17 17:16:43:980
1.340753,-9.17458,-2.767697,1.405382,-9.335374,-2.654446,-0.064629,0.160794,-0.113251,0.002138,0.025656,0.054062,12,-21.48,35.94,30.78,189.4303,72.1651,-152.1013,0,1018.03,54.80915,,,,,,0 / 0,82.6,39,3.717,5962,2014-11-17 17:16:44:039
1.273715,-9.260772,-2.652775,1.404508,-9.336146,-2.652192,-0.130793,0.075376,-5.83E-04,0.004276,0.03207,0.05681,0,-20.94,35.7,31.14,189.4303,72.1651,-152.1013,0,1018.05,54.80915,,,,,,0 / 0,82.6,39,3.717,6037,2014-11-17 17:16:44:114
1.302446,-9.184156,-2.652775,1.406261,-9.336824,-2.648877,-0.103815,0.152667,-0.003898,0.001222,0.034514,0.054672,15,-20.64,35.76,31.56,187.9798,72.1928,-152.0366,0,1018.05,54.80915,,,,,,0 / 0,82.6,39,3.717,6109,2014-11-17 17:16:44:186
1.340753,-9.193734,-2.662352,1.408693,-9.337266,-2.646026,-0.06794,0.143532,-0.016326,0.009163,0.032376,0.059559,0,-20.52,35.76,31.62,187.9798,72.1928,-152.0366,0,1018.08,53.00629,,,,,,0 / 0,82.6,39,3.717,6269,2014-11-17 17:16:44:346
1.302446,-9.260772,-2.604891,1.412196,-9.335892,-2.649005,-0.109751,0.07512,0.044114,-9.16E-04,0.025656,0.057116,0,-21.66,35.52,30.3,187.9798,72.1928,-152.0366,0,1018.08,53.00629,,,,,,0 / 0,82.6,39,3.717,6320,2014-11-17 17:16:44:397
1.302446,-9.23204,-2.662352,1.40973,-9.336908,-2.646733,-0.107284,0.104867,-0.015619,0.007025,0.015577,0.0562,15,-21.3,35.88,30,190.6095,72.175,-151.9377,0,1018.08,53.00629,,,,,,0 / 0,82.6,39,3.717,6382,2014-11-17 17:16:44:459
1.37906,-9.222464,-2.691083,1.407076,-9.337318,-2.646689,-0.028016,0.114854,-0.044394,-0.001222,0.015577,0.051313,0,-21.24,36.24,30.6,189.2713,72.2023,-152.0033,0,1018.08,53.00629,,,,,,0 / 0,82.6,39,3.717,6462,2014-11-17 17:16:44:539
1.312023,-9.222464,-2.652775,1.407921,-9.33634,-2.649702,-0.095898,0.113875,-0.003073,-0.006109,0.024435,0.051313,0,-21.48,36.24,31.08,189.2962,72.1836,-152.016,0,1018.08,53.00629,,,,,,0 / 0,82.6,39,3.717,6512,2014-11-17 17:16:44:589
1.312023,-9.23204,-2.691083,1.409238,-9.33598,-2.650268,-0.097215,0.10394,-0.040815,-9.16E-04,0.025962,0.0562,9,-21.78,36,31.2,189.2962,72.1836,-152.016,0,1018.01,53.00629,,,,,,0 / 0,82.6,39,3.717,6569,2014-11-17 17:16:44:646
1.369483,-9.251194,-2.72939,1.408459,-9.335798,-2.651322,-0.038976,0.084604,-0.078068,0.009468,0.016799,0.061087,20,-21.54,35.7,30.3,191.0798,72.1767,-151.9989,0,1018.01,41.59396,,,,,,0 / 0,82.6,39,3.717,6641,2014-11-17 17:16:44:718
1.283292,-9.193734,-2.662352,1.404416,-9.336976,-2.649327,-0.121124,0.143242,-0.013026,0.004276,0.00672,0.052534,12,-21.24,35.52,30.42,190.8061,72.1957,-152.0718,0,1018.01,41.59396,,,,,,0 / 0,82.6,39,3.717,6709,2014-11-17 17:16:44:786
1.312023,-9.222464,-2.738967,1.402029,-9.336814,-2.651157,-0.090006,0.114349,-0.08781,-6.11E-04,0.024435,0.054672,0,-20.94,35.4,30.66,189.3482,72.1926,-152.1285,0,1018.05,41.59396,,,,,,0 / 0,82.6,39,3.717,6767,2014-11-17 17:16:44:844
1.312023,-9.193734,-2.681506,1.401519,-9.336736,-2.651697,-0.089497,0.143002,-0.029809,0.003665,0.037874,0.059254,0,-21,35.4,30.96,189.3482,72.1926,-152.1285,0,1018.05,41.59396,,,,,,0 / 0,82.6,39,3.717,6824,2014-11-17 17:16:44:901
1.264139,-9.20331,-2.652775,1.399257,-9.337934,-2.64867,-0.135119,0.134624,-0.004105,0.001833,0.025656,0.058948,12,-21.36,35.64,31.14,189.3686,72.1911,-152.1419,0,1018.05,41.59396,,,,,,0 / 0,82.6,39,3.717,6876,2014-11-17 17:16:44:953
1.321599,-9.17458,-2.624045,1.398527,-9.338072,-2.648569,-0.076928,0.163491,0.024524,-0.003971,0.025656,0.056505,20,-21.54,35.7,30.96,191.3133,72.2167,-152.1645,0,1018.03,41.59396,,,,,,0 / 0,82.6,39,3.717,6938,2014-11-17 17:16:45:015
1.283292,-9.212888,-2.700659,1.397263,-9.338264,-2.64857,-0.113971,0.125376,-0.052089,0.001833,0.029627,0.057727,12,-21.42,36.06,30.78,189.5413,72.2203,-152.1859,0,1018.03,50.77672,,,,,,0 / 0,82.6,39,3.717,6996,2014-11-17 17:16:45:073
1.321599,-9.20331,-2.662352,1.39576,-9.338786,-2.647524,-0.074161,0.135475,-0.014829,-0.005498,0.026267,0.057727,0,-21.54,35.88,30.6,189.5413,72.2203,-152.1859,0,1018.03,50.77672,,,,,,0 / 0,82.6,39,3.717,7059,2014-11-17 17:16:45:136
1.302446,-9.251194,-2.643199,1.394686,-9.338278,-2.649869,-0.092241,0.087084,0.006671,0.007941,0.016493,0.053145,0,-21.66,35.7,30.84,189.5625,72.2303,-152.202,0,1018.03,50.77672,,,,,,0 / 0,82.6,39,3.717,7120,2014-11-17 17:16:45:197
1.312023,-9.212888,-2.786851,1.394214,-9.338474,-2.649428,-0.082191,0.125587,-0.137423,-0.004276,0.012828,0.053451,0,-21.42,35.52,30.78,189.6294,72.2244,-152.2452,0,1018.03,50.77672,,,,,,0 / 0,82.6,39,3.717,7180,2014-11-17 17:16:45:257
1.340753,-9.184156,-2.719813,1.392945,-9.337556,-2.653327,-0.052192,0.153399,-0.066486,0.009774,0.010079,0.057421,20,-21.18,35.76,30.72,189.7194,72.2068,-152.3014,0,1018.03,50.77672,,,,,,0 / 0,82.6,39,3.717,7239,2014-11-17 17:16:45:316
1.292869,-9.165004,-2.681506,1.392573,-9.337472,-2.653817,-0.099704,0.172469,-0.027689,0.001222,0.018937,0.052534,12,-21.18,35.7,30.72,189.7194,72.2068,-152.3014,0,1018.04,50.77672,,,,,,0 / 0,82.6,39,3.717,7292,2014-11-17 17:16:45:369
1.283292,-9.270348,-2.557007,1.392238,-9.338138,-2.651661,-0.108946,0.067789,0.094653,0.008858,0.024129,0.061087,0,-21,35.7,30.24,191.1676,72.2052,-152.312,0,1018.04,50.08098,,,,,,0 / 0,82.6,39,3.717,7364,2014-11-17 17:16:45:441
1.292869,-9.20331,-2.72939,1.388709,-9.33917,-2.649861,-0.095839,0.13586,-0.079528,0.007941,0.013744,0.057421,17,-20.76,35.82,30.36,191.2017,72.2377,-152.3424,0,1018.04,50.08098,,,,,,0 / 0,82.6,39,3.717,7434,2014-11-17 17:16:45:511
1.292869,-9.212888,-2.614468,1.385533,-9.340926,-2.645333,-0.092664,0.128038,0.030865,0.001527,0.015577,0.061087,0,-20.76,35.88,30.6,189.7816,72.2714,-152.356,0,1018.05,50.08098,,,,,,0 / 0,82.6,39,3.717,7496,2014-11-17 17:16:45:573
1.321599,-9.212888,-2.777274,1.3783,-9.3425,-2.643555,-0.056701,0.129612,-0.133719,0.008552,0.025656,0.061392,0,-21,35.94,30.54,189.7816,72.2714,-152.356,0,1018.05,50.08098,,,,,,0 / 0,82.6,39,3.717,7570,2014-11-17 17:16:45:647
1.312023,-9.299078,-2.710236,1.37675,-9.342336,-2.644932,-0.064728,0.043258,-0.065304,-3.05E-04,0.024435,0.055589,20,-21.06,35.88,30.84,189.9333,72.3016,-152.4633,0,1018.05,50.08098,,,,,,0 / 0,82.6,39,3.717,7629,2014-11-17 17:16:45:706
1.254562,-9.23204,-2.643199,1.37949,-9.340884,-2.648631,-0.124929,0.108844,0.005433,-0.009163,0.028711,0.047342,0,-20.7,35.76,30.72,189.9923,72.2985,-152.5019,0,1018.05,50.08098,,,,,,0 / 0,82.6,39,3.717,7679,2014-11-17 17:16:45:756
1.254562,-9.23204,-2.643199,1.37949,-9.340884,-2.648631,-0.124929,0.108844,0.005433,0.002443,0.023824,0.054978,0,-20.64,35.88,30.66,189.9923,72.2985,-152.5019,0,1018.05,44.25019,,,,,,0 / 0,82.6,39,3.717,7733,2014-11-17 17:16:45:810
1.321599,-9.260772,-2.643199,1.37531,-9.341898,-2.647226,-0.053711,0.081127,0.004028,0.001833,0.016188,0.059254,12,-21,35.82,30.18,191.4103,72.2706,-152.4881,0,1018.03,44.25019,,,,,,0 / 0,82.6,39,3.717,7801,2014-11-17 17:16:45:878
1.321599,-9.260772,-2.643199,1.37531,-9.341898,-2.647226,-0.053711,0.081127,0.004028,0.002749,0.015272,0.057727,12,-21.06,35.82,30.3,191.492,72.2901,-152.5468,0,1018.03,44.25019,,,,,,0 / 0,82.6,39,3.717,7851,2014-11-17 17:16:45:928
1.264139,-9.222464,-2.614468,1.372611,-9.342442,-2.64672,-0.108473,0.119977,0.032252,0.008552,0.008858,0.055283,0,-21.24,35.76,30.48,191.5509,72.3004,-152.5884,0,1018.03,44.25019,,,,,,0 / 0,82.6,39,3.717,7906,2014-11-17 17:16:45:983
1.264139,-9.222464,-2.633622,1.368343,-9.34369,-2.644528,-0.104205,0.121225,0.010906,0.003971,0.004887,0.051618,20,-21.3,35.88,30.72,191.5509,72.3004,-152.5884,0,1018.03,44.25019,,,,,,0 / 0,82.6,39,3.717,7957,2014-11-17 17:16:46:034
1.321599,-9.17458,-2.671929,1.366256,-9.34403,-2.644405,-0.044657,0.16945,-0.027524,0.00336,0.011912,0.05681,0,-21.42,35.76,30.54,190.194,72.3244,-152.6419,0,1018.02,44.25019,,,,,,0 / 0,82.6,39,3.717,8010,2014-11-17 17:16:46:087
1.292869,-9.241618,-2.710236,1.363835,-9.343556,-2.647325,-0.070966,0.101938,-0.062912,0.001222,0.015882,0.051313,0,-20.76,36.24,30.42,191.7774,72.3219,-152.7436,0,1018.02,44.25019,,,,,,0 / 0,82.6,39,3.717,8062,2014-11-17 17:16:46:139
1.225831,-9.20331,-2.671929,1.363754,-9.34243,-2.651332,-0.137923,0.13912,-0.020597,-0.003971,0.023824,0.048258,12,-20.7,36.24,30.48,191.7774,72.3219,-152.7436,0,1018.02,29.80809,,,,,,0 / 0,82.6,39,3.717,8127,2014-11-17 17:16:46:204
1.321599,-9.270348,-2.643199,1.366119,-9.341712,-2.652634,-0.044519,0.071364,0.009436,0.004581,0.021686,0.054672,0,-20.94,36.24,30.84,190.4096,72.3002,-152.7803,0,1017.99,29.80809,,,,,,0 / 0,82.6,39,3.717,8214,2014-11-17 17:16:46:291
1.254562,-9.222464,-2.691083,1.365142,-9.341618,-2.653479,-0.11058,0.119155,-0.037604,-0.006414,0.038179,0.050091,12,-21.12,36,30.72,190.4075,72.2846,-152.7754,0,1017.99,29.80809,,,,,,0 / 0,82.6,39,3.717,8266,2014-11-17 17:16:46:343
1.264139,-9.212888,-2.738967,1.367353,-9.340328,-2.656881,-0.103214,0.127441,-0.082085,-0.006414,0.029627,0.05284,0,-21.18,35.7,30.6,190.4039,72.2599,-152.7676,0,1017.99,29.80809,,,,,,0 / 0,82.6,39,3.717,8318,2014-11-17 17:16:46:395
1.283292,-9.184156,-2.662352,1.368985,-9.339282,-2.659708,-0.085693,0.155126,-0.002644,-0.002443,0.018326,0.051313,20,-20.94,35.58,30.42,190.4039,72.2599,-152.7676,0,1017.99,29.80809,,,,,,0 / 0,82.6,39,3.717,8376,2014-11-17 17:16:46:453
1.302446,-9.212888,-2.767697,1.367645,-9.338398,-2.663504,-0.065199,0.12551,-0.104193,-0.00672,0.015882,0.050396,12,-21.06,35.82,30.12,191.8407,72.2399,-152.7646,0,1017.99,29.80809,,,,,,0 / 0,82.6,39,3.717,8427,2014-11-17 17:16:46:504
1.254562,-9.260772,-2.710236,1.367721,-9.336988,-2.668406,-0.11316,0.076217,-0.04183,-6.11E-04,0.014966,0.048869,0,-20.7,36.12,30.3,192.0055,72.196,-152.8621,0,1017.99,23.55831,,,,,,0 / 0,82.6,39,3.717,8483,2014-11-17 17:16:46:560
1.235408,-9.260772,-2.700659,1.369511,-9.33446,-2.676319,-0.134102,0.073689,-0.02434,-0.01069,0.018326,0.046731,12,-20.58,36,30.54,190.6417,72.1477,-152.9005,0,1018.04,23.55831,,,,,,0 / 0,82.6,39,3.717,8549,2014-11-17 17:16:46:626
1.264139,-9.251194,-2.624045,1.36903,-9.334154,-2.677628,-0.104892,0.08296,0.053583,0.002443,0.015272,0.05681,0,-20.4,35.94,30.9,190.6417,72.1477,-152.9005,0,1018.04,23.55831,,,,,,0 / 0,82.6,39,3.717,8620,2014-11-17 17:16:46:697
1.292869,-9.222464,-2.777274,1.36673,-9.333562,-2.680874,-0.073861,0.111097,-0.0964,-0.008552,0.022297,0.049175,0,-20.34,35.94,31.44,188.7897,72.1419,-152.92,0,1018.04,23.55831,,,,,,0 / 0,82.6,39,3.717,8678,2014-11-17 17:16:46:755
1.254562,-9.222464,-2.738967,1.368273,-9.331562,-2.687033,-0.113711,0.109097,-0.051934,-0.008247,0.02474,0.045509,12,-20.76,35.94,31.08,190.8321,72.0926,-153.0142,0,1017.99,23.55831,,,,,,0 / 0,82.6,39,3.717,8731,2014-11-17 17:16:46:808
1.321599,-9.193734,-2.719813,1.37312,-9.329622,-2.691303,-0.051521,0.135888,-0.02851,-0.004581,0.031154,0.04948,20,-21,35.76,30.54,190.7766,72.0557,-152.969,0,1017.99,23.55831,,,,,,0 / 0,82.6,39,3.717,8789,2014-11-17 17:16:46:866
1.302446,-9.212888,-2.700659,1.37716,-9.327802,-2.695531,-0.074715,0.114915,-0.005128,-0.001527,0.034819,0.05284,12,-20.82,35.82,30.36,190.7766,72.0557,-152.969,0,1017.99,21.33336,,,,,,0 / 0,82.6,39,3.717,8861,2014-11-17 17:16:46:938
1.273715,-9.251194,-2.777274,1.378161,-9.32628,-2.700292,-0.104446,0.075086,-0.076982,-0.00672,0.023824,0.051007,0,-20.46,35.58,30.9,190.7405,72.0213,-152.9373,0,1018.03,21.33336,,,,,,0 / 0,82.6,39,3.717,8919,2014-11-17 17:16:46:996
1.312023,-9.23204,-2.652775,1.379549,-9.32498,-2.70407,-0.067527,0.092939,0.051295,-0.005803,0.023213,0.050396,0,-20.76,35.76,31.26,190.8093,71.9679,-152.9705,0,1018.03,21.33336,,,,,,0 / 0,82.6,39,3.717,8974,2014-11-17 17:16:47:051
1.264139,-9.222464,-2.75812,1.379784,-9.323624,-2.708622,-0.115645,0.101159,-0.049498,-6.11E-04,0.022602,0.050091,9,-21,35.82,31.38,190.8093,71.9679,-152.9705,0,1018.03,21.33336,,,,,,0 / 0,82.6,39,3.717,9030,2014-11-17 17:16:47:107
1.35033,-9.212888,-2.681506,1.382686,-9.322816,-2.709927,-0.032356,0.109928,0.028421,-0.003665,0.025962,0.050091,20,-21.42,35.52,31.38,190.8714,71.9423,-153.0055,0,1018.03,21.33336,,,,,,0 / 0,82.6,39,3.717,9089,2014-11-17 17:16:47:166
1.331176,-9.193734,-2.777274,1.385329,-9.321802,-2.712062,-0.054153,0.128069,-0.065212,-0.003054,0.027489,0.049786,12,-21.6,35.46,31.2,192.4413,71.908,-152.9419,0,1018.03,21.33336,,,,,,0 / 0,82.6,39,3.717,9164,2014-11-17 17:16:47:241
1.312023,-9.193734,-2.748543,1.387276,-9.32036,-2.716017,-0.075253,0.126626,-0.032526,-0.005192,0.031154,0.048258,20,-21.72,35.46,31.26,192.4535,71.8809,-152.9432,0,1018.03,25.86057,,,,,,0 / 0,82.6,39,3.717,9238,2014-11-17 17:16:47:315
1.254562,-9.23204,-2.738967,1.389676,-9.319282,-2.718481,-0.135114,0.08724,-0.020486,-3.05E-04,0.018631,0.04948,20,-21.24,35.76,31.02,190.7762,71.8607,-152.9241,0,1018.06,25.86057,,,,,,0 / 0,82.6,39,3.717,9288,2014-11-17 17:16:47:365
1.340753,-9.23204,-2.633622,1.389867,-9.319448,-2.717811,-0.049114,0.087408,0.084189,0.00672,0.012523,0.055589,0,-21.3,35.58,30.96,190.7762,71.8607,-152.9241,0,1018.06,25.86057,,,,,,0 / 0,82.6,39,3.717,9353,2014-11-17 17:16:47:430
1.331176,-9.20331,-2.796427,1.387827,-9.319644,-2.718194,-0.05665,0.116333,-0.078233,-0.004276,0.011606,0.058948,20,-21.18,35.64,30.78,190.8172,71.8675,-152.9525,0,1018.06,25.86057,,,,,,0 / 0,82.6,39,3.717,9406,2014-11-17 17:16:47:483
1.321599,-9.184156,-2.671929,1.384652,-9.319634,-2.719844,-0.063053,0.135477,0.047915,-0.001222,0.019853,0.051924,0,-21.54,35.58,30.96,192.7268,71.8673,-153.0197,0,1018.05,25.86057,,,,,,0 / 0,82.6,39,3.717,9457,2014-11-17 17:16:47:534
1.302446,-9.20331,-2.671929,1.383897,-9.319994,-2.719001,-0.081452,0.116683,0.047072,9.16E-04,0.025962,0.055894,20,-21.54,35.7,30.72,192.7323,71.874,-153.0251,0,1018.05,25.86057,,,,,,0 / 0,82.6,39,3.717,9510,2014-11-17 17:16:47:587
1.340753,-9.165004,-2.748543,1.382193,-9.320964,-2.71653,-0.04144,0.155961,-0.032014,0.001833,0.025351,0.055589,20,-21.6,35.7,30.66,192.7323,71.874,-153.0251,0,1018.05,25.86057,,,,,,0 / 0,82.6,39,3.717,9566,2014-11-17 17:16:47:643
1.321599,-9.212888,-2.806004,1.381376,-9.320434,-2.718773,-0.059777,0.107546,-0.087232,0.007636,0.02474,0.054062,0,-21.54,35.52,30.54,190.9302,71.8923,-153.0326,0,1018.04,24.51557,,,,,,0 / 0,82.6,39,3.717,9635,2014-11-17 17:16:47:712
1.340753,-9.20331,-2.681506,1.38237,-9.320432,-2.718272,-0.041617,0.117121,0.036767,0.008858,0.016799,0.058032,20,-21.54,35.34,30.54,192.6036,71.8823,-153.0445,0,1018.04,24.51557,,,,,,0 / 0,82.6,39,3.717,9690,2014-11-17 17:16:47:767
1.283292,-9.184156,-2.75812,1.380796,-9.320456,-2.718986,-0.097504,0.1363,-0.039134,-6.11E-04,0.027184,0.051313,0,-20.82,35.4,30.72,190.8641,71.8827,-153.0769,0,1018.04,24.51557,,,,,,0 / 0,82.6,39,3.717,9755,2014-11-17 17:16:47:832
1.273715,-9.241618,-2.719813,1.379639,-9.320518,-2.719365,-0.105924,0.078899,-4.48E-04,0.004276,0.016188,0.060476,20,-20.82,35.28,30.84,190.8641,71.8827,-153.0769,0,1018.02,24.51557,,,,,,0 / 0,82.6,39,3.717,9817,2014-11-17 17:16:47:894
1.302446,-9.165004,-2.767697,1.376442,-9.321226,-2.718549,-0.073996,0.156222,-0.049148,0.008552,0.013744,0.054062,0,-21.12,35.46,30.72,190.8977,71.8839,-153.0995,0,1018.02,24.51557,,,,,,0 / 0,82.6,39,3.717,9877,2014-11-17 17:16:47:954
1.340753,-9.20331,-2.75812,1.373031,-9.32211,-2.717244,-0.032278,0.1188,-0.040877,-0.001222,0.010385,0.052534,0,-21.3,35.46,30.48,192.4615,71.9139,-153.1924,0,1018.02,24.51557,,,,,,0 / 0,82.6,39,3.717,9935,2014-11-17 17:16:48:012
1.283292,-9.260772,-2.75812,1.370777,-9.322184,-2.718135,-0.087485,0.061413,-0.039986,0.005803,0.023213,0.053756,12,-21.48,35.46,30.36,192.5295,71.9152,-153.2378,0,1018.03,46.54717,,,,,,0 / 0,82.6,39,3.717,10001,2014-11-17 17:16:48:078
1.340753,-9.193734,-2.691083,1.370941,-9.323088,-2.714949,-0.030188,0.129354,0.023866,0.007025,0.022602,0.056505,0,-21.24,35.52,30.6,192.5295,71.9152,-153.2378,0,1018.03,46.54717,,,,,,0 / 0,82.6,39,3.717,10058,2014-11-17 17:16:48:135
1.244985,-9.222464,-2.681506,1.368268,-9.324276,-2.712203,-0.123283,0.101812,0.030697,0.01405,0.022297,0.060781,12,-20.64,35.7,30.66,191.1821,71.9322,-153.208,0,1018.03,46.54717,,,,,,0 / 0,82.6,39,3.717,10121,2014-11-17 17:16:48:198
1.331176,-9.193734,-2.75812,1.365737,-9.325892,-2.707925,-0.034561,0.132159,-0.050195,0.007025,0.025962,0.057116,0,-20.7,35.7,30.72,191.2053,71.9852,-153.236,0,1018.02,46.54717,,,,,,0 / 0,82.6,39,3.717,10179,2014-11-17 17:16:48:256
1.312023,-9.212888,-2.796427,1.364041,-9.32655,-2.706521,-0.052019,0.113663,-0.089906,0.00336,0.036652,0.053756,0,-21,35.52,30.84,191.2261,71.9976,-153.2527,0,1018.02,46.54717,,,,,,0 / 0,82.6,39,3.717,10241,2014-11-17 17:16:48:318
1.254562,-9.279924,-2.633622,1.363955,-9.327706,-2.702569,-0.109393,0.047781,0.068948,0.00733,0.028711,0.057727,12,-21.12,35.58,30.66,191.1695,72.0195,-153.2205,0,1018.02,46.54717,,,,,,0 / 0,82.6,39,3.717,10313,2014-11-17 17:16:48:390
1.273715,-9.212888,-2.671929,1.361612,-9.329012,-2.699249,-0.087897,0.116125,0.02732,0.012828,0.016188,0.057116,0,-21,35.64,30.78,191.1695,72.0195,-153.2205,0,1018.01,48.20468,,,,,,0 / 0,82.6,39,3.717,10368,2014-11-17 17:16:48:445
1.331176,-9.20331,-2.786851,1.359291,-9.330382,-2.69568,-0.028114,0.127072,-0.091171,0.002443,0.019548,0.057421,12,-21.42,35.82,30.78,191.1817,72.0701,-153.2406,0,1018.01,48.20468,,,,,,0 / 0,82.6,39,3.717,10422,2014-11-17 17:16:48:499
1.35033,-9.241618,-2.662352,1.358164,-9.33149,-2.692412,-0.007834,0.089871,0.03006,0.009163,0.019853,0.05284,0,-20.94,35.82,30.96,191.1609,72.0912,-153.2317,0,1018.01,48.20468,,,,,,0 / 0,82.6,39,3.717,10482,2014-11-17 17:16:48:559
1.35033,-9.184156,-2.671929,1.361259,-9.331838,-2.689631,-0.01093,0.147681,0.017702,0.00672,0.019548,0.055283,17,-21.12,35.88,30.6,191.1609,72.0912,-153.2317,0,1017.98,48.20468,,,,,,0 / 0,82.6,39,3.717,10539,2014-11-17 17:16:48:616
1.273715,-9.289502,-2.691083,1.360112,-9.33303,-2.686076,-0.086397,0.043529,-0.005007,0.005498,0.028405,0.057421,0,-21.36,35.82,30.18,191.0433,72.0979,-153.1554,0,1017.98,48.20468,,,,,,0 / 0,82.6,39,3.717,10601,2014-11-17 17:16:48:678
1.273715,-9.165004,-2.614468,1.358894,-9.334238,-2.682501,-0.085179,0.169234,0.068033,0.006109,0.022297,0.0562,20,-21.6,36.12,30.24,194.2487,72.1435,-153.1343,0,1017.98,48.20468,,,,,,0 / 0,82.6,39,3.717,10662,2014-11-17 17:16:48:739
1.312023,-9.17458,-2.643199,1.358206,-9.335156,-2.679648,-0.046183,0.160577,0.036449,0.006414,0.026878,0.052229,12,-21.78,36.06,30.18,194.2214,72.161,-153.1214,0,1018.01,45.42678,,,,,,0 / 0,82.6,39,3.717,10719,2014-11-17 17:16:48:796
1.264139,-9.23204,-2.748543,1.357921,-9.335204,-2.679626,-0.093783,0.103164,-0.068917,-9.16E-04,0.019853,0.058338,0,-21.48,36.12,30.36,194.2214,72.161,-153.1214,0,1018.01,45.42678,,,,,,0 / 0,82.6,39,3.717,10772,2014-11-17 17:16:48:849
1.264139,-9.222464,-2.681506,1.354122,-9.335258,-2.681364,-0.089984,0.112793,-1.42E-04,0.003054,0.014355,0.06017,15,-21.18,35.88,30.6,190.9765,72.1619,-153.126,0,1018.01,45.42678,,,,,,0 / 0,82.6,39,3.717,10838,2014-11-17 17:16:48:915
1.283292,-9.184156,-2.738967,1.344771,-9.334208,-2.689716,-0.061479,0.150052,-0.049251,0.001833,0.011606,0.055894,0,-20.46,35.58,31.32,189.3519,72.1664,-153.2944,0,1018.03,45.42678,,,,,,0 / 0,82.6,39,3.717,10907,2014-11-17 17:16:48:984
1.273715,-9.279924,-2.72939,1.337035,-9.334414,-2.692842,-0.06332,0.054489,-0.036548,0.00336,0.022907,0.054978,20,-20.4,35.88,30.9,189.6947,72.145,-153.5155,0,1018.03,45.42678,,,,,,0 / 0,82.6,39,3.717,10976,2014-11-17 17:16:49:053
1.264139,-9.251194,-2.662352,1.331346,-9.334872,-2.694071,-0.067207,0.083678,0.031719,0.001222,0.021686,0.0562,12,-20.46,36,30.78,189.6947,72.145,-153.5155,0,1018.03,45.42678,,,,,,0 / 0,82.6,39,3.717,11026,2014-11-17 17:16:49:103
1.331176,-9.241618,-2.767697,1.323779,-9.336296,-2.692873,0.007397,0.094678,-0.074824,0.011301,0.034819,0.069028,20,-20.88,36,30.78,191.8462,72.1556,-153.7025,0,1018.08,47.21074,,,,,,0 / 0,82.6,39,3.717,11083,2014-11-17 17:16:49:160
1.283292,-9.212888,-2.671929,1.325068,-9.333482,-2.701985,-0.041776,0.120595,0.030056,-0.009468,0.041539,0.060781,12,-20.82,35.76,30.9,192.0559,72.172,-153.8462,0,1018.08,47.21074,,,,,,0 / 0,82.6,39,3.717,11144,2014-11-17 17:16:49:221
1.302446,-9.279924,-2.54743,1.325305,-9.33397,-2.700181,-0.022859,0.054046,0.15275,-0.013744,0.034819,0.054672,0,-20.4,35.64,30.84,192.0559,72.172,-153.8462,0,1018.08,47.21074,,,,,,0 / 0,82.6,39,3.717,11197,2014-11-17 17:16:49:274
1.168371,-9.212888,-2.671929,1.322394,-9.33408,-2.701225,-0.114782,0.121326,0.01013,0.005192,0.03146,0.050702,20,-20.04,35.82,30.72,190.216,72.1384,-153.8572,0,1018.01,47.21074,,,,,,0 / 0,82.6,39,3.717,11251,2014-11-17 17:16:49:328
1.283292,-9.212888,-2.614468,1.314495,-9.335454,-2.700333,-0.031203,0.122567,0.085865,0.007941,0.010079,0.062003,0,-20.52,35.82,30.9,190.3791,72.1414,-153.9653,0,1018.01,47.21074,,,,,,0 / 0,82.6,39,3.717,11330,2014-11-17 17:16:49:407
1.235408,-9.23204,-2.700659,1.308027,-9.336626,-2.699424,-0.075777,0.094601,-0.001359,0.006109,0.017715,0.054978,20,-20.94,35.76,31.02,192.4211,72.1812,-154.0918,0,1018.01,47.21074,,,,,,0 / 0,82.6,39,3.717,11386,2014-11-17 17:16:49:463
1.340753,-9.279924,-2.480393,1.307832,-9.337486,-2.696538,0.032921,0.057561,0.216145,0.009468,-0.005803,0.051007,12,-21.66,35.88,30.9,194.2376,72.2055,-154.1264,0,1018.03,45.63997,,,,,,0 / 0,82.6,39,3.717,11444,2014-11-17 17:16:49:521
1.177947,-9.23204,-2.796427,1.301075,-9.34003,-2.690997,-0.123128,0.107988,-0.10543,0.015272,0.015272,0.05681,0,-21.48,36.06,30.48,194.2376,72.2055,-154.1264,0,1018.03,45.63997,,,,,,0 / 0,82.6,39,3.717,11511,2014-11-17 17:16:49:588
1.302446,-9.17458,-2.652775,1.299254,-9.338864,-2.69591,-0.007203,0.116096,0.062953,-0.007636,0.015272,0.04948,0,-21.06,35.88,30.18,194.1113,72.2542,-154.2718,0,1018.03,45.63997,,,,,,0 / 0,82.6,39,3.717,11571,2014-11-17 17:16:49:648
1.13964,-9.279924,-2.557007,1.300006,-9.339422,-2.693613,-0.101209,0.088433,0.069676,-0.007636,0.023213,0.05284,0,-21,35.94,30.3,194.0634,72.2285,-154.2323,0,1017.99,45.63997,,,,,,0 / 0,82.6,39,3.717,11630,2014-11-17 17:16:49:707
1.177947,-9.270348,-2.691083,1.297523,-9.339544,-2.694393,-0.101209,0.088433,0.069676,-0.001222,0.018326,0.052229,20,-21.06,35.64,30.54,194.0634,72.2285,-154.2323,0,1017.99,45.63997,,,,,,0 / 0,82.6,39,3.717,11680,2014-11-17 17:16:49:757
1.292869,-9.20331,-2.700659,1.297339,-9.33843,-2.698347,-0.00447,0.135119,-0.002313,0.002443,0.01405,0.053756,0,-20.76,35.58,30.84,192.6871,72.2449,-154.2862,0,1017.99,45.63997,,,,,,0 / 0,82.6,39,3.717,11746,2014-11-17 17:16:49:823
1.244985,-9.20331,-2.681506,1.296495,-9.338224,-2.699452,-0.05151,0.134913,0.017946,-0.01741,0.023824,0.039401,20,-20.4,35.28,30.96,192.633,72.2196,-154.3459,0,1018.02,45.46347,,,,,,0 / 0,82.6,39,3.717,11812,2014-11-17 17:16:49:889
1.292869,-9.270348,-2.604891,1.303269,-9.334454,-2.709209,-0.0104,0.064106,0.104318,-0.008247,0.023213,0.054672,0,-20.76,35.34,30.96,192.6077,72.1476,-154.3101,0,1018.02,45.46347,,,,,,0 / 0,82.6,39,3.717,11878,2014-11-17 17:16:49:955
1.273715,-9.222464,-2.834735,1.303045,-9.332778,-2.715094,-0.02933,0.110313,-0.119641,0.008247,0.025656,0.061087,0,-20.58,35.28,30.96,192.6979,72.1157,-154.3624,0,1018.02,45.46347,,,,,,0 / 0,82.6,39,3.717,11928,2014-11-17 17:16:50:005
1.340753,-9.20331,-2.738967,1.303444,-9.332718,-2.715105,0.037309,0.129408,-0.023861,-0.005803,0.036346,0.054367,20,-21.12,35.4,30.66,192.6979,72.1157,-154.3624,0,1018.03,45.46347,,,,,,0 / 0,82.6,39,3.717,11978,2014-11-17 17:16:50:055
1.340753,-9.289502,-2.738967,1.30922,-9.33042,-2.720224,0.031533,0.040918,-0.018742,-0.012217,0.034208,0.04215,0,-20.88,35.64,30.72,192.8441,72.1145,-154.3557,0,1018.03,45.46347,,,,,,0 / 0,82.6,39,3.717,12038,2014-11-17 17:16:50:115
1.273715,-9.222464,-2.75812,1.314131,-9.329126,-2.72229,-0.040416,0.106663,-0.03583,0.007025,0.03543,0.054672,20,-20.88,35.64,31.2,192.6858,72.0463,-154.232,0,1018.03,45.46347,,,,,,0 / 0,82.6,39,3.717,12116,2014-11-17 17:16:50:193
1.302446,-9.193734,-2.767697,1.316426,-9.329324,-2.720492,-0.01398,0.135591,-0.047205,-0.00336,0.029627,0.051618,0,-21.12,35.64,31.26,192.603,72.0501,-154.178,0,1017.98,50.21181,,,,,,0 / 0,82.6,39,3.717,12179,2014-11-17 17:16:50:256
1.235408,-9.241618,-2.614468,1.320359,-9.32807,-2.722897,-0.084951,0.086452,0.108429,0.001527,0.036652,0.05284,0,-20.94,35.58,30.66,192.5414,72.0263,-154.1308,0,1017.98,50.21181,,,,,,0 / 0,82.6,39,3.717,12230,2014-11-17 17:16:50:307
1.225831,-9.241618,-2.624045,1.32229,-9.328338,-2.721042,-0.096458,0.08672,0.096997,0.00336,0.037263,0.054978,12,-21.06,35.64,30.66,192.5414,72.0263,-154.1308,0,1017.98,50.21181,,,,,,0 / 0,82.6,39,3.717,12303,2014-11-17 17:16:50:380
1.254562,-9.318232,-2.652775,1.328182,-9.327688,-2.720393,-0.073621,0.009456,0.067617,-0.007636,0.032987,0.045204,12,-21.3,35.52,31.02,192.2253,72.0434,-154.0259,0,1018.07,50.21181,,,,,,0 / 0,82.6,39,3.717,12367,2014-11-17 17:16:50:444
1.254562,-9.318232,-2.652775,1.328182,-9.327688,-2.720393,-0.073621,0.009456,0.067617,-0.005498,0.009163,0.043371,12,-21.18,35.76,30.9,192.3122,72.0191,-153.9769,0,1018.07,50.21181,,,,,,0 / 0,82.6,39,3.717,12419,2014-11-17 17:16:50:496
1.254562,-9.23204,-2.72939,1.330886,-9.326232,-2.724063,-0.076324,0.094192,-0.005327,0.009468,0.001527,0.048258,0,-21.3,35.94,30.54,192.2997,71.9916,-153.9614,0,1018.07,50.21181,,,,,,0 / 0,82.6,39,3.717,12473,2014-11-17 17:16:50:550
1.417368,-9.136272,-2.806004,1.33059,-9.32619,-2.724361,0.086778,0.189917,-0.081644,-0.004276,0.018631,0.051618,0,-21.12,35.7,30.66,192.2997,71.9916,-153.9614,0,1017.98,50.21181,,,,,,0 / 0,82.6,39,3.717,12542,2014-11-17 17:16:50:619
1.321599,-9.14585,-2.681506,1.332149,-9.32508,-2.727388,-0.010549,0.17923,0.045882,-0.010385,0.034208,0.052229,12,-21.36,35.64,31.08,192.3175,71.9698,-153.9676,0,1017.98,46.18852,,,,,,0 / 0,82.6,39,3.717,12595,2014-11-17 17:16:50:672
1.302446,-9.260772,-2.643199,1.336656,-9.32365,-2.730071,-0.03421,0.06288,0.086873,-0.001222,0.034819,0.058032,0,-21.18,35.7,31.32,192.2463,71.9428,-153.9134,0,1017.98,46.18852,,,,,,0 / 0,82.6,39,3.717,12645,2014-11-17 17:16:50:722
1.37906,-9.097966,-2.691083,1.338634,-9.323522,-2.729534,0.040426,0.225556,0.038451,0.00336,0.033292,0.055894,12,-21.36,35.76,31.44,192.2463,71.9428,-153.9134,0,1017.98,46.18852,,,,,,0 / 0,82.6,39,3.717,12696,2014-11-17 17:16:50:773
1.302446,-9.222464,-2.671929,1.340688,-9.322788,-2.731026,-0.038242,0.100325,0.059097,-0.005803,0.026878,0.048258,0,-21.36,35.64,31.5,190.8121,71.9404,-153.8755,0,1017.98,46.18852,,,,,,0 / 0,82.6,39,3.717,12749,2014-11-17 17:16:50:826
1.35033,-9.241618,-2.738967,1.343641,-9.320986,-2.735739,0.006689,0.079368,-0.003228,-0.007941,0.034208,0.051618,0,-21.36,35.34,31.26,192.0079,71.8927,-153.8423,0,1017.98,46.18852,,,,,,0 / 0,82.6,39,3.717,12807,2014-11-17 17:16:50:884
1.331176,-9.155426,-2.72939,1.34474,-9.320286,-2.73758,-0.013564,0.164859,0.00819,-0.004581,0.045509,0.062003,12,-21.12,35.58,30.6,192.1585,71.8795,-153.839,0,1018.03,46.18852,,,,,,0 / 0,82.6,39,3.717,12875,2014-11-17 17:16:50:952
1.312023,-9.193734,-2.681506,1.345422,-9.319696,-2.739242,-0.033399,0.125963,0.057736,-0.012828,0.044899,0.054367,20,-21.24,35.58,30.6,192.1585,71.8795,-153.839,0,1018.03,50.01636,,,,,,0 / 0,82.6,39,3.717,12935,2014-11-17 17:16:51:012
1.273715,-9.260772,-2.700659,1.348721,-9.31812,-2.742983,-0.075005,0.057349,0.042324,-0.010385,0.020159,0.051618,12,-21.36,35.52,30.72,193.4592,71.8685,-153.8413,0,1018.03,50.01636,,,,,,0 / 0,82.6,39,3.717,12999,2014-11-17 17:16:51:076
1.312023,-9.212888,-2.748543,1.349027,-9.316276,-2.74909,-0.037004,0.103388,5.47E-04,-0.003665,0.013744,0.055283,20,-20.88,35.4,30.78,192.0705,71.8044,-153.862,0,1018.08,50.01636,,,,,,0 / 0,82.6,39,3.717,13061,2014-11-17 17:16:51:138
1.369483,-9.23204,-2.72939,1.347351,-9.315644,-2.752059,0.022133,0.083604,0.022669,-0.003054,0.02138,0.054062,0,-20.82,35.4,31.02,192.1539,71.7925,-153.9146,0,1018.08,50.01636,,,,,,0 / 0,82.6,39,3.717,13113,2014-11-17 17:16:51:190
1.302446,-9.184156,-2.75812,1.345598,-9.31488,-2.755501,-0.043152,0.130723,-0.00262,-0.009468,0.027794,0.054978,12,-20.82,35.28,31.02,192.1539,71.7925,-153.9146,0,1018.08,50.01636,,,,,,0 / 0,82.6,39,3.717,13165,2014-11-17 17:16:51:242
1.312023,-9.212888,-2.710236,1.347013,-9.313256,-2.760289,-0.034991,0.100369,0.050053,-0.007941,0.025656,0.052229,20,-21.42,35.28,30.84,192.246,71.7782,-153.9723,0,1017.97,50.01636,,,,,,0 / 0,82.6,39,3.717,13237,2014-11-17 17:16:51:314
1.302446,-9.193734,-2.72939,1.347062,-9.312072,-2.764262,-0.044616,0.118339,0.034872,9.16E-04,0.018937,0.052229,12,-21.6,35.58,30.78,194.2919,71.7258,-154.0194,0,1017.97,53.84453,,,,,,0 / 0,82.6,39,3.717,13296,2014-11-17 17:16:51:373
1.388637,-9.184156,-2.738967,1.345551,-9.31212,-2.764832,0.043086,0.127963,0.025865,-0.005498,0.004887,0.054062,20,-21.42,35.58,30.66,192.5389,71.7267,-154.0494,0,1017.97,53.84453,,,,,,0 / 0,82.6,39,3.717,13355,2014-11-17 17:16:51:432
1.37906,-9.193734,-2.853888,1.343679,-9.31103,-2.76941,0.035381,0.117296,-0.084478,0.004581,0.003054,0.058032,0,-21.48,35.76,30.72,192.5389,71.7267,-154.0494,0,1018,53.84453,,,,,,0 / 0,82.6,39,3.717,13409,2014-11-17 17:16:51:486
1.273715,-9.241618,-2.72939,1.342102,-9.311126,-2.769852,-0.068387,0.069508,0.040462,0.001527,0.015272,0.055589,0,-20.88,35.28,30.84,192.4928,71.7065,-154.118,0,1018,53.84453,,,,,,0 / 0,82.6,39,3.717,13479,2014-11-17 17:16:51:556
1.340753,-9.23204,-2.777274,1.338143,-9.3118,-2.769499,0.00261,0.07976,-0.007774,0.001833,0.015882,0.064446,20,-20.82,35.46,30.84,192.6277,71.7208,-154.2115,0,1018,53.84453,,,,,,0 / 0,82.6,39,3.717,13547,2014-11-17 17:16:51:624
1.321599,-9.165004,-2.767697,1.330742,-9.31345,-2.767516,-0.009143,0.148446,-1.81E-04,0.009468,0.010385,0.065363,0,-20.94,35.64,31.38,192.9399,71.7516,-154.3197,0,1018.02,53.84453,,,,,,0 / 0,82.6,39,3.717,13600,2014-11-17 17:16:51:677
1.331176,-9.222464,-2.786851,1.323668,-9.314568,-2.767151,0.007508,0.092105,-0.019699,0.002138,0.02138,0.062919,20,-21.24,35.52,31.26,192.9399,71.7516,-154.3197,0,1018.02,53.84453,,,,,,0 / 0,82.6,39,3.717,13661,2014-11-17 17:16:51:738
1.292869,-9.222464,-2.748543,1.320094,-9.31556,-2.765512,-0.027225,0.093097,0.016969,0.006414,0.03146,0.064752,12,-21,35.4,31.56,191.7151,71.7724,-154.4358,0,1018.02,55.97829,,,,,,0 / 0,82.6,39,3.717,13718,2014-11-17 17:16:51:795
1.302446,-9.212888,-2.844312,1.316479,-9.31695,-2.762554,-0.014033,0.104062,-0.081758,0.011912,0.026878,0.06017,0,-21,35.46,31.08,193.0522,71.817,-154.5201,0,1018.04,55.97829,,,,,,0 / 0,82.6,39,3.717,13776,2014-11-17 17:16:51:853
1.235408,-9.222464,-2.719813,1.311859,-9.318958,-2.757972,-0.076451,0.096495,0.038159,0.008247,0.021075,0.065668,20,-21.24,35.4,30.66,193.0986,71.8546,-154.5614,0,1018.04,55.97829,,,,,,0 / 0,82.6,39,3.717,13842,2014-11-17 17:16:51:919
1.312023,-9.222464,-2.738967,1.306423,-9.320798,-2.754338,0.005599,0.098334,0.015372,0.009163,0.012217,0.064752,0,-20.94,35.52,30.66,193.0986,71.8546,-154.5614,0,1018.04,55.97829,,,,,,0 / 0,82.6,39,3.717,13895,2014-11-17 17:16:51:972
1.264139,-9.14585,-2.738967,1.299017,-9.32251,-2.752041,-0.034878,0.176661,0.013075,0.010079,0.011912,0.057421,20,-20.82,35.94,30.78,193.3433,71.8891,-154.6243,0,1017.97,55.97829,,,,,,0 / 0,82.6,39,3.717,13969,2014-11-17 17:16:52:046
1.264139,-9.251194,-2.719813,1.29412,-9.324226,-2.748538,-0.029981,0.073031,0.028725,0.008247,9.16E-04,0.059865,0,-20.94,35.82,30.6,193.5612,71.9537,-154.7871,0,1017.97,55.97829,,,,,,0 / 0,82.6,39,3.717,14035,2014-11-17 17:16:52:112
1.321599,-9.184156,-2.75812,1.287589,-9.326472,-2.74398,0.034011,0.142316,-0.014141,0.012217,0.020769,0.068722,0,-21.18,35.88,30.84,193.6557,71.9961,-154.8621,0,1017.97,51.29233,,,,,,0 / 0,82.6,39,3.717,14096,2014-11-17 17:16:52:173
1.254562,-9.193734,-2.767697,1.280256,-9.329626,-2.736671,-0.025695,0.135893,-0.031026,0.010079,0.033903,0.06689,12,-21.3,35.76,31.02,193.6557,71.9961,-154.8621,0,1018.04,51.29233,,,,,,0 / 0,82.6,39,3.717,14149,2014-11-17 17:16:52:226
1.225831,-9.251194,-2.75812,1.274543,-9.332588,-2.729238,-0.048711,0.081394,-0.028882,0.028405,0.026878,0.069333,0,-21.12,35.58,30.66,193.7304,72.0559,-154.9291,0,1018.04,51.29233,,,,,,0 / 0,82.6,39,3.717,14203,2014-11-17 17:16:52:280
1.244985,-9.222464,-2.75812,1.26684,-9.33727,-2.716778,-0.021855,0.114806,-0.041342,0.025351,0.01405,0.069028,20,-21.06,35.7,30.48,195.233,72.2014,-155.0003,0,1018.04,51.29233,,,,,,0 / 0,82.6,39,3.717,14265,2014-11-17 17:16:52:342
1.206678,-9.241618,-2.700659,1.2582,-9.341676,-2.705626,-0.051522,0.100059,0.004967,0.02474,0.006414,0.06017,0,-21.12,36,30.36,195.2814,72.2857,-155.0601,0,1018.06,51.29233,,,,,,0 / 0,82.6,39,3.717,14320,2014-11-17 17:16:52:397
1.225831,-9.23204,-2.576161,1.251863,-9.346074,-2.69335,-0.026031,0.114033,0.117189,0.011606,-0.002138,0.057116,20,-20.94,36.3,30.36,195.2814,72.2857,-155.0601,0,1018.06,51.29233,,,,,,0 / 0,82.6,39,3.717,14377,2014-11-17 17:16:52:454
1.273715,-9.35654,-2.54743,1.244564,-9.349606,-2.684458,0.029152,-0.006934,0.137028,0.030849,-0.006109,0.082772,9,-20.52,36.18,30.54,193.8058,72.3704,-155.0711,0,1018.06,53.50785,,,,,,0 / 0,82.6,39,3.717,14452,2014-11-17 17:16:52:529
1.37906,-9.14585,-2.796427,1.228481,-9.355526,-2.671204,0.150579,0.209677,-0.125223,0.051313,0.017715,0.081856,0,-20.22,36.18,30.48,193.6644,72.5537,-155.3024,0,1018,53.50785,,,,,,0 / 0,82.6,39,3.717,14509,2014-11-17 17:16:52:586
1.225831,-9.17458,-2.806004,1.213428,-9.36382,-2.648932,0.012403,0.18924,-0.157072,0.027489,0.021075,0.080329,12,-20.34,36,30.54,193.6644,72.5537,-155.3024,0,1018,53.50785,,,,,,0 / 0,82.6,39,3.717,14577,2014-11-17 17:16:52:654
1.264139,-9.270348,-2.576161,1.202734,-9.369314,-2.634352,0.061405,0.098966,0.058191,0.024435,0.010996,0.061087,0,-20.82,35.82,30.36,194.1245,72.716,-155.3883,0,1018,53.50785,,,,,,0 / 0,82.6,39,3.717,14635,2014-11-17 17:16:52:712
1.149217,-9.289502,-2.681506,1.182533,-9.380908,-2.602025,-0.033317,0.091406,-0.07948,0.047037,0.013744,0.075747,0,-20.64,36.06,30.54,194.2076,72.912,-155.5033,0,1018,53.50785,,,,,,0 / 0,82.6,39,3.717,14725,2014-11-17 17:16:52:802
1.187524,-9.289502,-2.54743,1.173369,-9.388352,-2.579231,0.014155,0.09885,0.031801,0.043371,0.007025,0.066584,0,-20.22,36.12,30.66,192.4283,73.0553,-155.5598,0,1018,53.24547,,,,,,0 / 0,82.6,39,3.717,14787,2014-11-17 17:16:52:864
1.149217,-9.260772,-2.537854,1.167297,-9.39564,-2.555331,-0.01808,0.13487,0.017478,0.064752,0.02138,0.065973,12,-20.04,36.36,30.36,193.5327,73.3532,-155.4487,0,1018.04,53.24547,,,,,,0 / 0,82.6,39,3.717,14857,2014-11-17 17:16:52:934
1.244985,-9.279924,-2.671929,1.160872,-9.404724,-2.524667,0.084113,0.1248,-0.147262,0.058032,0.026267,0.075136,0,-19.74,36.84,30.18,193.3991,73.5394,-155.3065,0,1018.04,53.24547,,,,,,0 / 0,82.8,38,3.671,14929,2014-11-17 17:16:53:006
0.986411,-9.318232,-2.451662,1.138161,-9.42892,-2.443453,-0.15175,0.110686,-0.008209,0.118508,0.043066,0.090408,0,-19.98,36.96,30.3,193.1352,73.7302,-155.1826,0,1018.04,53.24547,,,,,,0 / 0,82.8,38,3.671,15045,2014-11-17 17:16:53:122
1.063026,-9.23204,-2.72939,1.11021,-9.448258,-2.380798,-0.047184,0.216217,-0.348591,0.131031,0.020769,0.107512,0,-19.74,37.2,29.94,192.571,74.4623,-154.9995,0,1018.04,53.24547,,,,,,0 / 0,82.8,38,3.671,15098,2014-11-17 17:16:53:175
1.312023,-9.404424,-2.671929,1.087738,-9.461952,-2.336386,0.224284,0.057528,-0.335543,0.040623,-0.09499,0.02138,12,-19.98,37.26,29.94,192.571,74.4623,-154.9995,0,1018.04,51.90312,,,,,,0 / 0,82.8,38,3.671,15149,2014-11-17 17:16:53:226
0.909797,-9.17458,-1.867477,1.08378,-9.470552,-2.303145,-0.173984,0.295972,0.435668,0.110872,-0.19395,0.076664,20,-19.14,37.44,30.24,190.654,74.7637,-155.035,0,1018.05,51.90312,,,,,,0 / 0,82.8,38,3.671,15218,2014-11-17 17:16:53:295
1.120486,-9.701304,-1.877054,1.050054,-9.48797,-2.246372,0.070432,-0.213334,0.369318,0.193339,-0.075442,0.128893,12,-17.94,37.86,30.12,190.362,74.9561,-154.8,0,1018.05,51.90312,,,,,,0 / 0,82.8,38,3.671,15296,2014-11-17 17:16:53:373
1.206678,-9.816226,-2.269703,1.010997,-9.511988,-2.161105,0.195681,-0.304238,-0.108598,0.21197,-0.154549,0.126755,0,-17.82,37.92,30.06,188.5156,75.3534,-154.9465,0,1018.05,51.90312,,,,,,0 / 0,82.8,38,3.671,15360,2014-11-17 17:16:53:437
1.474828,-8.60955,-2.260126,0.96804,-9.534978,-2.077858,0.506789,0.925429,-0.182268,0.075747,-0.172264,0.08094,0,-17.16,38.16,30.12,186.373,76.4821,-155.02,0,1018,51.90312,,,,,,0 / 0,82.8,38,3.671,15416,2014-11-17 17:16:53:493
0.584185,-8.465898,-1.656788,0.929869,-9.548292,-2.033677,-0.345684,1.082396,0.376889,0.152716,-0.226326,0.260229,12,-16.92,38.46,30.36,186.373,76.4821,-155.02,0,1018,51.90312,,,,,,0 / 0,82.8,38,3.671,15475,2014-11-17 17:16:53:552
2.011129,-10.649408,-3.313575,0.861699,-9.558466,-2.01583,1.14943,-1.090942,-1.297745,-0.154549,0.070555,0.043982,20,-16.14,39.18,31.08,183.7944,76.8191,-155.4284,0,1018,53.89272,,,,,,0 / 0,82.8,38,3.671,15547,2014-11-17 17:16:53:624
0.842759,-7.929596,0.124498,0.845811,-9.555732,-2.035423,-0.003052,1.626137,2.159922,0.176235,-0.034208,0.240986,12,-15.66,39.36,31.32,186.5413,77.0111,-157.4349,0,1017.99,53.89272,,,,,,0 / 0,82.8,38,3.671,15605,2014-11-17 17:16:53:682
1.37906,-10.611102,-2.336741,0.772296,-9.57797,-1.958683,0.606765,-1.033131,-0.378058,0.01405,0.440128,-0.140804,0,-14.88,39.48,30.96,185.8607,77.6023,-158.481,0,1017.99,53.89272,,,,,,0 / 0,82.8,38,3.671,15663,2014-11-17 17:16:53:740
-1.474828,-8.983044,-1.714248,0.832622,-9.57954,-1.926014,-2.30745,0.596496,0.211766,-0.10568,0.036041,0.240375,0,-14.82,39.78,30.48,185.8607,77.6023,-158.481,0,1017.99,53.89272,,,,,,0 / 0,82.8,38,3.671,15714,2014-11-17 17:16:53:791
2.394202,-10.477026,-1.637634,0.77553,-9.585228,-1.921542,1.618672,-0.891799,0.283908,0.120646,0.102931,0.198531,0,-14.4,40.08,29.88,182.28,77.6452,-156.621,0,1018.06,53.89272,,,,,,0 / 0,82.8,38,3.671,15774,2014-11-17 17:16:53:851
-0.699107,-10.189722,-0.804452,0.686468,-9.610824,-1.825159,-1.385575,-0.578898,1.020707,-0.041233,0.482889,0.047037,0,-13.68,40.86,30.24,186.0192,78.3626,-159.378,0,1018.06,53.89272,,,,,,0 / 0,82.8,38,3.671,15855,2014-11-17 17:16:53:932
1.13964,-9.433154,-1.838747,0.637864,-9.627094,-1.755721,0.501776,0.19394,-0.083025,0.098349,0.273973,0.269392,20,-13.62,41.16,30,185.9989,78.5307,-159.388,0,1018.06,48.02433,,,,,,0 / 0,82.8,38,3.671,15913,2014-11-17 17:16:53:990
0.727837,-8.887276,-2.470816,0.615133,-9.632758,-1.732627,0.112704,0.745482,-0.738189,0.123395,0.073915,0.103236,15,-14.04,41.4,29.4,187.8416,79.019,-160.0336,0,1018.06,48.02433,,,,,,0 / 0,82.8,38,3.671,15972,2014-11-17 17:16:54:049
0.727837,-8.887276,-2.470816,0.615133,-9.632758,-1.732627,0.112704,0.745482,-0.738189,-0.051313,0.004887,0.054062,15,-14.28,41.22,29.1,187.8416,79.019,-160.0336,0,1018.06,48.02433,,,,,,0 / 0,82.8,38,3.671,16023,2014-11-17 17:16:54:100
0.603339,-9.471462,-1.465251,0.621087,-9.62565,-1.769614,-0.017748,0.154189,0.304362,0.03543,-0.058643,0.112094,15,-14.4,41.28,29.28,189.4505,79.1173,-161.2511,0,1018.07,48.02433,,,,,,0 / 0,82.8,38,3.671,16092,2014-11-17 17:16:54:169
0.603339,-9.471462,-1.465251,0.621087,-9.62565,-1.769614,-0.017748,0.154189,0.304362,0.006109,0.167072,0.184176,15,-14.22,41.28,29.52,187.6154,78.9747,-160.6603,0,1018.07,48.02433,,,,,,0 / 0,82.8,38,3.671,16145,2014-11-17 17:16:54:222
-0.076614,-9.38527,-1.810016,0.573595,-9.64007,-1.705998,-0.650209,0.2548,-0.104019,0.065668,0.019853,0.035125,17,-14.34,41.52,29.46,189.5611,79.1666,-161.2897,0,1018.07,48.02433,,,,,,0 / 0,82.8,38,3.671,16215,2014-11-17 17:16:54:292
0.727837,-9.768342,-1.264138,0.572578,-9.643136,-1.688922,0.15526,-0.125207,0.424783,0.005803,0.175318,0.099266,20,-14.4,41.76,29.04,189.5611,79.1666,-161.2897,0,1018.01,43.31941,,,,,,0 / 0,82.8,38,3.671,16270,2014-11-17 17:16:54:347
0.670377,-9.38527,-1.867477,0.565893,-9.647632,-1.665334,0.104484,0.262362,-0.202144,0.084299,-0.065057,0.055283,13,-14.58,42.06,28.74,191.4786,79.5225,-161.2723,0,1018.01,43.31941,,,,,,0 / 0,82.8,38,3.671,16334,2014-11-17 17:16:54:411
0.670377,-9.38527,-1.867477,0.565893,-9.647632,-1.665334,0.104484,0.262362,-0.202144,0.028405,0.069944,0.03879,13,-14.28,42,28.92,189.3223,79.6679,-161.2318,0,1018.01,43.31941,,,,,,0 / 0,82.8,38,3.671,16385,2014-11-17 17:16:54:462
0.699107,-9.500192,-1.675941,0.576641,-9.650086,-1.647346,0.122466,0.149894,-0.028596,0.025351,0.004887,0.05284,17,-14.34,41.82,28.8,188.603,79.7481,-160.7078,0,1018.01,43.31941,,,,,,0 / 0,82.8,38,3.671,16438,2014-11-17 17:16:54:515
0.316035,-9.62469,-1.312023,0.576718,-9.656802,-1.607464,-0.260683,0.032112,0.295442,0.037874,0.004276,0.040623,17,-14.22,42.06,28.74,188.603,79.7481,-160.7078,0,1018.04,43.31941,,,,,,0 / 0,82.8,38,3.671,16509,2014-11-17 17:16:54:586
0.842759,-9.433154,-1.714248,0.577582,-9.660202,-1.586595,0.265177,0.227048,-0.127653,0.058643,-0.084605,0.051618,17,-13.86,42.36,28.32,189.0783,79.971,-160.2633,0,1018.04,43.31941,,,,,,0 / 0,82.8,38,3.671,16569,2014-11-17 17:16:54:646
0.842759,-9.433154,-1.714248,0.577582,-9.660202,-1.586595,0.265177,0.227048,-0.127653,0.054062,-0.02474,0.05284,17,-13.74,42.36,28.5,187.5743,80.0857,-159.9965,0,1018.04,43.31941,,,,,,0 / 0,82.8,38,3.671,16626,2014-11-17 17:16:54:703
0.6608,-9.691728,-1.37906,0.569839,-9.669206,-1.533671,0.09096,-0.022522,0.154611,0.039095,0.001222,0.058032,17,-13.74,42.24,28.92,187.3317,80.255,-159.843,0,1018.07,49.13776,,,,,,0 / 0,82.8,38,3.671,16688,2014-11-17 17:16:54:765
0.6608,-9.691728,-1.37906,0.569839,-9.669206,-1.533671,0.09096,-0.022522,0.154611,0.081856,-0.001833,0.076053,17,-13.98,42,28.74,187.3317,80.255,-159.843,0,1018.07,49.13776,,,,,,0 / 0,82.8,38,3.671,16747,2014-11-17 17:16:54:824
0.852336,-9.490616,-1.321599,0.564749,-9.675178,-1.497453,0.287587,0.184562,0.175854,-0.010996,0.081551,0.061697,13,-13.98,42.36,28.32,187.6806,80.6075,-159.3365,0,1018.07,49.13776,,,,,,0 / 0,82.8,38,3.671,16797,2014-11-17 17:16:54:874
0.603339,-9.615114,-1.359906,0.55386,-9.683788,-1.444946,0.049479,0.068674,0.085039,0.041233,0.071166,0.064141,17,-14.22,42.42,28.26,187.4417,80.7058,-159.1716,0,1017.97,49.13776,,,,,,0 / 0,82.8,38,3.671,16872,2014-11-17 17:16:54:949
0.603339,-9.615114,-1.359906,0.55386,-9.683788,-1.444946,0.049479,0.068674,0.085039,0.056505,0.026573,0.072388,17,-14.1,42.72,28.68,186.1721,80.921,-159.0277,0,1017.97,49.13776,,,,,,0 / 0,82.8,38,3.671,16923,2014-11-17 17:16:55:000
0.574608,-9.519346,-1.513135,0.544796,-9.688656,-1.415481,0.029813,0.16931,-0.097654,0.03146,0.047647,0.068722,17,-14.46,42.78,28.44,186.1721,80.921,-159.0277,0,1017.97,49.13776,,,,,,0 / 0,82.8,38,3.671,16973,2014-11-17 17:16:55:050
0.766145,-9.615114,-1.235408,0.544038,-9.692396,-1.389907,0.222107,0.077283,0.154499,0.032681,0.080023,0.065973,15,-14.1,42.72,28.44,186.6538,81.2455,-158.6236,0,1018.12,55.98925,,,,,,0 / 0,82.8,38,3.671,17025,2014-11-17 17:16:55:102
0.47884,-9.720458,-1.388637,0.537741,-9.695684,-1.369282,-0.0589,-0.024774,-0.019355,0.047647,0.072082,0.07025,17,-13.98,42.9,27.9,186.5433,81.3726,-158.5592,0,1018.12,55.98925,,,,,,0 / 0,82.8,38,3.671,17091,2014-11-17 17:16:55:168
0.593762,-9.59596,-1.321599,0.529064,-9.700356,-1.339244,0.064698,0.104397,0.017645,0.053145,0.021686,0.078496,20,-13.86,43.32,27.78,186.5433,81.3726,-158.5592,0,1018.12,55.98925,,,,,,0 / 0,82.8,38,3.671,17153,2014-11-17 17:16:55:230
0.641646,-9.586384,-1.206678,0.518481,-9.705156,-1.308253,0.123165,0.118773,0.101575,0.03146,0.063225,0.068111,20,-13.86,43.26,27.9,186.3568,81.5565,-158.4436,0,1018.12,55.98925,,,,,,0 / 0,82.8,38,3.671,17204,2014-11-17 17:16:55:281
0.545878,-9.720458,-1.13964,0.510684,-9.709576,-1.278173,0.035194,-0.010882,0.138533,0.061697,0.032681,0.076053,17,-13.56,43.38,28.02,186.0001,81.9316,-158.2212,0,1018.12,55.98925,,,,,,0 / 0,82.8,38,3.671,17257,2014-11-17 17:16:55:334
0.565032,-9.509768,-1.455675,0.494369,-9.714334,-1.248083,0.070663,0.204565,-0.207592,0.062919,0.033903,0.08094,16,-13.08,43.44,28.02,184.1197,82.1321,-158.3914,0,1018.12,55.98925,,,,,,0 / 0,82.8,38,3.671,17326,2014-11-17 17:16:55:403
0.47884,-9.691728,-0.986411,0.478977,-9.720316,-1.206826,-1.37E-04,0.028587,0.220415,0.066279,0.060781,0.076358,19,-13.14,43.74,27.9,184.1197,82.1321,-158.3914,0,1018.07,47.53542,,,,,,0 / 0,82.8,38,3.671,17376,2014-11-17 17:16:55:453
0.411803,-9.643844,-1.015141,0.461247,-9.72666,-1.161763,-0.049444,0.082816,0.146622,0.079107,0.030238,0.07086,16,-12.9,44.16,27.42,184.0579,82.3917,-158.3523,0,1018.07,47.53542,,,,,,0 / 0,82.8,38,3.671,17450,2014-11-17 17:16:55:527
0.708684,-9.701304,-0.986411,0.449562,-9.732804,-1.113908,0.259122,0.031499,0.127497,0.098044,0.043371,0.102625,15,-12.9,44.34,27.48,184.5908,82.9642,-158.0215,0,1018.07,47.53542,,,,,,0 / 0,82.8,38,3.671,17513,2014-11-17 17:16:55:590
0.746991,-9.433154,-1.302446,0.43294,-9.739182,-1.063623,0.314051,0.306028,-0.238823,0.002749,0.081245,0.029322,17,-12.54,44.52,27.24,184.3568,83.2752,-157.8516,0,1018,47.53542,,,,,,0 / 0,82.8,38,3.671,17575,2014-11-17 17:16:55:652
0.565032,-9.950302,-0.699107,0.442863,-9.741642,-1.036678,0.122169,-0.20866,0.337571,0.013439,0.100182,0.018631,0,-12.72,44.7,27.42,184.3568,83.2752,-157.8516,0,1018,47.53542,,,,,,0 / 0,82.8,38,3.671,17628,2014-11-17 17:16:55:705
-0.335188,-9.691728,-0.603339,0.436606,-9.746048,-0.997146,-0.771794,0.05432,0.393807,0.061697,-0.017715,0.077274,20,-11.94,45.12,27.12,181.015,83.399,-156.8681,0,1018,47.53542,,,,,,0 / 0,82.8,38,3.671,17694,2014-11-17 17:16:55:771
1.130063,-9.528922,-1.541866,0.420994,-9.754122,-0.922102,0.709069,0.225199,-0.619764,0.071471,-0.082772,0.076053,19,-11.46,45,27.24,179.9817,83.9454,-156.0223,0,1018.01,58.91365,,,,,,0 / 0,82.8,38,3.671,17787,2014-11-17 17:16:55:864
0.392649,-9.576806,-1.034295,0.451239,-9.75409,-0.908013,-0.05859,0.177284,-0.126282,0.033903,-0.054672,0.030238,0,-12.66,45.42,26.94,179.1479,84.0654,-153.5748,0,1018.01,58.91365,,,,,,0 / 0,82.8,38,3.671,17903,2014-11-17 17:16:55:980
0.411803,-9.586384,-0.938527,0.456618,-9.754806,-0.897586,-0.044815,0.168424,-0.040941,0.045815,-0.078191,0.04612,20,-12.6,45.66,27.18,178.5028,84.1059,-153.0368,0,1018.01,58.91365,,,,,,0 / 0,82.8,38,3.671,17986,2014-11-17 17:16:56:063
0.871489,-9.701304,-0.68953,0.467422,-9.755252,-0.887109,0.404068,0.053947,0.197579,-0.003971,-0.049175,0.045815,15,-12.54,45.3,27.06,178.5028,84.1059,-153.0368,0,1018.01,58.91365,,,,,,0 / 0,82.8,38,3.671,18041,2014-11-17 17:16:56:118
0.6608,-9.56723,-1.015141,0.488091,-9.753578,-0.894335,0.172709,0.186349,-0.120806,-0.040928,0.014661,0.014661,20,-12.54,44.88,27.12,175.4452,84.1313,-152.2151,0,1018.04,58.91365,,,,,,0 / 0,82.8,38,3.671,18113,2014-11-17 17:16:56:190
0.584185,-9.662998,-0.756568,0.508734,-9.750958,-0.911273,0.075451,0.08796,0.154705,-0.015882,-0.072693,0.010996,17,-12.72,44.94,27.24,175.8507,83.8908,-150.8268,0,1018.04,59.55937,,,,,,0 / 0,82.8,38,3.671,18179,2014-11-17 17:16:56:256
0.651223,-9.643844,-0.92895,0.529137,-9.74855,-0.925287,0.122085,0.104707,-0.003663,-0.03879,0.029627,0.025962,13,-12.6,45.36,27.78,175.8507,83.8908,-150.8268,0,1018.04,59.55937,,,,,,0 / 0,82.8,38,3.671,18232,2014-11-17 17:16:56:309
0.574608,-9.643844,-0.622492,0.546817,-9.74633,-0.93831,0.027791,0.102487,0.315817,-0.020769,-0.048564,0.012828,20,-12.18,44.7,27.96,174.1875,83.7601,-150.2363,0,1018.04,59.55937,,,,,,0 / 0,82.8,38,3.671,18301,2014-11-17 17:16:56:378
0.641646,-9.710882,-0.833182,0.585333,-9.741166,-0.968219,0.056313,0.030285,0.135037,-0.030849,0.053145,0.017715,17,-12,44.52,27.9,170.9382,83.5064,-149.3048,0,1018.04,59.55937,,,,,,0 / 0,82.8,38,3.671,18371,2014-11-17 17:16:56:448
0.641646,-9.710882,-0.833182,0.585333,-9.741166,-0.968219,0.056313,0.030285,0.135037,-0.032681,-0.005498,0.016188,17,-12.48,44.46,27.78,170.3855,83.375,-148.8451,0,1018.04,59.55937,,,,,,0 / 0,82.8,38,3.671,18425,2014-11-17 17:16:56:502
0.593762,-9.56723,-0.871489,0.602603,-9.738292,-0.986394,-0.008841,0.171062,0.114904,-0.016799,0.016493,0.027489,20,-12.54,44.52,27.84,170.3855,83.375,-148.8451,0,1018.1,59.55937,,,,,,0 / 0,82.8,38,3.671,18476,2014-11-17 17:16:56:553
0.804452,-9.586384,-1.034295,0.621825,-9.734914,-1.007557,0.182627,0.14853,-0.026738,-0.050396,3.05E-04,0.025045,9,-12.54,44.82,27.96,172.0704,83.2309,-148.5786,0,1018.1,55.96088,,,,,,0 / 0,82.8,38,3.671,18548,2014-11-17 17:16:56:625
0.804452,-9.586384,-1.034295,0.621825,-9.734914,-1.007557,0.182627,0.14853,-0.026738,-0.047342,0.014966,0.02138,9,-12.78,44.58,28.38,172.0704,83.2309,-148.5786,0,1018.1,55.96088,,,,,,0 / 0,82.8,38,3.671,18598,2014-11-17 17:16:56:675
0.785298,-9.615114,-0.957681,0.685868,-9.720608,-1.099891,0.099431,0.105494,0.14221,-0.075442,0.071166,0.025045,15,-13.8,44.16,28.44,170.8802,83.0655,-148.3187,0,1018.04,55.96088,,,,,,0 / 0,82.8,38,3.671,18676,2014-11-17 17:16:56:753
0.995988,-9.662998,-0.957681,0.710404,-9.715176,-1.131846,0.285584,0.052177,0.174165,-0.05681,0.045509,0.027489,20,-13.92,43.98,28.02,173.3222,82.4046,-148.0532,0,1018.04,55.96088,,,,,,0 / 0,82.8,38,3.671,18736,2014-11-17 17:16:56:813
0.995988,-9.662998,-0.957681,0.710404,-9.715176,-1.131846,0.285584,0.052177,0.174165,-0.060476,0.099266,0.034819,20,-14.16,43.56,28.08,173.0603,82.1681,-147.8855,0,1018.04,55.96088,,,,,,0 / 0,82.8,38,3.671,18786,2014-11-17 17:16:56:863
0.852336,-9.404424,-1.40779,0.738419,-9.706366,-1.188105,0.113917,0.301942,-0.219685,-0.047037,0.067195,0.040012,20,-14.16,43.08,28.38,173.0839,81.9959,-147.9054,0,1018.04,55.96088,,,,,,0 / 0,82.8,38,3.671,18857,2014-11-17 17:16:56:934
1.043872,-9.691728,-1.120486,0.754412,-9.701392,-1.218278,0.28946,0.009665,0.097791,-0.063835,0.027184,0.036957,12,-14.04,43.5,28.08,173.294,81.799,-148.1387,0,1018.04,49.5571,,,,,,0 / 0,82.8,38,3.671,18927,2014-11-17 17:16:57:004
0.957681,-9.557652,-1.35033,0.764227,-9.697124,-1.245861,0.193454,0.139471,-0.104469,-0.034819,0.018326,0.047342,17,-14.4,43.14,28.08,173.294,81.799,-148.1387,0,1017.97,49.5571,,,,,,0 / 0,82.8,38,3.671,18980,2014-11-17 17:16:57:057
0.976834,-9.500192,-1.398214,0.768576,-9.694292,-1.265051,0.208259,0.1941,-0.133162,-0.021991,0.06689,0.065363,17,-14.52,42.18,28.62,175.7488,81.4287,-148.4745,0,1017.97,49.5571,,,,,,0 / 0,82.8,38,3.671,19032,2014-11-17 17:16:57:109
0.708684,-9.634268,-1.187524,0.769892,-9.6918,-1.28323,-0.061208,0.057533,0.095706,-0.00733,9.16E-04,0.058643,17,-14.88,42.12,28.62,175.0535,81.3185,-148.7194,0,1017.97,49.5571,,,,,,0 / 0,82.8,38,3.671,19096,2014-11-17 17:16:57:173
0.881066,-9.519346,-1.273715,0.760839,-9.692202,-1.285591,0.120227,0.172855,0.011876,-0.006109,0.026267,0.072998,20,-14.52,42.36,28.44,176.4615,81.2225,-149.0378,0,1017.97,49.5571,,,,,,0 / 0,82.8,38,3.671,19161,2014-11-17 17:16:57:238
1.149217,-9.586384,-1.426944,0.757495,-9.69176,-1.290885,0.391722,0.105377,-0.13606,-0.011606,0.017104,0.076969,15,-14.76,42.66,28.44,176.4615,81.2225,-149.0378,0,1017.97,49.5571,,,,,,0 / 0,82.8,38,3.671,19216,2014-11-17 17:16:57:293
0.737414,-9.56723,-1.40779,0.751891,-9.690806,-1.301278,-0.014477,0.123576,-0.106512,-0.016188,0.049175,0.062308,17,-14.76,42.12,28.02,176.1437,81.221,-149.5955,0,1017.97,34.97075,,,,,,0 / 0,82.8,38,3.671,19272,2014-11-17 17:16:57:349
0.814029,-9.701304,-0.775721,0.74965,-9.69033,-1.306105,0.064378,-0.010974,0.530384,-0.037263,0.055589,0.066584,0,-15.06,41.94,27.96,177.6565,81.1846,-149.9803,0,1018.04,34.97075,,,,,,0 / 0,82.8,38,3.671,19336,2014-11-17 17:16:57:413
0.804452,-9.682152,-1.417367,0.739575,-9.690916,-1.307519,0.064877,0.008764,-0.109849,0.00672,0.025045,0.069333,15,-15.18,42.3,27.78,178.3259,81.1887,-150.5061,0,1018.04,34.97075,,,,,,0 / 0,82.8,38,3.671,19394,2014-11-17 17:16:57:471
1.024718,-9.375694,-1.628057,0.722683,-9.692268,-1.306927,0.302035,0.316574,-0.32113,0.011301,0.094684,0.106596,17,-14.82,42.42,28.08,178.3259,81.1887,-150.5061,0,1018.04,34.97075,,,,,,0 / 0,82.8,38,3.671,19458,2014-11-17 17:16:57:535
0.679953,-9.5385,-1.292869,0.710124,-9.692814,-1.309754,-0.030171,0.154314,0.016885,-0.013439,0.072998,0.080023,17,-14.88,42.6,28.32,179.0253,81.2405,-151.059,0,1018.07,34.97075,,,,,,0 / 0,82.8,38,3.671,19512,2014-11-17 17:16:57:589
0.679953,-9.5385,-1.292869,0.710124,-9.692814,-1.309754,-0.030171,0.154314,0.016885,-0.015272,0.054978,0.069028,17,-15,42.66,28.38,179.0253,81.2405,-151.059,0,1018.07,34.97075,,,,,,0 / 0,82.8,38,3.671,19563,2014-11-17 17:16:57:640
0.756568,-9.59596,-1.321599,0.705655,-9.692362,-1.315501,0.050912,0.096401,-0.006098,-0.024435,0.086743,0.08094,17,-14.58,42.54,27.6,179.9604,81.2441,-151.7902,0,1018.07,30.58499,,,,,,0 / 0,82.8,38,3.671,19614,2014-11-17 17:16:57:691
0.708684,-9.65342,-1.35033,0.700028,-9.691084,-1.327876,0.008656,0.037663,-0.022454,-0.021075,0.044288,0.055283,17,-14.52,42.54,27.42,181.6221,81.1951,-152.2028,0,1018.07,30.58499,,,,,,0 / 0,82.8,38,3.671,19664,2014-11-17 17:16:57:741
0.852336,-9.605536,-1.235408,0.707047,-9.688604,-1.342182,0.145289,0.083067,0.106774,-0.031154,0.051313,0.060781,17,-14.76,42.48,27.6,181.6221,81.1951,-152.2028,0,1018.08,30.58499,,,,,,0 / 0,82.8,38,3.671,19722,2014-11-17 17:16:57:799
0.517148,-9.672574,-1.264138,0.701303,-9.687058,-1.356275,-0.184156,0.014483,0.092137,-0.001222,0.032681,0.063835,13,-15.06,42.3,28.14,180.5091,81.101,-152.2202,0,1018.08,30.58499,,,,,,0 / 0,82.8,38,3.671,19776,2014-11-17 17:16:57:853
0.833182,-9.528922,-1.292869,0.696796,-9.687114,-1.358185,0.136386,0.158192,0.065316,-0.005803,0.072388,0.065973,17,-15.18,42.24,28.14,181.3033,81.045,-152.8406,0,1018.08,30.58499,,,,,,0 / 0,82.8,38,3.671,19848,2014-11-17 17:16:57:925
0.641646,-9.682152,-1.37906,0.68962,-9.687526,-1.358911,-0.047974,0.005375,-0.020149,-0.012217,0.073609,0.077274,12,-14.88,42.3,27.72,181.6254,81.0604,-153.0931,0,1018.03,30.58499,,,,,,0 / 0,82.8,38,3.671,19924,2014-11-17 17:16:58:001
0.766145,-9.548076,-1.369483,0.68364,-9.68747,-1.362334,0.082504,0.139394,-0.007149,-0.011606,0.030849,0.057116,17,-15.06,42.06,27.84,181.9561,81.0583,-153.3518,0,1018.03,31.27762,,,,,,0 / 0,82.8,38,3.671,19974,2014-11-17 17:16:58:051
0.737414,-9.548076,-1.321599,0.679972,-9.687394,-1.364709,0.057443,0.139318,0.04311,0.015577,0.025351,0.075747,17,-14.76,42.24,27.66,181.9561,81.0583,-153.3518,0,1018.03,31.27762,,,,,,0 / 0,82.8,38,3.671,20024,2014-11-17 17:16:58:101
0.775721,-9.442732,-1.522712,0.672324,-9.686974,-1.371464,0.103398,0.244242,-0.151248,-0.016799,0.052534,0.068722,13,-14.82,42.48,27.84,182.6389,81.0397,-153.8848,0,1018.04,31.27762,,,,,,0 / 0,82.8,38,3.671,20091,2014-11-17 17:16:58:168
0.459687,-9.691728,-1.120486,0.668878,-9.68441,-1.391114,-0.209191,-0.007318,0.270628,-0.027794,0.119424,0.064141,0,-14.16,42.66,27.06,181.8327,80.9805,-153.9963,0,1018.04,31.27762,,,,,,0 / 0,82.8,38,3.671,20172,2014-11-17 17:16:58:249
0.459687,-9.691728,-1.120486,0.668878,-9.68441,-1.391114,-0.209191,-0.007318,0.270628,-0.029627,0.092546,0.043371,0,-14.52,42.72,26.88,184.3913,80.944,-154.3207,0,1018.04,31.27762,,,,,,0 / 0,82.8,38,3.671,20222,2014-11-17 17:16:58:299
0.593762,-9.605536,-1.37906,0.671621,-9.68267,-1.401873,-0.077859,0.077133,0.022813,-0.018021,0.057116,0.065057,17,-14.4,42.72,26.94,182.37,80.8796,-154.4015,0,1018.09,31.27762,,,,,,0 / 0,82.8,38,3.671,20282,2014-11-17 17:16:58:359
0.746991,-9.586384,-1.398214,0.669093,-9.681702,-1.409733,0.077898,0.095319,0.01152,9.16E-04,0.035125,0.066584,17,-14.88,42.72,27.24,182.37,80.8796,-154.4015,0,1018.09,31.27762,,,,,,0 / 0,82.8,38,3.671,20337,2014-11-17 17:16:58:414
0.708684,-9.672574,-1.206678,0.664445,-9.682624,-1.405592,0.044238,0.01005,0.198914,-0.012828,0.061392,0.058338,0,-15.3,42.54,27.48,184.862,80.8779,-154.6992,0,1018.09,52.81702,,,,,,0 / 0,82.8,38,3.671,20402,2014-11-17 17:16:58:479
0.718261,-9.56723,-1.580173,0.662284,-9.682178,-1.409686,0.055977,0.114947,-0.170487,-0.010079,0.062308,0.067195,20,-15.06,42.6,27.24,185.0749,80.8615,-154.8354,0,1018.04,52.81702,,,,,,0 / 0,82.8,38,3.671,20461,2014-11-17 17:16:58:538
0.641646,-9.586384,-1.369483,0.657147,-9.682406,-1.410529,-0.015501,0.096023,0.041046,0.027794,0.002443,0.071471,15,-14.94,42.6,27.18,185.0749,80.8615,-154.8354,0,1018.04,52.81702,,,,,,0 / 0,82.8,38,3.671,20511,2014-11-17 17:16:58:588
0.775721,-9.548076,-1.35033,0.651152,-9.683954,-1.402654,0.124569,0.135878,0.052324,-0.004581,0.039401,0.050396,17,-14.88,42.48,27.12,185.3137,80.8699,-155.0198,0,1018.04,52.81702,,,,,,0 / 0,82.8,38,3.671,20563,2014-11-17 17:16:58:640
0.814029,-9.65342,-1.417367,0.652436,-9.683564,-1.404742,0.161593,0.030143,-0.012625,-0.004887,0.01741,0.062003,0,-15.18,42.06,27.12,185.3581,80.9127,-155.0874,0,1018.07,52.81702,,,,,,0 / 0,82.8,38,3.671,20644,2014-11-17 17:16:58:721
0.679953,-9.519346,-1.359906,0.642587,-9.683728,-1.408141,0.037366,0.164383,0.048235,-0.009468,0.003665,0.062919,20,-15.06,42.48,27.12,185.6917,80.9,-155.3436,0,1018.07,52.81702,,,,,,0 / 0,82.8,38,3.671,20728,2014-11-17 17:16:58:805
0.785298,-9.672574,-1.40779,0.641918,-9.683564,-1.409582,0.14338,0.010989,0.001792,0.003971,0.030849,0.064752,20,-15,42.9,27.18,185.9509,80.9127,-155.5157,0,1018.04,46.12758,,,,,,0 / 0,82.8,38,3.671,20796,2014-11-17 17:16:58:873
0.670377,-9.557652,-1.235408,0.639196,-9.68411,-1.407066,0.03118,0.126456,0.171658,0.008247,0.050091,0.065973,17,-14.76,42.96,27.18,186.0158,80.9329,-155.5688,0,1018.04,46.12758,,,,,,0 / 0,82.8,38,3.671,20864,2014-11-17 17:16:58:941
0.651223,-9.615114,-1.340753,0.636058,-9.684902,-1.403033,0.015165,0.069789,0.06228,0.00672,0.038179,0.073915,0,-14.88,42.96,27,186.0671,80.9622,-155.6131,0,1018.04,46.12758,,,,,,0 / 0,82.8,38,3.671,20934,2014-11-17 17:16:59:011
0.68953,-9.605536,-1.388637,0.630932,-9.685784,-1.399245,0.058598,0.080248,0.010608,0.008858,0.026573,0.063225,17,-15.36,42.66,26.94,186.0671,80.9622,-155.6131,0,1017.99,46.12758,,,,,,0 / 0,82.8,38,3.671,20985,2014-11-17 17:16:59:062
0.574608,-9.576806,-1.302446,0.626085,-9.686596,-1.395807,-0.051477,0.10979,0.093361,0.001527,0.035736,0.06353,16,-15.18,42.48,26.64,186.3086,81.0255,-155.8415,0,1017.99,46.12758,,,,,,0 / 0,82.8,38,3.671,21041,2014-11-17 17:16:59:118
0.737414,-9.500192,-1.455675,0.623883,-9.68708,-1.393432,0.113531,0.186889,-0.062243,-0.005498,0.039095,0.054672,19,-15.12,42.54,26.82,186.3086,81.0255,-155.8415,0,1017.99,34.60669,,,,,,0 / 0,82.8,38,3.671,21098,2014-11-17 17:16:59:175
0.574608,-9.701304,-1.177947,0.623458,-9.687332,-1.391866,-0.048849,-0.013973,0.213918,-0.004581,0.00733,0.04948,17,-14.88,42.84,27,186.3961,81.0436,-155.8804,0,1017.99,34.60669,,,,,,0 / 0,82.8,38,3.671,21149,2014-11-17 17:16:59:226
0.775721,-9.519346,-1.503559,0.625415,-9.686734,-1.395148,0.150307,0.167388,-0.10841,0.006414,0.012523,0.065363,0,-14.88,42.9,27.18,186.3818,81.0531,-155.871,0,1017.99,34.60669,,,,,,0 / 0,82.8,38,3.671,21211,2014-11-17 17:16:59:288
0.47884,-9.65342,-1.331176,0.619747,-9.686862,-1.396792,-0.140907,0.033441,0.065616,0.013744,-0.010385,0.051924,20,-14.94,42.66,27.18,186.6479,81.0354,-156.0735,0,1017.99,34.60669,,,,,,0 / 0,82.8,38,3.671,21283,2014-11-17 17:16:59:360
0.756568,-9.576806,-1.359906,0.619991,-9.68701,-1.395659,0.136577,0.110203,0.035752,-0.009163,0.058948,0.066279,17,-14.46,42.72,26.94,186.6479,81.0354,-156.0735,0,1018.04,34.60669,,,,,,0 / 0,82.8,38,3.671,21336,2014-11-17 17:16:59:413
0.603339,-9.605536,-1.292869,0.616367,-9.687348,-1.394904,-0.013028,0.081811,0.102035,0.01405,-0.001527,0.065363,20,-14.16,42.96,26.76,186.6135,81.041,-156.0479,0,1018.04,34.60669,,,,,,0 / 0,82.8,38,3.671,21392,2014-11-17 17:16:59:469
0.756568,-9.586384,-1.398214,0.614183,-9.68772,-1.393305,0.142385,0.101336,-0.004908,-0.00336,0.055894,0.063835,17,-14.34,43.02,26.76,184.6449,81.0537,-156.1608,0,1018.04,34.60669,,,,,,0 / 0,82.8,38,3.671,21464,2014-11-17 17:16:59:541
0.603339,-9.548076,-1.446098,0.613322,-9.686668,-1.400956,-0.009983,0.138592,-0.045142,0.006109,0.008858,0.065363,19,-14.52,42.96,26.7,187.0163,81.0282,-156.3568,0,1018.09,31.88761,,,,,,0 / 0,82.8,38,3.671,21539,2014-11-17 17:16:59:616
0.507571,-9.576806,-1.340753,0.609651,-9.68626,-1.405388,-0.10208,0.109453,0.064635,9.16E-04,0.022602,0.05681,17,-14.88,43.08,26.46,188.5385,81.0129,-156.549,0,1018.09,31.88761,,,,,,0 / 0,82.8,38,3.671,21590,2014-11-17 17:16:59:667
0.545878,-9.643844,-1.187524,0.609463,-9.686182,-1.406001,-0.063585,0.042338,0.218477,-0.019548,0.04948,0.049786,17,-15.3,42.54,26.46,188.5385,81.0129,-156.549,0,1018.09,31.88761,,,,,,0 / 0,82.8,38,3.671,21643,2014-11-17 17:16:59:720
0.526724,-9.557652,-1.570596,0.609001,-9.684322,-1.418945,-0.082276,0.126669,-0.151651,-0.012828,0.005803,0.046426,16,-14.7,42.54,26.82,187.2425,81.01,-156.5646,0,1018.03,31.88761,,,,,,0 / 0,82.8,38,3.671,21710,2014-11-17 17:16:59:787
0.545878,-9.662998,-1.254562,0.617557,-9.68176,-1.432669,-0.071679,0.018762,0.178107,-0.023518,-0.022602,0.042761,17,-14.34,42.84,27.36,187.4337,80.8462,-156.6813,0,1018.03,31.88761,,,,,,0 / 0,82.8,38,3.671,21783,2014-11-17 17:16:59:860
0.766145,-9.615114,-1.321599,0.63662,-9.676226,-1.46142,0.129524,0.061112,0.139821,-0.031765,0.027184,0.04215,17,-14.64,42.9,27.36,187.4081,80.729,-156.6003,0,1018.03,29.31014,,,,,,0 / 0,82.8,38,3.671,21856,2014-11-17 17:16:59:933
0.526724,-9.586384,-1.513135,0.640753,-9.673566,-1.477146,-0.114028,0.087182,-0.03599,-0.018021,0.051924,0.044899,15,-14.58,42.66,27.12,187.2475,80.6451,-156.4612,0,1018.03,29.31014,,,,,,0 / 0,82.8,38,3.671,21921,2014-11-17 17:16:59:998
0.517148,-9.605536,-1.321599,0.648441,-9.670084,-1.496454,-0.131293,0.064547,0.174855,-0.040317,0.034208,0.044593,17,-15,42.3,27,187.2475,80.6451,-156.4612,0,1018.03,29.31014,,,,,,0 / 0,82.8,38,3.671,21973,2014-11-17 17:17:00:050
0.517148,-9.605536,-1.321599,0.648441,-9.670084,-1.496454,-0.131293,0.064547,0.174855,-0.02474,-0.026267,0.036041,17,-15.24,42.18,26.88,187.3974,80.4269,-156.572,0,1018.03,29.31014,,,,,,0 / 0,82.8,38,3.671,22023,2014-11-17 17:17:00:100
0.756568,-9.65342,-1.331176,0.65774,-9.66745,-1.509358,0.098828,0.014029,0.178182,-0.02138,-0.022907,0.03207,15,-15.06,42.06,27.12,187.2651,80.3348,-156.4536,0,1018.09,29.31014,,,,,,0 / 0,82.8,38,3.671,22079,2014-11-17 17:17:00:156
0.679953,-9.672574,-1.302446,0.668722,-9.66474,-1.521846,0.011231,-0.007835,0.219401,-0.049175,-0.019242,0.01741,17,-14.46,42.06,27.12,184.9034,80.2409,-156.2786,0,1018.09,29.31014,,,,,,0 / 0,82.8,38,3.671,22145,2014-11-17 17:17:00:222
0.842759,-9.500192,-1.513135,0.686926,-9.657696,-1.55802,0.155833,0.157503,0.044884,-0.023518,-0.023518,0.038179,17,-14.76,42.06,27.06,184.9034,80.2409,-156.2786,0,1018.08,29.31014,,,,,,0 / 0,82.8,38,3.671,22215,2014-11-17 17:17:00:292
0.842759,-9.500192,-1.513135,0.686926,-9.657696,-1.55802,0.155833,0.157503,0.044884,-0.025045,-0.047342,0.032376,17,-15.12,41.82,27.36,187.0221,80.001,-156.2075,0,1018.08,41.90257,,,,,,0 / 0,82.8,38,3.671,22272,2014-11-17 17:17:00:349
1.005565,-9.442732,-1.838747,0.692251,-9.652742,-1.586111,0.313314,0.210011,-0.252636,-0.007636,0.018631,0.076053,9,-15.66,42.06,27.54,187.9556,79.9054,-156.278,0,1018.08,41.90257,,,,,,0 / 0,82.8,38,3.671,22334,2014-11-17 17:17:00:411
1.005565,-9.442732,-1.838747,0.692251,-9.652742,-1.586111,0.313314,0.210011,-0.252636,-0.07086,0.07422,0.052534,9,-15.6,42.06,27.3,187.9556,79.9054,-156.278,0,1018.08,41.90257,,,,,,0 / 0,82.8,38,3.671,22384,2014-11-17 17:17:00:461
0.727837,-9.5385,-1.628057,0.709802,-9.64329,-1.635078,0.018036,0.104791,0.00702,-0.041539,0.086132,0.061392,13,-15.78,42.12,27.36,189.4378,79.8357,-156.4213,0,1018.03,41.90257,,,,,,0 / 0,82.8,38,3.671,22461,2014-11-17 17:17:00:538
0.842759,-9.682152,-1.570596,0.722566,-9.638162,-1.659556,0.120193,-0.04399,0.08896,-0.050396,0.108734,0.046731,17,-15.84,41.58,27.36,188.399,79.5275,-156.5339,0,1018.03,41.90257,,,,,,0 / 0,82.8,38,3.671,22521,2014-11-17 17:17:00:598
0.766145,-9.691728,-1.790863,0.733241,-9.634624,-1.675334,0.032904,-0.057104,-0.115528,-0.014966,0.016799,0.034514,20,-15.78,41.46,27.36,189.5867,79.3638,-156.4718,0,1017.98,55.92409,,,,,,0 / 0,82.8,38,3.671,22579,2014-11-17 17:17:00:656
0.766145,-9.691728,-1.790863,0.733241,-9.634624,-1.675334,0.032904,-0.057104,-0.115528,-0.050091,0.066584,0.059559,20,-15.96,41.34,27.54,188.1838,79.2524,-156.3625,0,1017.98,55.92409,,,,,,0 / 0,82.8,38,3.671,22633,2014-11-17 17:17:00:710
0.804452,-9.519346,-1.13964,0.740803,-9.632502,-1.6842,0.063649,0.113155,0.544561,0.013134,0.028711,0.044593,13,-15.9,41.28,27.66,188.1838,79.2524,-156.3625,0,1017.98,55.92409,,,,,,0 / 0,82.8,38,3.671,22683,2014-11-17 17:17:00:760
0.526724,-9.433154,-1.790863,0.739145,-9.633074,-1.681645,-0.212421,0.19992,-0.109218,-0.003665,0.19792,0.083078,17,-16.2,40.86,27.84,188.0768,79.204,-156.2727,0,1017.98,55.92409,,,,,,0 / 0,82.8,38,3.671,22733,2014-11-17 17:17:00:810
1.101333,-9.078812,-2.576161,0.750402,-9.62733,-1.709332,0.350931,0.548517,-0.866829,-0.131336,0.157909,0.050091,15,-16.38,40.62,27,189.4636,79.0262,-156.2984,0,1017.97,55.92409,,,,,,0 / 0,82.8,38,3.671,22796,2014-11-17 17:17:00:873
0.68953,-9.548076,-1.35033,0.784262,-9.608698,-1.796731,-0.094732,0.060622,0.446401,-0.14447,-0.051924,-0.039401,17,-16.92,40.38,27.3,189.4636,79.0262,-156.2984,0,1017.97,55.92409,,,,,,0 / 0,82.8,38,3.671,22851,2014-11-17 17:17:00:928
0.565032,-9.615114,-1.292869,0.821648,-9.592658,-1.864457,-0.256616,-0.022456,0.571588,-0.087965,0.138361,0.045509,17,-17.4,40.14,27.48,191.7819,78.4684,-156.419,0,1017.97,55.92409,,,,,,0 / 0,82.8,38,3.671,22910,2014-11-17 17:17:00:987
0.957681,-9.586384,-1.905785,0.842516,-9.584764,-1.895485,0.115165,-0.001618,-0.0103,-0.005803,0.063225,0.046731,12,-18,39.96,27.72,192.0917,77.7886,-156.0355,0,1018.01,56.81966,,,,,,0 / 0,82.8,38,3.671,22970,2014-11-17 17:17:01:047
0.976834,-9.251194,-1.82917,0.855614,-9.583206,-1.897488,0.12122,0.332012,0.068318,-0.010996,0.070555,0.022297,17,-18.3,39.9,27.84,191.6873,77.7457,-155.7284,0,1018.01,56.81966,,,,,,0 / 0,82.8,38,3.671,23033,2014-11-17 17:17:01:110
0.804452,-9.557652,-2.03986,0.876212,-9.578752,-1.910525,-0.07176,0.0211,-0.129335,-0.050396,0.041844,0.005803,13,-18.3,39.9,27.42,191.6873,77.7457,-155.7284,0,1018.01,56.81966,,,,,,0 / 0,82.8,38,3.671,23093,2014-11-17 17:17:01:170
1.082179,-9.500192,-1.561019,0.9136,-9.570244,-1.935509,0.168579,0.070052,0.374489,-0.044593,0.054367,0.02474,17,-18.42,39.48,27.42,192.5468,77.6237,-155.3627,0,1018.06,56.81966,,,,,,0 / 0,82.8,38,3.671,23147,2014-11-17 17:17:01:224
1.149217,-9.461884,-2.422932,0.947382,-9.558496,-1.976879,0.201835,0.09661,-0.446053,-0.136834,0.082772,-0.048564,17,-18.96,39.12,27.48,193.3575,77.083,-154.3948,0,1018.06,56.81966,,,,,,0 / 0,82.8,38,3.671,23222,2014-11-17 17:17:01:299
0.919373,-9.17458,-1.628057,1.00764,-9.539514,-2.037829,-0.088267,0.364933,0.409772,-0.113315,0.025351,-0.017104,17,-19.38,38.82,28.02,191.0935,76.596,-153.6891,0,1018.06,56.81966,,,,,,0 / 0,82.8,38,3.671,23286,2014-11-17 17:17:01:363
0.995988,-9.251194,-2.27928,1.046216,-9.520422,-2.106502,-0.050228,0.269228,-0.172778,-0.0956,0.044593,0.003054,20,-19.44,38.52,27.84,191.0935,76.596,-153.6891,0,1018,42.90236,,,,,,0 / 0,82.8,38,3.671,23339,2014-11-17 17:17:01:416
1.158794,-9.346964,-2.461239,1.078442,-9.504054,-2.16341,0.080352,0.15709,-0.297829,-0.079718,0.025045,0.044899,17,-19.8,38.46,28.08,192.8792,76.1231,-153.5883,0,1018,42.90236,,,,,,0 / 0,82.8,38,3.671,23393,2014-11-17 17:17:01:470
1.465252,-9.184156,-2.231396,1.103678,-9.487062,-2.22439,0.361574,0.302905,-0.007005,-0.135307,0.039095,0.032987,17,-19.86,38.46,28.26,193.2452,75.3324,-153.6107,0,1018,42.90236,,,,,,0 / 0,82.8,38,3.671,23447,2014-11-17 17:17:01:524
1.493982,-9.433154,-2.250549,1.131305,-9.465284,-2.301935,0.362677,0.032129,0.051385,-0.172875,0.089492,0.004581,20,-20.34,37.68,28.44,193.7808,74.8381,-153.8278,0,1018.07,42.90236,,,,,,0 / 0,82.8,38,3.671,23514,2014-11-17 17:17:01:591
0.995988,-9.414,-2.250549,1.162575,-9.440102,-2.38816,-0.166587,0.0261,0.13761,-0.153022,0.042455,0.002138,13,-20.34,37.2,28.44,193.7808,74.8381,-153.8278,0,1018.07,42.90236,,,,,,0 / 0,82.8,38,3.671,23569,2014-11-17 17:17:01:646
0.986411,-9.414,-2.442086,1.186781,-9.41917,-2.457874,-0.20037,0.00517,0.015789,-0.076053,0.032987,0.031765,23,-20.88,37.02,28.5,196.0305,74.2853,-154.0428,0,1018.07,42.90236,,,,,,0 / 0,82.8,38,3.671,23634,2014-11-17 17:17:01:711
1.292869,-9.260772,-2.786851,1.201057,-9.40233,-2.514764,0.091812,0.141559,-0.272087,-0.108734,0.054672,0.04215,16,-21.06,37.02,28.68,195.507,73.4901,-154.4708,0,1018.08,43.64235,,,,,,0 / 0,82.8,38,3.671,23694,2014-11-17 17:17:01:771
1.13964,-9.17458,-2.566584,1.213334,-9.385496,-2.571119,-0.073694,0.210917,0.004535,-0.061697,0.035125,0.036957,13,-21.12,36.66,28.92,196.0784,73.1475,-154.7369,0,1018.08,43.64235,,,,,,0 / 0,82.8,38,3.671,23757,2014-11-17 17:17:01:834
0.823605,-9.270348,-2.777274,1.222144,-9.370332,-2.621763,-0.398539,0.099984,-0.155511,-0.107818,-0.057116,0.023518,22,-21.54,36.06,28.86,196.0784,73.1475,-154.7369,0,1018.08,43.64235,,,,,,0 / 0,82.8,38,3.671,23817,2014-11-17 17:17:01:894
1.11091,-9.097966,-2.700659,1.229097,-9.349962,-2.690329,-0.118188,0.251997,-0.01033,-0.095906,-0.10568,0.004581,15,-21.66,35.82,28.86,198.2025,72.8445,-155.0072,0,1018.08,43.64235,,,,,,0 / 0,82.8,38,3.671,23868,2014-11-17 17:17:01:945
1.177947,-9.23204,-2.700659,1.246606,-9.325968,-2.764545,-0.068659,0.093926,0.063886,-0.126144,-0.217773,-0.033598,0,-21.78,35.58,29.64,198.2112,71.9866,-155.7281,0,1018.08,43.64235,,,,,,0 / 0,82.8,38,3.671,23936,2014-11-17 17:17:02:013
1.704672,-9.136272,-2.96881,1.272493,-9.292656,-2.863166,0.432179,0.156383,-0.105644,-0.166766,-0.211665,-0.04948,20,-21.54,35.7,29.94,198.2112,71.9866,-155.7281,0,1018.08,43.64235,,,,,,0 / 0,82.8,38,3.671,23989,2014-11-17 17:17:02:066
1.436521,-9.155426,-2.863465,1.310252,-9.254296,-2.968444,0.126269,0.09887,0.104978,-0.09499,-0.065363,-0.027489,0,-21.36,35.34,30.72,197.0275,71.3674,-156.0379,0,1018.07,43.64235,,,,,,0 / 0,82.8,38,3.671,24049,2014-11-17 17:17:02:126
1.321599,-9.23204,-3.409343,1.338136,-9.229774,-3.03168,-0.016536,-0.002268,-0.377663,-0.147524,0.041844,0.014355,0,-20.76,34.98,31.02,196.1042,70.6782,-156.1836,0,1018.07,39.16528,,,,,,0 / 0,82.8,38,3.671,24122,2014-11-17 17:17:02:199
1.072602,-9.241618,-2.509123,1.364083,-9.204832,-3.095281,-0.29148,-0.036785,0.586158,-0.112399,0.087354,-0.003054,20,-20.58,34.86,31.26,196.6156,69.823,-156.217,0,1018.07,39.16528,,,,,,0 / 0,82.8,38,3.671,24179,2014-11-17 17:17:02:256
1.015142,-9.5385,-2.892196,1.386497,-9.18957,-3.130465,-0.371356,-0.348929,0.23827,-0.048869,-0.073304,0.077274,0,-20.76,34.62,31.74,196.6156,69.823,-156.217,0,1018.07,39.16528,,,,,,0 / 0,82.8,38,3.671,24234,2014-11-17 17:17:02:311
1.934515,-8.848968,-3.65834,1.367919,-9.180326,-3.165567,0.566596,0.331357,-0.492774,0.054062,-0.045815,0.084299,20,-21.3,34.38,32.76,194.8659,69.5661,-156.1112,0,1018.07,39.16528,,,,,,0 / 0,82.8,38,3.671,24288,2014-11-17 17:17:02:365
1.704672,-8.657434,-3.332729,1.37313,-9.181756,-3.159159,0.331542,0.524323,-0.17357,-0.05681,0.129198,0.05284,15,-21.24,34.2,32.76,194.341,69.4119,-156.6296,0,1018.07,39.16528,,,,,,0 / 0,82.8,38,3.671,24348,2014-11-17 17:17:02:425
0.976834,-9.270348,-2.911349,1.396047,-9.168936,-3.186228,-0.419213,-0.101413,0.274879,-0.083994,0.11973,0.019548,13,-21.12,33.96,32.34,195.3904,69.2235,-156.3393,0,1018.03,39.16528,,,,,,0 / 0,82.8,38,3.671,24405,2014-11-17 17:17:02:482
1.034295,-9.289502,-2.96881,1.41215,-9.15516,-3.218578,-0.377855,-0.134341,0.249769,-0.039706,0.034208,0.057727,11,-21.42,34.08,31.74,195.3904,69.2235,-156.3393,0,1018.03,39.24408,,,,,,0 / 0,82.8,38,3.671,24459,2014-11-17 17:17:02:536
1.130063,-8.916006,-3.533841,1.404664,-9.152744,-3.228714,-0.2746,0.236738,-0.305128,0.019548,0.071471,0.084299,0,-21.78,34.02,31.68,197.2862,68.9978,-156.3106,0,1018.03,39.24408,,,,,,0 / 0,82.8,38,3.671,24515,2014-11-17 17:17:02:592
1.915361,-8.734048,-3.256114,1.42891,-9.143976,-3.242886,0.486452,0.409928,-0.013228,-0.004887,0.06689,0.064446,16,-21.6,33.96,31.68,197.5868,68.9584,-156.4884,0,1018.05,39.24408,,,,,,0 / 0,82.8,38,3.671,24581,2014-11-17 17:17:02:658
1.225831,-9.059658,-3.055001,1.454354,-9.131112,-3.267725,-0.228523,0.071453,0.212724,-0.016493,0.039095,-0.011301,15,-20.82,33.78,31.98,195.17,68.6092,-156.0078,0,1018.05,39.24408,,,,,,0 / 0,82.8,38,3.671,24643,2014-11-17 17:17:02:720
1.254562,-9.155426,-3.141193,1.479472,-9.128492,-3.263772,-0.22491,-0.026935,0.12258,0.007941,0.054062,0.039401,0,-21.12,33.84,32.34,195.17,68.6092,-156.0078,0,1018.05,39.24408,,,,,,0 / 0,82.8,38,3.671,24700,2014-11-17 17:17:02:777
1.532289,-9.078812,-3.1795,1.490033,-9.131272,-3.251155,0.042256,0.052461,0.071655,0.039706,-0.00733,0.051618,11,-20.88,33.78,32.76,193.1106,68.5672,-155.6152,0,1018.06,39.24408,,,,,,0 / 0,82.8,38,3.671,24761,2014-11-17 17:17:02:838
1.292869,-9.011774,-3.1795,1.490976,-9.134486,-3.241692,-0.198107,0.122711,0.062192,0.01741,-0.009774,0.030238,0,-21,33.78,33.06,192.5665,68.6633,-155.3005,0,1018.06,32.09004,,,,,,0 / 0,82.8,38,3.671,24818,2014-11-17 17:17:02:895
1.56102,-9.011774,-3.236961,1.495389,-9.13593,-3.235579,0.065631,0.124156,-0.001381,0.01405,-0.030238,0.043371,16,-21,33.78,33.06,192.5665,68.6633,-155.3005,0,1018.06,32.09004,,,,,,0 / 0,82.8,38,3.671,24875,2014-11-17 17:17:02:952
1.848324,-8.887276,-3.313575,1.501115,-9.13668,-3.230808,0.347208,0.249404,-0.082767,0.025351,-0.015882,0.05681,16,-21.12,34.08,32.88,192.3883,68.6865,-155.195,0,1018.03,32.09004,,,,,,0 / 0,82.8,38,3.671,24936,2014-11-17 17:17:03:013
1.647211,-8.93516,-3.169923,1.517387,-9.138368,-3.218405,0.129824,0.203208,0.048482,-0.012828,0.089492,0.051007,16,-21.54,34.26,32.46,194.0464,68.6986,-155.0792,0,1018.03,32.09004,,,,,,0 / 0,82.8,38,3.671,25002,2014-11-17 17:17:03:079
1.35033,-9.184156,-3.035848,1.528308,-9.139066,-3.211259,-0.177978,-0.045092,0.175412,0.012523,0.135001,0.085827,11,-21.3,34.2,32.4,192.7605,68.7369,-154.5492,0,1018.03,32.09004,,,,,,0 / 0,82.8,38,3.671,25061,2014-11-17 17:17:03:138
1.331176,-9.279924,-2.719813,1.531572,-9.14529,-3.191919,-0.200396,-0.134635,0.472106,-0.027184,0.143248,0.095906,20,-21.66,34.02,32.34,192.7605,68.7369,-154.5492,0,1018.03,32.09004,,,,,,0 / 0,82.8,38,3.671,25119,2014-11-17 17:17:03:196
1.541866,-9.241618,-2.99754,1.522594,-9.14856,-3.186839,0.019272,-0.093058,0.189299,0.007941,0.048258,0.100182,15,-21.48,34.02,32.04,192.4248,68.8375,-154.367,0,1018.03,32.29096,,,,,,0 / 0,82.8,38,3.671,25191,2014-11-17 17:17:03:268
1.58975,-8.63828,-3.830723,1.502807,-9.158724,-3.166975,0.086943,0.520445,-0.663747,0.065668,-0.020769,0.065973,20,-21.72,34.32,31.98,194.427,68.8905,-154.4627,0,1018.03,32.29096,,,,,,0 / 0,82.8,38,3.671,25259,2014-11-17 17:17:03:336
1.493982,-8.944736,-3.074155,1.502023,-9.16236,-3.15681,-0.008041,0.217624,0.082655,-0.00672,-0.068722,0.010079,0,-21.72,34.26,31.98,194.4678,69.1155,-154.5547,0,1017.98,32.29096,,,,,,0 / 0,82.8,38,3.671,25310,2014-11-17 17:17:03:387
1.187524,-9.404424,-2.96881,1.508199,-9.156728,-3.170184,-0.320675,-0.247697,0.201374,0.008247,-0.116675,0.003665,16,-21.48,34.08,31.8,192.6531,69.0233,-154.5575,0,1017.98,32.29096,,,,,,0 / 0,82.8,38,3.671,25377,2014-11-17 17:17:03:454
1.656788,-8.99262,-3.169923,1.506903,-9.15514,-3.175378,0.149884,0.162519,0.005455,-0.005803,0.071777,0.071777,19,-21.48,34.02,31.98,192.7526,68.9974,-154.6129,0,1017.98,32.29096,,,,,,0 / 0,82.8,38,3.671,25454,2014-11-17 17:17:03:531
1.187524,-9.165004,-2.978387,1.514712,-9.15541,-3.170886,-0.327188,-0.009593,0.1925,-0.009774,0.03543,0.027489,0,-21.36,34.08,33,191.1069,69.0018,-154.4665,0,1018.02,32.29096,,,,,,0 / 0,82.8,38,3.671,25526,2014-11-17 17:17:03:603
1.187524,-9.165004,-2.978387,1.514712,-9.15541,-3.170886,-0.327188,-0.009593,0.1925,-0.011912,0.02138,0.044288,0,-21.18,34.02,32.88,191.1069,69.0018,-154.4665,0,1018.02,50.22872,,,,,,0 / 0,82.8,38,3.671,25576,2014-11-17 17:17:03:653
1.369483,-9.126696,-2.930503,1.521178,-9.153768,-3.172533,-0.151695,0.027072,0.24203,0.010079,0.009163,0.058948,0,-21.24,33.78,32.94,190.9838,68.9751,-154.383,0,1018.02,50.22872,,,,,,0 / 0,82.8,38,3.671,25629,2014-11-17 17:17:03:706
1.541866,-8.96389,-3.160346,1.520306,-9.155184,-3.168857,0.02156,0.191294,0.008511,-0.006414,0.039401,0.061697,0,-21.12,33.78,32.58,190.9838,68.9751,-154.383,0,1018.02,50.22872,,,,,,0 / 0,82.8,38,3.671,25679,2014-11-17 17:17:03:756
1.522712,-8.99262,-3.112462,1.52457,-9.154016,-3.170185,-0.001858,0.161395,0.057723,-0.003971,0.027489,0.052534,19,-21.18,33.72,31.98,192.3635,68.9982,-154.3699,0,1018.02,50.22872,,,,,,0 / 0,82.8,38,3.671,25729,2014-11-17 17:17:03:806
1.484405,-9.097966,-3.131616,1.53163,-9.152734,-3.170479,-0.047225,0.054769,0.038863,-0.011606,0.065973,0.058948,0,-21.3,33.78,31.98,192.1317,68.9583,-154.2152,0,1018.02,50.22872,,,,,,0 / 0,82.8,38,3.671,25798,2014-11-17 17:17:03:875
1.503559,-9.011774,-3.112462,1.539703,-9.152262,-3.167938,-0.036144,0.140488,0.055475,-0.001527,0.045815,0.054672,17,-21.96,34.02,31.74,193.791,68.9506,-154.079,0,1018.05,50.22872,,,,,,0 / 0,82.8,38,3.671,25873,2014-11-17 17:17:03:950
1.493982,-9.059658,-3.189077,1.545968,-9.152688,-3.163644,-0.051986,0.09303,-0.025432,-0.008247,0.039095,0.052229,0,-21.72,33.84,32.22,193.594,68.9575,-153.9568,0,1018.05,40.7939,,,,,,0 / 0,82.8,38,3.671,25926,2014-11-17 17:17:04:003
1.474828,-9.097966,-3.083732,1.551232,-9.15275,-3.160884,-0.076403,0.054785,0.077153,0.00336,0.032987,0.061697,15,-21.6,33.78,32.52,193.594,68.9575,-153.9568,0,1018.05,40.7939,,,,,,0 / 0,82.8,38,3.671,25985,2014-11-17 17:17:04:062
1.503559,-9.050082,-3.083732,1.553546,-9.153972,-3.156221,-0.049987,0.10389,0.072489,0.013439,0.025351,0.053756,20,-21.84,33.84,32.52,191.9001,68.9784,-153.7928,0,1018.03,40.7939,,,,,,0 / 0,82.8,38,3.671,26045,2014-11-17 17:17:04:122
1.503559,-9.021352,-3.227384,1.556845,-9.154956,-3.151726,-0.053286,0.133604,-0.075658,0.005803,0.022907,0.058643,0,-21.96,34.08,32.46,193.19,68.9945,-153.7122,0,1018.03,40.7939,,,,,,0 / 0,82.8,38,3.671,26112,2014-11-17 17:17:04:189
1.474828,-9.021352,-3.064578,1.556682,-9.156814,-3.14641,-0.081853,0.135463,0.081832,0.011606,0.023213,0.062308,20,-21.96,34.02,32.22,193.19,68.9945,-153.7122,0,1018.03,40.7939,,,,,,0 / 0,82.8,38,3.671,26162,2014-11-17 17:17:04:239
1.465252,-9.059658,-3.026271,1.556311,-9.159704,-3.13817,-0.091059,0.100045,0.111899,0.01405,0.01069,0.055894,0,-21.42,33.78,32.16,193.12,69.0248,-153.6762,0,1018.05,40.7939,,,,,,0 / 0,82.8,38,3.671,26214,2014-11-17 17:17:04:291
1.61848,-9.011774,-3.169923,1.556896,-9.161292,-3.133241,0.061584,0.149517,-0.036682,0.009774,0.001527,0.059254,11,-21.54,33.78,32.4,192.9328,69.0979,-153.5774,0,1018.05,40.7939,,,,,,0 / 0,82.8,38,3.671,26268,2014-11-17 17:17:04:345
1.570596,-9.078812,-3.083732,1.558564,-9.161704,-3.131205,0.012033,0.082891,0.047473,0.011606,0.002138,0.052534,13,-21.42,33.84,32.58,189.5982,69.1047,-153.5381,0,1018.05,38.0208,,,,,,0 / 0,82.8,38,3.671,26328,2014-11-17 17:17:04:405
1.417368,-8.99262,-3.064578,1.558455,-9.163202,-3.126875,-0.141087,0.170581,0.062297,0.002138,0.019548,0.057116,0,-21.54,33.78,32.58,189.5982,69.1047,-153.5381,0,1018.06,38.0208,,,,,,0 / 0,82.8,38,3.671,26400,2014-11-17 17:17:04:477
1.493982,-9.069236,-2.959233,1.558192,-9.16419,-3.124107,-0.06421,0.094955,0.164874,0.010079,0.016188,0.05681,20,-21.3,33.9,32.34,190.9339,69.1293,-153.508,0,1018.06,38.0208,,,,,,0 / 0,82.8,38,3.671,26458,2014-11-17 17:17:04:535
1.436521,-9.069236,-3.035848,1.555063,-9.16592,-3.120586,-0.118542,0.096685,0.084739,0.013744,0.008858,0.061087,0,-21.3,34.2,32.4,189.5352,69.1739,-153.5118,0,1018.06,38.0208,,,,,,0 / 0,82.8,38,3.671,26526,2014-11-17 17:17:04:603
1.532289,-9.021352,-3.102885,1.552909,-9.167346,-3.117468,-0.02062,0.145995,0.014583,-0.001222,0.014966,0.056505,13,-21.54,34.14,32.64,191.3919,69.1973,-153.5207,0,1018.03,38.0208,,,,,,0 / 0,82.8,38,3.671,26577,2014-11-17 17:17:04:654
1.503559,-9.069236,-3.074155,1.554235,-9.16746,-3.116473,-0.050676,0.098225,0.042318,0.001222,0.022907,0.055894,13,-21.18,34.08,32.22,191.3919,69.1973,-153.5207,0,1018.03,38.0208,,,,,,0 / 0,82.8,38,3.671,26627,2014-11-17 17:17:04:704
1.398214,-9.097966,-3.112462,1.553766,-9.16757,-3.116379,-0.155553,0.069605,0.003917,0.004887,0.024129,0.062919,0,-21.42,34.02,32.16,190.8861,69.1992,-153.4938,0,1018.03,42.7218,,,,,,0 / 0,82.8,38,3.671,26684,2014-11-17 17:17:04:761
1.474828,-9.040504,-3.074155,1.552658,-9.1681,-3.115369,-0.077829,0.127596,0.041214,-0.006109,0.029932,0.058948,16,-21.9,34.2,32.1,192.7784,69.2098,-153.509,0,1017.98,42.7218,,,,,,0 / 0,82.8,38,3.671,26751,2014-11-17 17:17:04:828
1.465252,-9.193734,-3.102885,1.552109,-9.168132,-3.115559,-0.086857,-0.025602,0.012674,-0.00336,0.019853,0.055283,0,-22.08,34.32,32.4,192.7784,69.2098,-153.509,0,1017.98,42.7218,,,,,,0 / 0,82.8,38,3.671,26804,2014-11-17 17:17:04:881
1.465252,-8.944736,-3.150769,1.551878,-9.167496,-3.117544,-0.086627,0.222759,-0.033226,0.007636,0.014661,0.056505,0,-22.2,34.62,33.18,191.5452,69.2103,-153.5184,0,1017.98,42.7218,,,,,,0 / 0,82.8,38,3.671,26855,2014-11-17 17:17:04:932
1.426944,-9.165004,-2.853888,1.55664,-9.166294,-3.118698,-0.129696,0.001291,0.264809,-0.018021,0.024129,0.044899,11,-21.84,34.44,33.36,191.4157,69.1998,-153.5364,0,1018.1,42.7218,,,,,,0 / 0,82.8,38,3.671,26911,2014-11-17 17:17:04:988
1.446098,-9.050082,-3.074155,1.556996,-9.165308,-3.12142,-0.110898,0.115227,0.047265,-0.004887,0.027794,0.05681,20,-21.48,34.26,32.88,189.5029,69.1638,-153.4895,0,1018.1,42.7218,,,,,,0 / 0,82.8,38,3.671,26969,2014-11-17 17:17:05:046
1.503559,-9.002198,-3.217807,1.558221,-9.164296,-3.123784,-0.054663,0.162098,-0.094023,0.010996,0.023824,0.061697,15,-21.24,33.9,32.88,189.5029,69.1638,-153.4895,0,1018.1,42.7218,,,,,,0 / 0,82.8,38,3.671,27027,2014-11-17 17:17:05:104
1.455675,-9.069236,-2.987964,1.560991,-9.163682,-3.124201,-0.105316,0.094447,0.136237,-0.00336,0.024129,0.055589,17,-21.06,34.02,32.88,189.507,69.1472,-153.4888,0,1018,43.41075,,,,,,0 / 0,82.8,38,3.671,27080,2014-11-17 17:17:05:157
1.455675,-9.069236,-2.987964,1.560991,-9.163682,-3.124201,-0.105316,0.094447,0.136237,-0.007636,0.022602,0.047037,17,-21.18,34.08,32.76,189.4504,69.1371,-153.4512,0,1018,43.41075,,,,,,0 / 0,82.8,38,3.671,27132,2014-11-17 17:17:05:209
1.426944,-9.059658,-3.131616,1.563449,-9.162294,-3.127041,-0.136505,0.102635,-0.004575,0.002443,0.01741,0.051313,20,-21.36,34.2,32.58,189.4504,69.1371,-153.4512,0,1018,43.41075,,,,,,0 / 0,82.8,38,3.671,27195,2014-11-17 17:17:05:272
1.455675,-9.002198,-3.150769,1.563553,-9.161338,-3.129785,-0.107878,0.159141,-0.020984,0.001222,-0.001222,0.053756,13,-21.48,34.2,32.28,190.8593,69.0987,-153.4546,0,1018,43.41075,,,,,,0 / 0,82.8,38,3.671,27245,2014-11-17 17:17:05:322
1.465252,-9.021352,-3.074155,1.564258,-9.158996,-3.136288,-0.099007,0.137644,0.062133,-0.005192,0.002138,0.04948,16,-21.54,34.02,32.64,191.3757,69.0768,-153.4828,0,1018.05,43.41075,,,,,,0 / 0,82.8,38,3.671,27320,2014-11-17 17:17:05:397
1.465252,-9.021352,-3.074155,1.564258,-9.158996,-3.136288,-0.099007,0.137644,0.062133,0.004581,0.018326,0.055894,16,-21.78,34.08,32.58,191.3757,69.0768,-153.4828,0,1018.05,43.41075,,,,,,0 / 0,82.8,38,3.671,27370,2014-11-17 17:17:05:447
1.551443,-9.030928,-3.055001,1.56349,-9.159144,-3.136234,-0.012047,0.128217,0.081233,3.05E-04,0.017715,0.059559,0,-21.36,34.02,32.88,191.3958,69.0604,-153.4918,0,1018.05,31.97356,,,,,,0 / 0,82.8,38,3.671,27441,2014-11-17 17:17:05:518
1.551443,-9.030928,-3.055001,1.56349,-9.159144,-3.136234,-0.012047,0.128217,0.081233,0.006414,0.007941,0.055589,0,-21.12,34.38,32.7,189.5548,69.0628,-153.5026,0,1018.05,31.97356,,,,,,0 / 0,82.8,38,3.671,27493,2014-11-17 17:17:05:570
1.484405,-9.040504,-3.131616,1.562873,-9.158856,-3.137383,-0.078468,0.118352,0.005767,-0.004887,0.023213,0.05284,0,-20.82,34.44,32.88,189.5839,69.0581,-153.52,0,1018.05,31.97356,,,,,,0 / 0,82.8,38,3.671,27558,2014-11-17 17:17:05:635
1.503559,-9.040504,-3.169923,1.563274,-9.15788,-3.140037,-0.059715,0.117374,-0.029886,-0.015577,0.036346,0.058338,19,-20.94,34.32,32.52,189.5839,69.0581,-153.52,0,1018.05,31.97356,,,,,,0 / 0,82.8,38,3.671,27609,2014-11-17 17:17:05:686
1.484405,-9.078812,-3.035848,1.564732,-9.15708,-3.141645,-0.080327,0.078267,0.105797,-0.008858,0.036957,0.055894,13,-21.06,34.2,32.28,191.0062,69.0421,-153.5335,0,1018.05,31.97356,,,,,,0 / 0,82.8,38,3.671,27661,2014-11-17 17:17:05:738
1.417368,-9.059658,-3.083732,1.565848,-9.15641,-3.143036,-0.14848,0.096752,0.059304,-0.01069,0.029322,0.054367,0,-21.24,34.08,32.1,190.9896,69.0182,-153.5177,0,1018.05,31.97356,,,,,,0 / 0,82.8,38,3.671,27713,2014-11-17 17:17:05:790
1.637634,-9.030928,-3.1795,1.569405,-9.154704,-3.146225,0.068229,0.123776,-0.033275,0.002749,0.019853,0.063225,0,-21.42,34.38,32.4,190.9896,69.0182,-153.5177,0,1018.05,31.97356,,,,,,0 / 0,82.8,38,3.671,27767,2014-11-17 17:17:05:844
1.455675,-9.126696,-3.169923,1.56841,-9.154012,-3.148743,-0.112735,0.027315,-0.02118,0.003971,0.025351,0.053756,0,-21.66,34.14,32.88,189.697,68.9904,-153.489,0,1018.05,27.2847,,,,,,0 / 0,82.8,38,3.671,27843,2014-11-17 17:17:05:920
1.407791,-9.011774,-3.198653,1.56883,-9.153896,-3.148858,-0.161039,0.142121,-0.049795,0.007636,0.027489,0.051007,20,-21.96,34.2,32.82,191.4726,68.979,-153.5218,0,1018.05,27.2847,,,,,,0 / 0,82.8,38,3.671,27902,2014-11-17 17:17:05:979
1.503559,-9.040504,-3.150769,1.567335,-9.154356,-3.148273,-0.063776,0.113851,-0.002496,0.006414,0.013439,0.058948,20,-22.08,33.9,32.64,191.4726,68.979,-153.5218,0,1018.05,27.2847,,,,,,0 / 0,82.8,38,3.671,27954,2014-11-17 17:17:06:031
1.455675,-9.011774,-3.122039,1.566097,-9.154464,-3.148568,-0.110423,0.14269,0.026529,-0.00336,0.019853,0.053145,0,-22.02,34.08,32.64,191.4899,68.9847,-153.5341,0,1018.03,27.2847,,,,,,0 / 0,82.8,38,3.671,28005,2014-11-17 17:17:06:082
1.493982,-9.021352,-3.246537,1.564636,-9.155176,-3.14723,-0.070654,0.133825,-0.099307,0.001527,0.030849,0.055894,0,-21.84,34.08,32.76,191.5211,68.9864,-153.5542,0,1018.03,27.2847,,,,,,0 / 0,82.8,38,3.671,28070,2014-11-17 17:17:06:147
1.446098,-9.078812,-3.064578,1.563519,-9.15549,-3.146875,-0.117421,0.076678,0.082297,0.004581,0.011912,0.052534,11,-21.36,34.44,32.7,189.6959,69.0031,-153.5796,0,1018.03,27.2847,,,,,,0 / 0,82.8,38,3.671,28146,2014-11-17 17:17:06:223
1.436521,-9.069236,-3.122039,1.562482,-9.156536,-3.144342,-0.125961,0.087301,0.022303,0.008247,0.020769,0.056505,20,-21.36,34.14,32.52,189.6854,69.0202,-153.5764,0,1018.05,26.99094,,,,,,0 / 0,82.8,38,3.671,28196,2014-11-17 17:17:06:273
1.503559,-8.99262,-3.045424,1.562504,-9.158852,-3.137577,-0.058945,0.16623,0.092153,0.015882,0.026878,0.057421,0,-21.18,34.02,32.64,189.6854,69.0202,-153.5764,0,1018.05,26.99094,,,,,,0 / 0,82.8,38,3.671,28265,2014-11-17 17:17:06:342
1.503559,-9.040504,-3.055001,1.563958,-9.16133,-3.129607,-0.060399,0.120826,0.074606,0.009468,0.017104,0.059865,16,-21.6,34.32,33.18,189.5948,69.058,-153.5268,0,1018.05,26.99094,,,,,,0 / 0,82.8,38,3.671,28322,2014-11-17 17:17:06:399
1.465252,-9.021352,-3.045424,1.560971,-9.16443,-3.122021,-0.095719,0.143079,0.076597,0.015577,0.021075,0.05681,0,-21.3,34.26,33.48,189.4218,69.1494,-153.4355,0,1018.05,26.99094,,,,,,0 / 0,82.8,38,3.671,28389,2014-11-17 17:17:06:466
1.484405,-9.069236,-3.102885,1.560269,-9.167128,-3.114433,-0.075864,0.097893,0.011548,0.00733,0.020159,0.059865,11,-21.36,33.96,33.06,189.3362,69.1937,-153.39,0,1018.05,26.99094,,,,,,0 / 0,82.8,38,3.671,28453,2014-11-17 17:17:06:530
1.446098,-9.021352,-3.055001,1.553077,-9.172976,-3.100782,-0.106979,0.151626,0.04578,0.009774,0.024435,0.062003,0,-21.54,33.66,33,191.1768,69.2371,-153.3923,0,1018.03,26.99094,,,,,,0 / 0,82.8,38,3.671,28530,2014-11-17 17:17:06:607
1.407791,-9.040504,-3.045424,1.547909,-9.177396,-3.090277,-0.140118,0.13689,0.044852,0.023824,0.023824,0.065363,13,-21.6,33.66,33,191.1768,69.2371,-153.3923,0,1018.03,26.79689,,,,,,0 / 0,82.8,38,3.671,28580,2014-11-17 17:17:06:657
1.407791,-9.040504,-3.045424,1.547909,-9.177396,-3.090277,-0.140118,0.13689,0.044852,0.018021,0.026573,0.062919,13,-21.36,33.78,32.82,189.2917,69.3633,-153.3939,0,1018.03,26.79689,,,,,,0 / 0,82.8,38,3.671,28632,2014-11-17 17:17:06:709
1.426944,-9.050082,-2.99754,1.544632,-9.180792,-3.081808,-0.117688,0.130711,0.084268,0.014966,0.030238,0.058948,0,-20.88,34.02,32.82,189.2524,69.4197,-153.3795,0,1018.03,26.79689,,,,,,0 / 0,82.8,38,3.671,28688,2014-11-17 17:17:06:765
1.465252,-9.069236,-3.141193,1.54311,-9.18351,-3.074465,-0.077858,0.114275,-0.066727,0.007941,0.026267,0.05681,20,-20.82,34.2,32.94,189.2524,69.4197,-153.3795,0,1018.03,26.79689,,,,,,0 / 0,82.8,38,3.671,28751,2014-11-17 17:17:06:828
1.426944,-9.097966,-3.102885,1.540847,-9.185442,-3.069833,-0.113903,0.087476,-0.033052,0.008858,0.018631,0.056505,11,-21.18,34.5,32.58,189.1886,69.4649,-153.3474,0,1018.03,26.79689,,,,,,0 / 0,82.8,38,3.671,28816,2014-11-17 17:17:06:893
1.446098,-9.021352,-3.045424,1.538137,-9.187462,-3.065138,-0.092039,0.16611,0.019714,0.015882,0.016799,0.055589,0,-21.3,34.38,32.16,190.5443,69.5308,-153.3517,0,1018.03,26.79689,,,,,,0 / 0,82.8,38,3.671,28870,2014-11-17 17:17:06:947
1.465252,-9.136272,-2.96881,1.536074,-9.190916,-3.055807,-0.070822,0.054643,0.086997,0.019548,0.012828,0.062308,13,-21.66,34.26,32.46,190.5443,69.5308,-153.3517,0,1018.07,24.73053,,,,,,0 / 0,82.8,38,3.671,28921,2014-11-17 17:17:06:998
1.417368,-9.088388,-3.016694,1.531511,-9.194936,-3.045977,-0.114143,0.106546,0.029283,0.018326,0.018326,0.064446,17,-21.66,34.38,32.64,190.9312,69.5886,-153.3125,0,1018.07,24.73053,,,,,,0 / 0,82.8,38,3.671,28978,2014-11-17 17:17:07:055
1.465252,-9.050082,-3.102885,1.526753,-9.198792,-3.036711,-0.061502,0.148711,-0.066175,0.022602,0.015272,0.063835,0,-21.24,34.74,32.76,189.1801,69.721,-153.3083,0,1018.07,24.73053,,,,,,0 / 0,82.8,38,3.671,29028,2014-11-17 17:17:07:105
1.484405,-9.11712,-3.035848,1.521574,-9.203532,-3.024931,-0.037169,0.086413,-0.010917,0.023213,0.01741,0.065668,11,-21,34.86,32.82,189.1801,69.721,-153.3083,0,1018.03,24.73053,,,,,,0 / 0,82.8,38,3.671,29088,2014-11-17 17:17:07:165
1.417368,-9.088388,-2.96881,1.516367,-9.20842,-3.012647,-0.099,0.120031,0.043837,0.030238,0.019853,0.065363,20,-21.18,34.62,32.7,189.1385,69.801,-153.2971,0,1018.03,24.73053,,,,,,0 / 0,82.8,38,3.671,29150,2014-11-17 17:17:07:227
1.407791,-9.078812,-2.949656,1.509779,-9.214086,-2.998596,-0.101988,0.135275,0.04894,0.018326,0.027489,0.06689,13,-21.12,34.5,32.64,189.0509,69.9803,-153.275,0,1018.03,24.73053,,,,,,0 / 0,82.8,38,3.671,29212,2014-11-17 17:17:07:289
1.369483,-9.107542,-3.035848,1.499848,-9.220124,-2.984991,-0.130365,0.112581,-0.050857,0.033598,0.015272,0.068417,17,-21.42,34.14,32.46,190.3129,70.0836,-153.3221,0,1018.07,27.31734,,,,,,0 / 0,82.8,38,3.671,29274,2014-11-17 17:17:07:351
1.407791,-9.126696,-2.892196,1.490315,-9.227084,-2.96821,-0.082525,0.100388,0.076014,0.052534,0.009163,0.079718,0,-21.06,34.26,32.58,190.3129,70.0836,-153.3221,0,1018.07,27.31734,,,,,,0 / 0,82.8,38,3.671,29328,2014-11-17 17:17:07:405
1.474828,-9.069236,-2.978387,1.47775,-9.235968,-2.946783,-0.002921,0.166733,-0.031604,0.037874,0.019853,0.07758,13,-21.18,34.74,32.16,190.4344,70.3572,-153.3672,0,1018.07,27.31734,,,,,,0 / 0,82.8,38,3.671,29400,2014-11-17 17:17:07:477
1.398214,-9.126696,-3.026271,1.464636,-9.243586,-2.929396,-0.066423,0.116889,-0.096875,0.036652,0.019548,0.073609,20,-20.82,35.04,32.34,190.4964,70.49,-153.4359,0,1018.06,27.31734,,,,,,0 / 0,82.8,38,3.671,29454,2014-11-17 17:17:07:531
1.283292,-9.17458,-2.853888,1.453717,-9.25065,-2.91248,-0.170425,0.07607,0.058592,0.044899,-0.002749,0.067806,13,-21.18,35.1,32.22,190.4964,70.49,-153.4359,0,1018.06,27.31734,,,,,,0 / 0,82.8,38,3.671,29512,2014-11-17 17:17:07:589
1.359907,-9.165004,-2.806004,1.441046,-9.259474,-2.890658,-0.081139,0.09447,0.084653,0.035125,0.003665,0.070555,17,-21.06,35.4,32.28,190.5145,70.614,-153.4747,0,1018.06,27.31734,,,,,,0 / 0,82.8,38,3.671,29562,2014-11-17 17:17:07:639
1.388637,-9.078812,-2.930503,1.428805,-9.266616,-2.873798,-0.040168,0.187803,-0.056705,0.028711,0.022297,0.065363,0,-20.76,35.34,31.92,190.5572,70.897,-153.5642,0,1018.07,27.31734,,,,,,0 / 0,82.8,38,3.671,29643,2014-11-17 17:17:07:720
1.292869,-9.126696,-2.901772,1.421102,-9.27172,-2.861127,-0.128233,0.145023,-0.040646,0.015577,0.030238,0.067806,11,-20.28,35.04,31.92,190.0497,70.9884,-153.5867,0,1018.07,29.31654,,,,,,0 / 0,82.8,38,3.671,29709,2014-11-17 17:17:07:786
1.369483,-9.136272,-2.825158,1.415261,-9.275576,-2.851506,-0.045777,0.139303,0.026348,0.02138,0.032987,0.068111,20,-20.4,35.1,31.92,188.6802,71.0576,-153.6038,0,1018.07,29.31654,,,,,,0 / 0,82.8,38,3.671,29766,2014-11-17 17:17:07:843
1.273715,-9.20331,-2.825158,1.405509,-9.281828,-2.83595,-0.131794,0.078517,0.010792,0.03543,0.034819,0.07422,0,-20.16,35.34,32.22,188.6993,71.1705,-153.6368,0,1018.07,29.31654,,,,,,0 / 0,82.8,38,3.671,29834,2014-11-17 17:17:07:911
1.216255,-9.23204,-2.767697,1.392097,-9.290578,-2.813822,-0.175843,0.058537,0.046125,0.047647,0.011301,0.080634,20,-20.64,35.16,31.8,188.6993,71.1705,-153.6368,0,1018.07,29.31654,,,,,,0 / 0,82.8,38,3.671,29887,2014-11-17 17:17:07:964
1.331176,-9.126696,-2.863465,1.375895,-9.299802,-2.791227,-0.044719,0.173106,-0.072238,0.031765,0.005803,0.073915,19,-20.4,35.4,31.86,188.7955,71.4986,-153.7597,0,1018.07,29.31654,,,,,,0 / 0,82.8,38,3.671,29944,2014-11-17 17:17:08:021
1.273715,-9.23204,-2.710236,1.354891,-9.307898,-2.774465,-0.081176,0.075858,0.064229,0.034819,0.03207,0.090713,15,-20.82,35.28,31.92,190.9226,71.6483,-153.9717,0,1018.04,29.31654,,,,,,0 / 0,82.8,38,3.671,30005,2014-11-17 17:17:08:082
0.967258,-9.423578,-2.48997,1.3273,-9.320192,-2.746395,-0.360042,-0.103385,0.256425,0.049786,0.018937,0.105069,20,-20.34,35.88,31.8,189.4782,71.8777,-154.2061,0,1018.04,51.47185,,,,,,0 / 0,82.8,38,3.671,30074,2014-11-17 17:17:08:151
1.13964,-9.423578,-2.413355,1.241961,-9.351372,-2.679511,-0.102321,-0.072206,0.266156,-0.026878,-0.094073,0.102015,20,-19.62,36.18,31.38,192.0189,72.4729,-155.1321,0,1018.06,51.47185,,,,,,0 / 0,82.8,38,3.671,30150,2014-11-17 17:17:08:227
1.292869,-9.126696,-3.275268,1.19805,-9.346946,-2.714717,0.094819,0.220249,-0.560551,-0.036346,-0.111788,0.108429,12,-19.38,36.18,31.2,192.0189,72.4729,-155.1321,0,1018.06,51.47185,,,,,,0 / 0,82.8,38,3.671,30216,2014-11-17 17:17:08:293
0.957681,-9.126696,-3.064578,1.170175,-9.33831,-2.756274,-0.212494,0.211614,-0.308304,-0.078191,-0.020769,0.082161,12,-19.62,35.88,31.38,193.634,72.3872,-156.1873,0,1018.06,51.47185,,,,,,0 / 0,82.8,38,3.671,30272,2014-11-17 17:17:08:349
0.957681,-9.126696,-3.064578,1.170175,-9.33831,-2.756274,-0.212494,0.211614,-0.308304,-0.076664,-0.022297,0.089186,12,-19.38,35.64,31.5,191.6715,72.2212,-156.9964,0,1018.06,51.47185,,,,,,0 / 0,82.8,38,3.671,30323,2014-11-17 17:17:08:400
1.120486,-9.11712,-2.959233,1.149353,-9.317828,-2.833274,-0.028867,0.200708,-0.125959,-0.018326,0.061697,0.059254,0,-19.32,35.52,31.68,192.5518,71.9994,-157.6264,0,1017.97,50.74356,,,,,,0 / 0,82.8,38,3.671,30394,2014-11-17 17:17:08:471
0.986411,-9.23204,-2.604891,1.161826,-9.31166,-2.848427,-0.175415,0.079618,0.243536,-0.053145,0.028711,0.030238,0,-19.44,35.52,31.62,193.2226,71.8334,-157.9194,0,1017.97,50.74356,,,,,,0 / 0,82.8,38,3.671,30464,2014-11-17 17:17:08:541
1.072602,-9.193734,-3.313575,1.156763,-9.307806,-2.863048,-0.08416,0.114072,-0.450527,0.008552,0.011606,0.052534,12,-19.92,35.28,31.74,195.1279,71.6465,-157.9997,0,1018.03,50.74356,,,,,,0 / 0,82.8,38,3.671,30538,2014-11-17 17:17:08:615
1.187524,-9.126696,-3.035848,1.152208,-9.303458,-2.878976,0.035316,0.176762,-0.156872,0.009468,0.037874,0.06017,12,-20.58,35.04,32.1,195.1279,71.6465,-157.9997,0,1018.03,50.74356,,,,,,0 / 0,82.8,38,3.671,30614,2014-11-17 17:17:08:691
1.216255,-9.126696,-2.786851,1.149131,-9.307788,-2.866173,0.067124,0.181091,0.079323,0.037263,0.08827,0.055894,12,-20.4,35.04,32.1,195.3564,71.6462,-158.1527,0,1018.03,50.74356,,,,,,0 / 0,82.8,38,3.671,30678,2014-11-17 17:17:08:755
1.216255,-9.040504,-3.44765,1.164037,-9.317416,-2.828631,0.052217,0.276911,-0.619019,0.096822,0.064141,0.047953,0,-20.04,35.28,31.92,194.4982,71.8257,-157.6319,0,1018.09,50.74356,,,,,,0 / 0,82.8,38,3.671,30731,2014-11-17 17:17:08:808
1.177947,-9.423578,-2.806004,1.179139,-9.334186,-2.766401,-0.001191,-0.089392,-0.039603,-0.027489,0.052229,0.039095,12,-20.16,35.64,31.56,194.4982,71.8257,-157.6319,0,1018.09,44.80858,,,,,,0 / 0,82.8,38,3.671,30781,2014-11-17 17:17:08:858
1.091756,-9.251194,-2.738967,1.193899,-9.329892,-2.774546,-0.102143,0.078697,0.03558,0.002749,0.051313,0.031765,0,-20.4,35.76,31.26,194.5787,72.0609,-156.7176,0,1018.09,44.80858,,,,,,0 / 0,82.8,38,3.671,30837,2014-11-17 17:17:08:914
1.177947,-9.165004,-2.815581,1.20735,-9.32689,-2.77882,-0.029403,0.161886,-0.036761,-0.014661,0.043371,0.046426,17,-20.82,35.76,31.32,196.1336,72.004,-156.5159,0,1018.22,44.80858,,,,,,0 / 0,82.8,38,3.671,30896,2014-11-17 17:17:08:973
1.168371,-9.184156,-2.806004,1.21939,-9.322312,-2.788895,-0.051019,0.138156,-0.017109,-0.04612,0.036041,0.03543,0,-20.94,35.52,31.2,195.9794,71.9177,-156.3836,0,1018.22,44.80858,,,,,,0 / 0,82.8,38,3.671,30970,2014-11-17 17:17:09:047
1.273715,-9.241618,-2.700659,1.235041,-9.314024,-2.809627,0.038674,0.072407,0.108968,-0.025656,0.079107,0.069944,19,-20.88,35.4,31.68,195.9794,71.9177,-156.3836,0,1018.22,44.80858,,,,,,0 / 0,82.8,38,3.671,31025,2014-11-17 17:17:09:102
1.187524,-9.23204,-2.911349,1.240198,-9.310054,-2.820499,-0.052673,0.078013,-0.090851,-0.010385,0.068111,0.051313,13,-21.18,35.46,31.44,195.7184,71.6883,-156.2645,0,1018.06,44.80858,,,,,,0 / 0,82.8,38,3.671,31076,2014-11-17 17:17:09:153
1.235408,-9.107542,-2.853888,1.244749,-9.307728,-2.826161,-0.00934,0.200185,-0.027727,-0.015577,0.046426,0.057727,0,-21.18,35.64,31.38,195.8858,71.6451,-156.2295,0,1018.06,29.18343,,,,,,0 / 0,82.8,38,3.671,31133,2014-11-17 17:17:09:210
1.292869,-9.289502,-2.853888,1.254405,-9.302264,-2.839843,0.038464,0.012763,-0.014045,-0.030849,0.029016,0.038485,17,-21.12,35.52,30.9,195.8858,71.6451,-156.2295,0,1018.06,29.18343,,,,,,0 / 0,82.8,38,3.671,31188,2014-11-17 17:17:09:265
