ACCELEROMETER X (m/s²),ACCELEROMETER Y (m/s²),ACCELEROMETER Z (m/s²),GRAVITY X (m/s²),GRAVITY Y (m/s²),GRAVITY Z (m/s²),LINEAR ACCELERATION X (m/s²),LINEAR ACCELERATION Y (m/s²),LINEAR ACCELERATION Z (m/s²),GYROSCOPE X (rad/s),GYROSCOPE Y (rad/s),GYROSCOPE Z (rad/s),LIGHT (lux),MAGNETIC FIELD X (μT),MAGNETIC FIELD Y (μT),MAGNETIC FIELD Z (μT),ORIENTATION X (°),ORIENTATION Y (°),ORIENTATION Z (°),PROXIMITY (i),SOUND LEVEL (dB),LOCATION Latitude : ,LOCATION Longitude : ,LOCATION Altitude ( m),LOCATION Altitude-google ( m),LOCATION Speed ( Kmh),LOCATION Accuracy ( m),LOCATION ORIENTATION (°),Satellites in range,Time since start in ms ,YYYY-MO-DD HH-MI-SS_SSS
-0.304,-9.9341,0.3138,0.0498,-9.8056,0.1317,-0.3538,-0.1285,0.1821,-0.0452,0.011,-0.0281,0.0,-10.2,-26.0,5.0,63.08,88.84,2.76,,57.753,,,,NaN,,,,0 / 0,10,2014-12-14 04:41:27:266
-0.4119,-10.1107,0.0588,0.0527,-9.8059,0.1096,-0.4646,-0.1577,0.469,-0.0489,-0.1026,-0.0574,0.0,-9.8,-26.4,5.5,86.05,89.18,-20.7,,57.753,,,,NaN,,,,0 / 0,60,2014-12-14 04:41:27:316
-0.2648,-9.8655,0.1471,0.0552,-9.8061,0.0871,-0.32,-0.0594,0.06,-0.0476,-0.0037,-0.0391,0.0,-10.2,-25.6,6.0,92.75,89.4,-32.38,,57.753,,,,NaN,,,,0 / 0,111,2014-12-14 04:41:27:367
-0.2648,-9.8655,0.1471,0.0552,-9.8061,0.0871,-0.32,-0.0594,0.06,-0.0476,-0.0037,-0.0391,0.0,-10.2,-25.6,6.0,92.75,89.4,-32.38,,57.753,,,,NaN,,,,0 / 0,161,2014-12-14 04:41:27:417
-0.1569,-10.0126,0.1471,0.086,-9.8063,-0.0032,-0.2527,-0.1965,0.1503,-0.0684,-0.0183,-0.044,0.0,-10.2,-26.0,6.0,128.69,89.53,-68.83,,57.753,,,,NaN,,,,0 / 0,210,2014-12-14 04:41:27:466
-0.2059,-9.993,0.2452,0.1196,-9.8057,-0.0634,-0.3451,-0.05,0.0634,-0.0122,-0.044,-0.0318,0.0,-10.2,-26.0,7.0,173.16,89.21,-117.95,,57.753,,,,NaN,,,,0 / 0,260,2014-12-14 04:41:27:516
-0.0981,-10.0126,0.1079,0.1393,-9.8048,-0.131,-0.2373,-0.2078,0.2388,-0.0415,-0.0098,-0.0367,0.0,-10.2,-26.0,6.0,173.16,89.21,-117.95,,57.753,,,,NaN,,,,0 / 0,311,2014-12-14 04:41:27:567
-0.1569,-9.9636,0.1177,0.1562,-9.8043,-0.1499,-0.2935,-0.1397,0.2676,-0.0257,-0.0403,-0.0305,0.0,-10.2,-26.0,6.5,188.91,88.83,-134.28,,54.567,,,,NaN,,,,0 / 0,360,2014-12-14 04:41:27:616
-0.255,-10.0224,0.049,0.1579,-9.804,-0.1624,-0.3344,-0.2086,0.2016,-0.0159,0.0171,-0.0269,0.0,-10.7,-26.0,7.0,192.76,88.68,-135.81,,54.567,,,,NaN,,,,0 / 0,411,2014-12-14 04:41:27:667
-0.2256,-9.9047,-0.1471,0.1609,-9.8037,-0.1781,-0.3865,-0.101,0.031,-0.055,0.0232,-0.0452,0.0,-10.7,-26.4,7.5,192.76,88.68,-135.81,,54.567,,,,NaN,,,,0 / 0,461,2014-12-14 04:41:27:717
-0.2648,-9.9832,-0.1471,0.1627,-9.8028,-0.223,-0.4275,-0.1804,0.0759,-0.0501,0.0391,-0.0318,0.0,-11.1,-26.0,8.0,194.84,88.46,-141.62,,54.567,,,,NaN,,,,0 / 0,510,2014-12-14 04:41:27:766
-0.255,-10.0028,-0.049,0.1594,-9.8018,-0.2626,-0.4144,-0.2009,0.2136,-0.0195,0.0073,-0.0305,0.0,-11.1,-26.0,7.5,201.47,88.2,-148.74,,54.567,,,,NaN,,,,0 / 0,560,2014-12-14 04:41:27:816
-0.1373,-9.993,0.0686,0.1597,-9.8013,-0.2801,-0.297,-0.1916,0.3487,-0.0049,0.0232,-0.0464,0.0,-11.1,-26.0,8.0,201.47,88.2,-148.74,,54.567,,,,NaN,,,,0 / 0,611,2014-12-14 04:41:27:867
-0.2844,-9.9734,-0.0196,0.169,-9.8013,-0.2771,-0.5024,-0.1819,0.2869,-0.0012,0.0318,-0.0428,0.0,-11.1,-26.0,8.0,202.16,88.11,-149.54,,54.567,,,,NaN,,,,0 / 0,661,2014-12-14 04:41:27:917
-0.2648,-9.9439,-0.1863,0.2087,-9.8003,-0.2838,-0.5225,-0.1927,0.0877,-0.044,0.0244,-0.1038,0.0,-11.5,-26.0,8.0,196.54,87.94,-143.68,,54.567,,,,NaN,,,,0 / 0,711,2014-12-14 04:41:27:967
-0.304,-10.0812,0.0981,0.2244,-9.7989,-0.3197,-0.5284,-0.2824,0.4178,-0.0024,-0.0733,-0.0965,0.0,-11.5,-26.4,7.5,197.6,87.72,-144.94,,54.567,,,,NaN,,,,0 / 0,760,2014-12-14 04:41:28:016
-0.6178,-10.0518,0.1079,0.2336,-9.7993,-0.3008,-0.8515,-0.2526,0.4086,-0.0098,-0.0757,-0.1747,0.0,-12.0,-26.4,8.5,197.6,87.72,-144.94,,54.567,,,,NaN,,,,0 / 0,811,2014-12-14 04:41:28:067
-0.4707,-9.8655,-0.2844,0.2404,-9.7984,-0.3223,-0.5835,-0.166,0.165,-0.0257,-0.0415,-0.2248,0.0,-12.4,-26.9,8.9,194.69,87.82,-142.55,,36.885,,,,NaN,,,,0 / 0,861,2014-12-14 04:41:28:117
-0.255,-10.0322,-0.1863,0.3136,-9.7934,-0.4005,-0.5835,-0.166,0.165,-0.1271,0.0672,-0.3152,0.0,-12.4,-26.9,8.9,194.69,87.82,-142.55,,36.885,,,,NaN,,,,0 / 0,910,2014-12-14 04:41:28:166
-0.0883,-10.0028,-0.1079,0.3886,-9.7885,-0.4519,-0.4705,-0.2486,0.273,-0.1466,0.0794,-0.3213,0.0,-13.3,-26.4,8.9,195.92,87.03,-141.94,,36.885,,,,NaN,,,,0 / 0,960,2014-12-14 04:41:28:216
0.0294,-9.8851,-0.3628,0.4951,-9.7799,-0.5282,-0.4657,-0.1052,0.1654,-0.1625,0.2786,-0.3971,0.0,-14.1,-26.9,10.4,190.17,85.77,-136.85,,36.885,,,,NaN,,,,0 / 0,1011,2014-12-14 04:41:28:267
0.0294,-9.8851,-0.3628,0.4951,-9.7799,-0.5282,-0.4657,-0.1052,0.1654,-0.1625,0.2786,-0.3971,0.0,-14.1,-26.9,10.4,190.17,85.77,-136.85,,36.885,,,,NaN,,,,0 / 0,1061,2014-12-14 04:41:28:317
1.1768,-9.9047,-0.0392,0.881,-9.7382,-0.7501,0.2958,-0.1666,0.7109,-0.2688,0.4154,-0.4349,0.0,-15.0,-27.7,10.4,185.72,83.22,-130.41,,36.885,,,,NaN,,,,0 / 0,1111,2014-12-14 04:41:28:367
0.7551,-10.395,1.0297,1.2705,-9.6987,-0.7006,-0.5154,-0.6963,1.7303,-0.1515,0.4019,-0.4606,0.0,-16.7,-27.7,10.9,176.62,81.49,-118.87,,36.885,,,,NaN,,,,0 / 0,1160,2014-12-14 04:41:28:416
1.2553,-12.3368,2.8243,1.3754,-9.7092,0.098,-0.2198,-1.5447,2.157,0.2932,0.1662,-0.1466,0.0,-17.2,-27.7,10.9,166.5,81.68,-106.86,,36.885,,,,NaN,,,,0 / 0,1211,2014-12-14 04:41:28:467
1.1866,-12.8369,2.942,1.371,-9.7069,0.259,-0.1844,-3.13,2.683,0.8308,-0.4362,0.0965,0.0,-16.7,-28.2,8.9,147.54,81.82,-79.3,,47.82,,,,NaN,,,,0 / 0,1260,2014-12-14 04:41:28:516
0.9709,-14.5727,2.9616,1.2581,-9.6606,1.1224,-0.2872,-4.912,1.8392,1.9584,-0.193,0.2224,0.0,-16.7,-28.2,7.5,147.54,81.82,-79.3,,47.82,,,,NaN,,,,0 / 0,1310,2014-12-14 04:41:28:566
1.7848,-13.9843,2.6184,1.2201,-9.6304,1.3916,0.5647,-4.3539,1.2267,2.386,0.1833,0.1197,0.0,-16.3,-27.7,5.5,125.04,79.12,-41.24,,47.82,,,,NaN,,,,0 / 0,1361,2014-12-14 04:41:28:617
3.2362,-11.1698,1.3141,1.5184,-9.2982,2.7219,1.7178,-1.8716,-1.4078,2.5986,-0.4765,0.2712,0.0,-15.4,-28.2,-0.8,142.87,71.47,-29.16,,47.82,,,,NaN,,,,0 / 0,1411,2014-12-14 04:41:28:667
2.1771,-11.1109,1.3239,1.6555,-9.1802,3.0256,0.5215,-1.9308,-1.7017,2.5107,-0.6329,0.3445,0.0,-15.9,-28.6,-2.3,142.87,71.47,-29.16,,47.82,,,,NaN,,,,0 / 0,1460,2014-12-14 04:41:28:716
0.8041,-9.6203,1.167,1.6853,-8.8844,3.7944,-0.8811,-0.7359,-2.6274,2.5009,-0.9224,0.215,0.0,-15.0,-30.4,-9.1,158.61,64.95,-23.95,,47.82,,,,NaN,,,,0 / 0,1511,2014-12-14 04:41:28:767
2.4419,-4.6091,2.638,2.0168,-8.4389,4.5703,0.425,3.8298,-1.9323,1.3537,-0.3201,0.0489,0.0,-15.9,-32.5,-15.0,165.7,59.38,-23.81,,47.82,,,,NaN,,,,0 / 0,1561,2014-12-14 04:41:28:817
1.4612,-3.7167,2.6576,2.3801,-8.2092,4.8078,-0.5561,4.924,-1.8167,0.3934,-0.0929,0.0977,0.0,-15.4,-33.4,-17.4,170.79,56.84,-26.34,,47.82,,,,NaN,,,,0 / 0,1611,2014-12-14 04:41:28:867
2.1084,-3.1087,3.246,2.3762,-8.2144,4.8008,-0.2678,5.1057,-1.5548,-0.0024,-0.0293,0.1869,0.0,-15.0,-32.5,-17.4,170.79,56.84,-26.34,,47.82,,,,NaN,,,,0 / 0,1660,2014-12-14 04:41:28:916
2.0398,-3.8148,4.8347,2.5782,-8.2156,4.6933,-0.5384,4.4008,0.1414,-1.2975,0.4557,0.595,0.0,-14.1,-31.7,-15.4,171.59,56.9,-28.78,,59.528,,,,NaN,,,,0 / 0,1710,2014-12-14 04:41:28:966
-2.2653,-16.534,13.3567,2.1295,-8.5309,4.3428,-4.3948,-8.0031,9.0138,-1.0458,0.6952,0.5253,0.0,-11.5,-27.7,-11.1,169.29,60.45,-26.12,,59.528,,,,NaN,,,,0 / 0,1761,2014-12-14 04:41:29:017
4.5895,-10.3656,2.4419,1.3165,-9.0361,3.5758,3.273,-1.3295,-1.1339,-1.5003,0.1686,0.0428,0.0,-11.5,-26.0,-7.6,169.29,60.45,-26.12,,59.528,,,,NaN,,,,0 / 0,1810,2014-12-14 04:41:29:066
0.8532,-7.0804,0.0098,1.5842,-9.299,2.6812,-0.731,2.2186,-2.6714,-2.2785,1.4954,0.0953,0.0,-11.1,-24.3,-3.2,152.68,71.48,-30.58,,59.528,,,,NaN,,,,0 / 0,1861,2014-12-14 04:41:29:117
0.8532,-7.0804,0.0098,1.5842,-9.299,2.6812,-0.731,2.2186,-2.6714,-2.2785,1.4954,0.0953,0.0,-11.1,-24.3,-3.2,152.68,71.48,-30.58,,59.528,,,,NaN,,,,0 / 0,1911,2014-12-14 04:41:29:167
-1.4808,-8.826,-0.304,1.1839,-9.7346,-0.0812,-2.6647,0.9086,-0.2228,-1.631,0.5388,-0.2492,0.0,-12.0,-23.8,5.5,145.78,79.71,-54.53,,59.528,,,,NaN,,,,0 / 0,1975,2014-12-14 04:41:29:231
-1.3435,-8.4828,-0.3138,1.1186,-9.7388,-0.2737,-2.4621,1.2561,-0.0401,-1.7459,0.3335,-0.1759,0.0,-11.5,-23.4,6.5,164.37,83.26,-103.75,,59.528,,,,NaN,,,,0 / 0,2010,2014-12-14 04:41:29:266
-1.3435,-8.4828,-0.3138,1.1186,-9.7388,-0.2737,-2.4621,1.2561,-0.0401,-1.7459,0.3335,-0.1759,0.0,-11.5,-23.4,6.5,164.37,83.26,-103.75,,59.528,,,,NaN,,,,0 / 0,2061,2014-12-14 04:41:29:317
-1.5102,-8.9927,0.2746,0.8607,-9.7136,-1.0374,-2.3709,0.7209,1.312,-1.7776,0.2627,-0.1087,0.0,-11.5,-23.4,9.9,186.69,82.1,-140.32,,59.528,,,,NaN,,,,0 / 0,2110,2014-12-14 04:41:29:366
0.2059,-9.1888,1.471,0.7099,-9.6619,-1.521,-0.504,0.4731,2.992,-1.3378,1.0006,-0.1161,0.0,-12.8,-23.8,12.9,186.69,82.1,-140.32,,59.528,,,,NaN,,,,0 / 0,2161,2014-12-14 04:41:29:417
-0.2746,-11.2188,-1.5004,0.4769,-9.7019,-1.3477,-1.2614,-0.2813,0.8672,-0.8772,0.7257,-0.1063,0.0,-12.4,-23.8,15.8,194.95,81.62,-160.51,,59.528,,,,NaN,,,,0 / 0,2210,2014-12-14 04:41:29:466
-1.2945,-12.5819,-1.4906,0.3277,-9.6808,-1.5313,-1.4162,-2.6756,-0.4889,-0.5938,0.3348,-0.4191,0.0,-12.8,-23.8,17.7,200.53,80.81,-167.92,,66.898,,,,NaN,,,,0 / 0,2261,2014-12-14 04:41:29:517
-0.1569,-14.0333,-0.3432,0.388,-9.6679,-1.5976,-0.5449,-4.3655,1.2543,-0.0867,-0.5852,-0.7917,0.0,-15.0,-23.8,20.2,200.28,80.35,-166.35,,66.898,,,,NaN,,,,0 / 0,2310,2014-12-14 04:41:29:566
0.9709,-17.348,1.3435,0.388,-9.6679,-1.5976,-0.5449,-4.3655,1.2543,-0.0867,-0.5852,-0.7917,0.0,-15.0,-23.8,20.2,200.28,80.35,-166.35,,66.898,,,,NaN,,,,0 / 0,2361,2014-12-14 04:41:29:617
2.7262,-14.2687,5.4427,0.9426,-9.7604,0.1278,1.7837,-4.5083,5.3149,2.1038,0.2773,0.0354,0.0,-15.9,-22.1,12.9,175.16,82.9,-134.54,,66.898,,,,NaN,,,,0 / 0,2411,2014-12-14 04:41:29:667
1.7554,-15.6122,6.3351,1.0116,-9.7212,0.8036,0.7438,-5.891,5.5315,2.4691,0.1319,0.1356,0.0,-15.9,-21.2,11.4,114.35,82.43,-51.54,,66.898,,,,NaN,,,,0 / 0,2460,2014-12-14 04:41:29:716
-1.4612,-14.7002,2.5693,0.9382,-9.5692,1.9289,-2.3994,-5.131,0.6405,2.9236,-0.2016,0.5302,0.0,-14.6,-20.8,7.5,103.17,77.37,-25.94,,66.898,,,,NaN,,,,0 / 0,2510,2014-12-14 04:41:29:766
-1.6573,-12.2779,-3.6187,0.7541,-9.4584,2.4779,-2.4114,-2.8195,-6.0966,2.5937,-0.672,0.5009,0.0,-13.7,-20.4,3.6,103.17,77.37,-25.94,,66.898,,,,NaN,,,,0 / 0,2561,2014-12-14 04:41:29:817
0.7159,-10.4735,-2.6674,0.2432,-9.3827,2.8418,0.4727,-1.0908,-5.5092,3.0617,-1.4343,0.9688,0.0,-11.1,-19.9,-7.1,142.26,73.09,-4.89,,66.898,,,,NaN,,,,0 / 0,2642,2014-12-14 04:41:29:898
0.7159,-10.4735,-2.6674,0.2432,-9.3827,2.8418,0.4727,-1.0908,-5.5092,3.0617,-1.4343,0.9688,0.0,-11.1,-19.9,-7.1,142.26,73.09,-4.89,,66.898,,,,NaN,,,,0 / 0,2661,2014-12-14 04:41:29:917
2.7655,-8.3553,-0.3236,0.3419,-9.2158,3.3352,2.4236,0.8605,-3.6588,2.8637,-2.0366,0.7306,0.0,-10.7,-20.8,-12.0,153.45,70.01,-5.85,,66.898,,,,NaN,,,,0 / 0,2711,2014-12-14 04:41:29:967
2.7655,-8.3553,-0.3236,0.3419,-9.2158,3.3352,2.4236,0.8605,-3.6588,2.8637,-2.0366,0.7306,0.0,-10.7,-20.8,-12.0,153.45,70.01,-5.85,,66.898,,,,NaN,,,,0 / 0,2761,2014-12-14 04:41:30:017
2.7655,-8.3553,-0.3236,0.3419,-9.2158,3.3352,2.4236,0.8605,-3.6588,2.8637,-2.0366,0.7306,0.0,-10.7,-20.8,-12.0,153.45,70.01,-5.85,,66.898,,,,NaN,,,,0 / 0,2811,2014-12-14 04:41:30:067
1.5985,-3.0891,-0.4413,0.8148,-9.0014,3.8054,1.3524,4.1864,-4.0996,2.8637,-2.0366,0.7306,0.0,-10.7,-22.1,-17.9,165.49,66.62,-12.09,,66.898,,,,NaN,,,,0 / 0,2860,2014-12-14 04:41:30:116
2.2457,-1.4416,1.2356,0.9058,-8.9838,3.8263,1.3399,7.5423,-2.5906,1.3635,-0.5693,0.3702,0.0,-13.3,-24.7,-22.8,165.49,66.62,-12.09,,61.328,,,,NaN,,,,0 / 0,2911,2014-12-14 04:41:30:167
6.3547,-8.0905,0.5001,0.9324,-9.5308,2.1129,5.4223,1.4403,-1.6128,-1.0128,0.4728,-0.3176,0.0,-11.5,-18.6,-11.5,175.36,72.38,-30.32,,61.328,,,,NaN,,,,0 / 0,2961,2014-12-14 04:41:30:217
2.7753,-2.4124,-0.9316,1.4775,-9.5725,1.5342,1.2977,7.1601,-2.4659,-2.0806,1.4502,-0.3958,0.0,-12.4,-18.2,-8.6,172.55,77.46,-43.92,,61.328,,,,NaN,,,,0 / 0,3011,2014-12-14 04:41:30:267
2.7753,-2.4124,-0.9316,1.4775,-9.5725,1.5342,1.2977,7.1601,-2.4659,-2.0806,1.4502,-0.3958,0.0,-12.4,-18.2,-8.6,172.55,77.46,-43.92,,61.328,,,,NaN,,,,0 / 0,3061,2014-12-14 04:41:30:317
-3.3441,-16.7596,-1.6083,1.3225,-9.6839,-0.8027,-3.5309,-3.1181,-1.928,-2.5962,0.8955,-0.3836,0.0,-12.0,-17.7,-4.7,189.2,79.13,-78.81,,61.328,,,,NaN,,,,0 / 0,3110,2014-12-14 04:41:30:366
1.7456,-8.5612,0.3628,0.6174,-9.5349,-2.208,-2.4024,1.0615,0.7982,-1.4905,0.2358,-0.099,0.0,-12.4,-16.9,3.1,189.2,79.13,-78.81,,61.328,,,,NaN,,,,0 / 0,3161,2014-12-14 04:41:30:417
1.5495,-9.2281,1.1572,0.8113,-9.4958,-2.3111,0.853,0.2854,3.4329,-1.3683,1.5076,-0.2211,0.0,-13.3,-16.9,10.4,210.41,76.48,-164.38,,61.328,,,,NaN,,,,0 / 0,3210,2014-12-14 04:41:30:466
-1.0983,-10.8952,0.9709,1.0126,-9.5006,-2.21,-2.118,-1.3402,2.9287,-0.4374,1.2877,0.1588,0.0,-14.1,-17.7,13.3,198.73,75.65,-155.38,,61.328,,,,NaN,,,,0 / 0,3260,2014-12-14 04:41:30:516
-1.9221,-10.552,0.3334,0.9116,-9.599,-1.7886,-2.8337,-0.953,2.1221,-0.2957,1.135,0.1063,0.0,-14.6,-17.7,12.9,198.73,75.65,-155.38,,61.328,,,,NaN,,,,0 / 0,3310,2014-12-14 04:41:30:566
-1.2454,-11.7288,-0.7747,0.5632,-9.6365,-1.7294,-1.8086,-2.0922,0.9547,-0.5632,0.3384,-0.2859,0.0,-14.1,-17.7,13.8,198.36,79.04,-156.17,,70.103,,,,NaN,,,,0 / 0,3360,2014-12-14 04:41:30:616
-1.2454,-11.7288,-0.7747,0.5632,-9.6365,-1.7294,-1.8086,-2.0922,0.9547,-0.5632,0.3384,-0.2859,0.0,-16.3,-18.2,13.8,198.36,79.04,-156.17,,70.103,,,,NaN,,,,0 / 0,3410,2014-12-14 04:41:30:666
0.0883,-14.3177,0.5688,0.5604,-9.6791,-1.4735,-0.2269,-4.7857,2.5131,0.2126,-0.6194,-0.7685,0.0,-18.5,-18.6,14.8,210.83,79.69,-164.21,,70.103,,,,NaN,,,,0 / 0,3460,2014-12-14 04:41:30:716
-0.6767,-14.5531,2.6184,0.684,-9.708,-1.2074,-1.3607,-4.8451,3.8258,0.7282,-0.628,-0.7831,0.0,-19.3,-18.2,14.3,201.97,81.87,-150.47,,70.103,,,,NaN,,,,0 / 0,3510,2014-12-14 04:41:30:766
-0.8728,-14.1216,2.7557,0.6952,-9.7798,-0.2042,-1.568,-4.3417,2.9598,1.9694,-0.0611,-0.248,0.0,-20.2,-18.2,11.4,201.97,81.87,-150.47,,70.103,,,,NaN,,,,0 / 0,3560,2014-12-14 04:41:30:816
2.9812,-13.2096,4.3443,0.6156,-9.7704,0.5744,2.3657,-3.4391,3.77,1.8411,-0.2602,0.0476,0.0,-21.5,-18.2,8.5,117.16,85.07,-46.98,,70.103,,,,NaN,,,,0 / 0,3610,2014-12-14 04:41:30:866
-1.9417,-14.2196,-3.0989,0.2927,-9.547,2.2225,-2.2344,-4.6726,-5.3214,2.3836,-0.2199,0.8809,0.0,-20.7,-16.0,0.2,117.16,85.07,-46.98,,70.103,,,,NaN,,,,0 / 0,3661,2014-12-14 04:41:30:917
3.0891,-11.6993,-2.4222,0.0034,-9.3593,2.9281,3.0857,-2.34,-5.3503,2.9493,-2.397,1.0629,0.0,-20.2,-14.7,-8.6,111.56,75.2,2.06,,70.103,,,,NaN,,,,0 / 0,3711,2014-12-14 04:41:30:967
0.3825,-5.2171,-0.5296,0.6314,-8.9195,4.0266,-0.249,3.7024,-4.5561,2.2797,-1.3109,0.3384,0.0,-19.8,-15.6,-21.3,149.78,65.44,-8.91,,70.103,,,,NaN,,,,0 / 0,3761,2014-12-14 04:41:31:017
0.912,-3.9521,-0.9316,0.7344,-8.8185,4.2266,0.1776,4.8665,-5.1582,1.9511,-1.2669,0.0916,0.0,-21.1,-16.9,-24.2,152.56,64.06,-9.86,,60.878,,,,NaN,,,,0 / 0,3811,2014-12-14 04:41:31:067
3.7559,0.5492,0.6472,1.8108,-8.7788,3.9779,1.0793,8.7009,-3.8371,-0.5156,-0.6439,-0.1649,0.0,-25.0,-18.6,-25.2,161.98,63.53,-24.48,,60.878,,,,NaN,,,,0 / 0,3860,2014-12-14 04:41:31:116
4.5797,0.7845,1.422,2.0049,-8.789,3.8606,2.5748,9.5735,-2.4386,-0.9798,-0.0672,-0.0049,0.0,-25.4,-18.2,-24.7,161.98,63.53,-24.48,,60.878,,,,NaN,,,,0 / 0,3911,2014-12-14 04:41:31:167
-2.6772,-12.0426,12.9154,3.3622,-8.6721,3.1083,-6.0394,-3.3705,9.8071,-1.0715,1.8216,0.0745,0.0,-21.5,-13.4,-18.9,179.44,62.17,-47.25,,60.878,,,,NaN,,,,0 / 0,3961,2014-12-14 04:41:31:217
7.3746,-7.8944,1.3337,1.9883,-9.1568,2.893,5.3863,1.2625,-1.5593,-1.2303,0.8674,-0.2908,0.0,-22.4,-10.8,-14.0,158.83,69.02,-34.5,,60.878,,,,NaN,,,,0 / 0,4010,2014-12-14 04:41:31:266
-1.1474,-9.0123,-1.5985,2.7666,-9.237,1.787,-3.914,0.2247,-3.3855,-2.4911,2.0293,-0.3873,0.0,-21.5,-8.2,-8.6,170.89,70.38,-57.14,,60.878,,,,NaN,,,,0 / 0,4060,2014-12-14 04:41:31:316
-4.1972,-17.0047,-2.7949,2.2724,-9.5279,0.4753,-3.914,0.2247,-3.3855,-2.4911,2.0293,-0.3873,0.0,-21.5,-8.2,-8.6,170.89,70.38,-57.14,,60.878,,,,NaN,,,,0 / 0,4111,2014-12-14 04:41:31:367
-2.334,-7.6492,-0.3236,1.36,-9.6867,-0.6989,-3.694,2.0375,0.3752,-1.6102,0.2187,-0.1918,0.0,-22.4,-7.3,3.1,184.26,78.84,-91.83,,60.878,,,,NaN,,,,0 / 0,4161,2014-12-14 04:41:31:417
0.6669,-9.13,0.5786,0.8207,-9.635,-1.6318,-2.1117,0.8448,2.0184,-1.5015,0.0757,-0.2236,0.0,-23.7,-7.3,8.5,206.75,80.47,-138.16,,60.878,,,,NaN,,,,0 / 0,4211,2014-12-14 04:41:31:467
1.8633,-9.1692,0.8826,0.8929,-9.6135,-1.7186,0.49,0.603,2.5853,-1.179,0.5498,-0.3567,0.0,-23.7,-6.9,10.9,206.75,80.47,-138.16,,60.878,,,,NaN,,,,0 / 0,4260,2014-12-14 04:41:31:516
0.912,-10.4441,1.0395,1.1754,-9.5836,-1.7156,-0.2634,-0.8605,2.7551,-0.9749,1.0751,-0.1588,0.0,-25.4,-7.7,12.9,207.06,77.76,-145.58,,68.855,,,,NaN,,,,0 / 0,4310,2014-12-14 04:41:31:566
-0.5198,-11.4247,-0.3923,0.8768,-9.6281,-1.6438,-1.3966,-1.7967,1.2515,-0.6182,0.4459,-0.055,0.0,-25.0,-7.7,16.3,208.34,79.05,-151.92,,68.855,,,,NaN,,,,0 / 0,4360,2014-12-14 04:41:31:616
-0.8924,-12.0328,-1.3533,0.7997,-9.6258,-1.6953,-1.6921,-2.4069,0.342,-0.6182,0.4459,-0.055,0.0,-25.0,-7.7,16.3,208.34,79.05,-151.92,,68.855,,,,NaN,,,,0 / 0,4411,2014-12-14 04:41:31:667
0.608,-13.7391,0.0098,0.6866,-9.6227,-1.7614,-0.0786,-4.1164,1.7712,0.1943,-0.1381,-0.6854,0.0,-28.5,-8.2,20.2,210.14,78.63,-157.23,,68.855,,,,NaN,,,,0 / 0,4460,2014-12-14 04:41:31:716
0.8826,-14.6021,0.0981,0.7181,-9.6354,-1.6774,0.5197,-4.5003,1.3536,1.102,0.4117,-0.4142,0.0,-30.2,-7.7,17.2,216.29,79.28,-156.82,,68.855,,,,NaN,,,,0 / 0,4510,2014-12-14 04:41:31:766
2.4124,-13.4841,1.1866,0.917,-9.7157,-0.9671,1.4955,-3.7685,2.1538,1.2437,0.4105,-0.2847,0.0,-30.7,-7.7,16.8,216.29,79.28,-156.82,,68.855,,,,NaN,,,,0 / 0,4560,2014-12-14 04:41:31:816
-0.1961,-14.5923,7.61,1.0656,-9.7409,-0.3862,1.6509,-2.6547,5.7014,1.3207,0.0012,-0.033,0.0,-31.1,-6.4,13.3,177.21,83.36,-109.92,,68.855,,,,NaN,,,,0 / 0,4611,2014-12-14 04:41:31:867
-1.422,-14.6904,3.8148,1.0462,-9.6575,1.345,-2.4681,-5.0329,2.4698,2.6463,-0.8601,0.4423,0.0,-31.5,-4.7,7.0,116.22,79.99,-37.88,,68.855,,,,NaN,,,,0 / 0,4660,2014-12-14 04:41:31:916
2.7459,-11.1207,-2.8832,0.7916,-9.4779,2.3903,1.9543,-1.6428,-5.2734,2.3677,-0.7966,0.8968,0.0,-30.7,-2.5,-9.1,124.37,75.12,-18.32,,68.855,,,,NaN,,,,0 / 0,4710,2014-12-14 04:41:31:966
2.7655,-10.1499,-2.7262,0.7856,-9.4429,2.527,1.9799,-0.707,-5.2533,2.4703,-0.7477,1.0165,0.0,-30.2,-2.5,-12.5,124.37,75.12,-18.32,,68.855,,,,NaN,,,,0 / 0,4760,2014-12-14 04:41:32:016
1.4612,-9.3555,0.7061,0.7437,-9.3057,3.0037,0.7174,-0.0499,-2.2976,2.4422,-1.2303,1.1338,0.0,-28.9,-3.8,-21.3,136.01,73.59,-15.8,,59.478,,,,NaN,,,,0 / 0,4810,2014-12-14 04:41:32:066
1.4612,-9.3555,0.7061,0.7437,-9.3057,3.0037,0.7174,-0.0499,-2.2976,2.4422,-1.2303,1.1338,0.0,-28.9,-3.8,-21.3,136.01,73.59,-15.8,,59.478,,,,NaN,,,,0 / 0,4861,2014-12-14 04:41:32:117
-0.0196,-6.845,0.1079,0.6666,-9.1351,3.5037,-0.6862,2.2901,-3.3958,2.2785,-0.8296,0.5803,0.0,-28.9,-6.9,-30.1,146.86,68.67,-10.77,,59.478,,,,NaN,,,,0 / 0,4910,2014-12-14 04:41:32:166
-0.0196,-6.845,0.1079,0.6666,-9.1351,3.5037,-0.6862,2.2901,-3.3958,2.2785,-0.8296,0.5803,0.0,-28.9,-6.9,-30.1,146.86,68.67,-10.77,,59.478,,,,NaN,,,,0 / 0,4960,2014-12-14 04:41:32:216
1.2258,-1.5495,1.2847,1.0275,-8.8373,4.1251,0.1983,7.2879,-2.8404,0.1527,-0.8418,0.2468,0.0,-32.0,-13.0,-37.9,154.5,64.31,-13.99,,59.478,,,,NaN,,,,0 / 0,5104,2014-12-14 04:41:32:360
1.2258,-1.5495,1.2847,1.0275,-8.8373,4.1251,0.1983,7.2879,-2.8404,0.1527,-0.8418,0.2468,0.0,-32.0,-13.0,-37.9,154.5,64.31,-13.99,,59.478,,,,NaN,,,,0 / 0,5108,2014-12-14 04:41:32:364
1.3925,-0.8336,1.6966,1.1861,-8.8649,4.022,0.2064,8.0314,-2.3255,-0.5925,-0.2211,0.3152,0.0,-32.0,-13.0,-36.9,156.18,64.68,-16.43,,59.478,,,,NaN,,,,0 / 0,5114,2014-12-14 04:41:32:370
-5.3348,-18.0835,5.8153,1.3794,-9.0084,3.6218,-6.7142,-9.0751,2.1936,-1.8338,-0.5363,0.7636,0.0,-25.4,-3.0,-30.6,156.18,64.68,-16.43,,59.478,,,,NaN,,,,0 / 0,5161,2014-12-14 04:41:32:417
4.9033,-3.9913,0.4805,1.0274,-9.4621,2.3631,3.8759,5.4707,-1.8826,-1.6176,1.3366,-0.2505,0.0,-24.6,-0.8,-26.2,159.1,74.77,-23.5,,59.478,,,,NaN,,,,0 / 0,5210,2014-12-14 04:41:32:466
-2.7851,-15.622,-0.8336,1.2982,-9.7194,0.1378,-4.0832,-5.9026,-0.9713,-1.5846,0.2358,-0.2382,0.0,-23.7,4.4,-15.4,206.64,82.35,-83.94,,59.478,,,,NaN,,,,0 / 0,5261,2014-12-14 04:41:32:517
-3.0106,-13.4645,0.049,1.1969,-9.733,-0.0757,-4.2075,-3.7315,0.1247,-1.3916,0.3653,-0.259,0.0,-23.7,4.4,-15.4,206.64,82.35,-83.94,,59.478,,,,NaN,,,,0 / 0,5310,2014-12-14 04:41:32:566
-0.3334,-9.9636,0.255,0.6285,-9.7239,-1.1051,-2.7369,0.7116,0.5363,-1.3109,0.1344,-0.3091,0.0,-25.4,6.6,-2.3,208.28,82.98,-93.62,,68.263,,,,NaN,,,,0 / 0,5360,2014-12-14 04:41:32:616
0.4119,-10.0616,0.8434,0.5278,-9.6693,-1.5483,-0.1159,-0.3924,2.3917,-0.887,0.3567,-0.2969,0.0,-26.3,6.2,0.7,251.34,80.4,-161.18,,68.263,,,,NaN,,,,0 / 0,5411,2014-12-14 04:41:32:667
0.5786,-10.6304,0.8238,0.6427,-9.6808,-1.4278,-0.0642,-0.9496,2.2516,-0.4019,0.6573,-0.1491,0.0,-26.7,5.7,1.6,251.34,80.4,-161.18,,68.263,,,,NaN,,,,0 / 0,5460,2014-12-14 04:41:32:716
0.6472,-9.5125,-0.049,0.7118,-9.7056,-1.2104,-0.0646,0.1931,1.1614,-0.1368,0.8845,0.0086,0.0,-26.3,6.2,1.6,237.01,81.77,-149.54,,68.263,,,,NaN,,,,0 / 0,5510,2014-12-14 04:41:32:766
-0.5492,-10.2676,-1.8044,0.8241,-9.6887,-1.2729,-1.3733,-0.5789,-0.5315,-0.1368,0.8845,0.0086,0.0,-25.9,6.2,1.1,237.01,81.77,-149.54,,68.263,,,,NaN,,,,0 / 0,5561,2014-12-14 04:41:32:817
-0.4217,-11.562,-2.1378,0.8004,-9.6556,-1.516,-1.2221,-1.9064,-0.6218,-0.314,0.11,-0.5388,0.0,-26.7,5.7,1.1,242.41,79.93,-152.17,,68.263,,,,NaN,,,,0 / 0,5611,2014-12-14 04:41:32:867
-0.5688,-13.8176,-0.8336,1.0741,-9.5644,-1.8812,-1.6429,-4.2532,1.0476,-0.011,0.8552,-0.2676,0.0,-30.7,3.6,3.1,236.79,77.24,-150.28,,68.263,,,,NaN,,,,0 / 0,5661,2014-12-14 04:41:32:917
0.8041,-13.543,0.1373,1.0118,-9.5786,-1.8432,-0.2077,-3.9644,1.9805,0.1442,0.7367,-0.1625,0.0,-31.1,2.7,3.6,236.79,77.24,-150.28,,68.263,,,,NaN,,,,0 / 0,5711,2014-12-14 04:41:32:967
2.383,-11.6307,2.4615,1.3427,-9.6654,-0.9739,1.0404,-1.9653,3.4354,1.1399,-0.4081,-0.2321,0.0,-32.0,0.9,-1.8,220.14,80.26,-125.96,,68.263,,,,NaN,,,,0 / 0,5762,2014-12-14 04:41:33:018
0.7845,-10.7285,-0.9709,1.0216,-9.7214,0.7885,-0.2371,-1.0071,-1.7594,1.9645,0.5803,0.1136,0.0,-32.0,-2.5,-12.0,162.88,82.44,-52.34,,55.005,,,,NaN,,,,0 / 0,5811,2014-12-14 04:41:33:067
2.9812,-8.6691,-2.1182,1.1586,-9.6735,1.1186,1.8226,1.0044,-3.2368,1.2657,0.1857,0.5437,0.0,-30.2,-5.1,-18.9,162.88,82.44,-52.34,,55.005,,,,NaN,,,,0 / 0,5861,2014-12-14 04:41:33:117
2.0202,-8.1395,-2.6968,1.2098,-9.6686,1.1071,0.8104,1.529,-3.804,1.2352,-0.722,0.7294,0.0,-29.3,-5.1,-21.3,173.51,80.37,-47.54,,55.005,,,,NaN,,,,0 / 0,5911,2014-12-14 04:41:33:167
0.255,-7.1785,0.3825,1.1898,-9.6785,1.0395,-0.1797,1.8626,-4.3149,1.2511,-1.1729,0.6292,0.0,-29.8,-7.3,-23.7,173.51,80.37,-47.54,,55.005,,,,NaN,,,,0 / 0,5960,2014-12-14 04:41:33:216
0.255,-7.1785,0.3825,0.9267,-9.7222,0.8895,-0.6717,2.5437,-0.507,1.0311,-0.452,0.358,0.0,-29.3,-8.2,-24.7,176.99,82.47,-46.17,,55.005,,,,NaN,,,,0 / 0,6011,2014-12-14 04:41:33:267
1.7064,-5.3152,-1.2062,0.9215,-9.7397,0.6772,0.7848,4.4245,-1.8834,-0.0342,-0.1515,0.2297,0.0,-29.8,-9.1,-24.7,183.43,83.3,-53.69,,55.005,,,,NaN,,,,0 / 0,6060,2014-12-14 04:41:33:316
2.3928,-4.3934,-1.1278,1.1285,-9.7395,0.1993,1.2643,5.3461,-1.3271,-0.6023,-0.2162,0.0977,0.0,-28.9,-8.6,-23.2,183.43,83.3,-53.69,,55.005,,,,NaN,,,,0 / 0,6111,2014-12-14 04:41:33:367
2.0888,-8.4141,-3.0695,1.8594,-9.5255,-1.4066,0.3906,3.5579,-1.3871,-1.2877,0.0538,-0.2138,0.0,-28.9,-6.9,-20.3,236.15,79.68,-112.84,,55.005,,,,NaN,,,,0 / 0,6161,2014-12-14 04:41:33:417
2.0888,-9.9832,-2.1182,1.9258,-9.4672,-1.6835,0.1631,-0.516,-0.4348,-1.9829,1.0825,-0.2114,0.0,-28.5,-5.1,-16.4,249.34,74.88,-131.16,,55.005,,,,NaN,,,,0 / 0,6210,2014-12-14 04:41:33:466
-0.9218,-19.3289,10.9344,1.9223,-9.4483,-1.79,-2.8441,-9.8806,12.7245,1.3292,-1.201,-0.1539,0.0,-27.6,-3.8,-14.0,249.34,74.88,-131.16,,55.005,,,,NaN,,,,0 / 0,6260,2014-12-14 04:41:33:516
0.1275,-9.9047,-0.1079,1.7462,-9.6232,-0.7176,-1.6187,-0.2815,0.6097,-0.7257,0.9102,-0.2248,0.0,-28.9,-5.1,-15.9,230.46,78.9,-112.34,,55.005,,,,NaN,,,,0 / 0,6311,2014-12-14 04:41:33:567
0.0686,-9.4536,-2.383,2.367,-9.4951,-0.6404,-2.2984,0.0415,-1.7426,-0.7489,1.1252,0.4203,0.0,-28.5,-4.7,-17.4,225.5,77.16,-105.77,,65.15,,,,NaN,,,,0 / 0,6360,2014-12-14 04:41:33:616
-3.5108,-12.0426,2.4909,0.8915,-9.6987,-1.1445,-4.4023,-2.3438,3.6354,0.3005,-0.6536,-0.1967,0.0,-28.5,-4.7,-17.4,225.5,77.16,-105.77,,65.15,,,,NaN,,,,0 / 0,6411,2014-12-14 04:41:33:667
2.0692,-8.6691,0.6669,0.7765,-9.7617,-0.5264,1.2927,1.0926,1.1933,-0.1955,-0.3262,-0.1222,0.0,-27.2,-3.4,-15.4,267.15,83.8,-148.68,,65.15,,,,NaN,,,,0 / 0,6460,2014-12-14 04:41:33:716
0.9022,-10.2283,1.2454,0.92,-9.7501,-0.509,-0.0177,-0.4782,1.7545,-0.237,0.4129,0.16,0.0,-28.0,-3.4,-14.0,234.61,83.66,-118.37,,65.15,,,,NaN,,,,0 / 0,6510,2014-12-14 04:41:33:766
1.1768,-10.395,1.0689,0.9042,-9.7551,-0.4368,0.7513,-0.8061,0.6528,-0.0757,0.3543,0.0733,0.0,-28.0,-3.4,-13.5,233.54,83.85,-118.96,,65.15,,,,NaN,,,,0 / 0,6560,2014-12-14 04:41:33:816
0.6472,-9.4634,0.1863,1.043,-9.7436,-0.3812,-0.3957,0.2802,0.5675,-0.0464,0.0403,-0.0892,0.0,-27.6,-3.4,-14.0,226.37,83.5,-110.08,,65.15,,,,NaN,,,,0 / 0,6611,2014-12-14 04:41:33:867
0.2844,-9.5811,0.6767,1.0703,-9.7397,-0.4028,-0.7859,0.1586,1.0795,-0.1466,0.16,-0.1307,0.0,-28.5,-3.0,-13.0,226.37,83.5,-110.08,,65.15,,,,NaN,,,,0 / 0,6660,2014-12-14 04:41:33:916
-0.5001,-10.2872,0.0686,0.9815,-9.7502,-0.3739,-1.5797,-0.6448,0.4916,-0.1124,0.1796,-0.0232,0.0,-28.0,-3.0,-13.0,225.5,83.85,-110.85,,65.15,,,,NaN,,,,0 / 0,6711,2014-12-14 04:41:33:967
-0.1275,-9.9832,0.3923,0.8338,-9.764,-0.3746,-0.9613,-0.2192,0.7669,-0.0415,0.2578,-0.0086,0.0,-28.0,-3.4,-13.5,225.5,83.85,-110.85,,65.15,,,,NaN,,,,0 / 0,6760,2014-12-14 04:41:34:016
0.7257,-9.8949,0.5001,0.7713,-9.772,-0.2898,-0.0456,-0.1229,0.79,-0.0538,0.1038,-0.088,0.0,-28.0,-3.0,-12.5,223.57,85.18,-110.59,,65.15,,,,NaN,,,,0 / 0,6810,2014-12-14 04:41:34:066
0.7943,-9.7968,0.2452,0.9056,-9.7622,-0.2239,-0.1113,-0.0347,0.4691,-0.033,0.1759,-0.077,0.0,-28.5,-3.4,-13.0,218.59,84.54,-103.89,,62.862,,,,NaN,,,,0 / 0,6861,2014-12-14 04:41:34:117
0.4217,-9.9341,-0.0686,0.9432,-9.7582,-0.2428,-0.5215,-0.176,0.1742,-0.0476,0.1307,-0.0757,0.0,-28.5,-3.4,-13.0,218.59,84.54,-103.89,,62.862,,,,NaN,,,,0 / 0,6910,2014-12-14 04:41:34:166
0.7649,-9.993,0.0883,0.9277,-9.7586,-0.2806,-0.1628,-0.2343,0.3689,-0.0415,0.1442,-0.066,0.0,-28.0,-3.4,-13.5,221.51,84.33,-106.83,,62.862,,,,NaN,,,,0 / 0,6960,2014-12-14 04:41:34:216
0.7061,-9.8753,0.1177,0.9505,-9.7565,-0.2771,-0.2444,-0.1188,0.3948,-0.033,0.171,-0.0232,0.0,-28.0,-3.8,-13.5,221.51,84.33,-106.83,,62.862,,,,NaN,,,,0 / 0,7010,2014-12-14 04:41:34:266
0.7453,-9.8949,-0.049,0.9718,-9.7542,-0.2868,-0.2265,-0.1407,0.2378,-0.033,0.171,-0.0232,0.0,-28.5,-3.0,-14.0,222.77,84.07,-106.44,,62.862,,,,NaN,,,,0 / 0,7061,2014-12-14 04:41:34:317
0.7747,-10.0616,0.1667,0.9863,-9.7511,-0.3369,-0.4812,-0.5303,0.7607,-0.2712,-0.2175,-0.0696,0.0,-28.5,-3.4,-12.0,226.24,83.68,-113.32,,62.862,,,,NaN,,,,0 / 0,7111,2014-12-14 04:41:34:367
0.7061,-9.9243,-0.0392,0.9916,-9.7519,-0.2955,-0.2855,-0.1724,0.2563,0.2749,0.2321,-0.0098,0.0,-28.5,-3.4,-12.0,219.57,83.94,-106.6,,62.862,,,,NaN,,,,0 / 0,7160,2014-12-14 04:41:34:416
0.8532,-9.9832,0.1765,1.0053,-9.7472,-0.3888,-0.1521,-0.2359,0.5653,-0.0415,-0.022,-0.0464,0.0,-28.0,-3.8,-13.0,219.57,83.94,-106.6,,62.862,,,,NaN,,,,0 / 0,7211,2014-12-14 04:41:34:467