ACCELEROMETER X (m/s²),ACCELEROMETER Y (m/s²),ACCELEROMETER Z (m/s²),GRAVITY X (m/s²),GRAVITY Y (m/s²),GRAVITY Z (m/s²),LINEAR ACCELERATION X (m/s²),LINEAR ACCELERATION Y (m/s²),LINEAR ACCELERATION Z (m/s²),GYROSCOPE X (rad/s),GYROSCOPE Y (rad/s),GYROSCOPE Z (rad/s),LIGHT (lux),MAGNETIC FIELD X (μT),MAGNETIC FIELD Y (μT),MAGNETIC FIELD Z (μT),ORIENTATION X (°),ORIENTATION Y (°),ORIENTATION Z (°),PROXIMITY (i),SOUND LEVEL (dB),LOCATION Latitude : ,LOCATION Longitude : ,LOCATION Altitude ( m),LOCATION Altitude-google ( m),LOCATION Speed ( Kmh),LOCATION Accuracy ( m),LOCATION ORIENTATION (°),Satellites in range,Time since start in ms ,YYYY-MO-DD HH-MI-SS_SSS
0.2354,-9.9243,0.2746,0.6004,-9.7882,-0.0293,-0.3454,-0.1459,0.3333,0.0305,-0.0476,-0.0073,0.0,-0.3,-17.0,12.7,97.35,86.49,-92.8,0.4,57.943,,,,NaN,,,,0 / 0,12,2014-12-14 04:37:31:836
0.304,-9.9636,0.1471,0.5915,-9.7887,-0.0299,-0.2875,-0.1748,0.177,0.0232,-0.0354,0.0049,0.0,-0.3,-17.0,13.1,97.35,86.49,-92.8,0.4,57.943,,,,NaN,,,,0 / 0,62,2014-12-14 04:37:31:886
0.3825,-9.9341,0.1569,0.5922,-9.7887,-0.0337,-0.2098,-0.1454,0.1906,0.0281,-0.0428,-0.0012,0.0,-0.3,-16.6,12.7,97.75,86.53,-93.26,0.4,57.943,,,,NaN,,,,0 / 0,113,2014-12-14 04:37:31:937
0.3236,-10.0028,0.2452,0.6248,-9.7865,-0.0734,-0.3011,-0.2163,0.3185,0.0354,-0.0281,0.0061,0.0,0.2,-16.6,13.1,101.4,86.32,-96.7,0.4,57.943,,,,NaN,,,,0 / 0,163,2014-12-14 04:37:31:987
0.1961,-10.0322,0.2844,0.6226,-9.7865,-0.0881,-0.4264,-0.2457,0.3725,0.0281,-0.0159,0.0134,0.0,-0.3,-16.6,13.6,101.4,86.32,-96.7,0.4,57.943,,,,NaN,,,,0 / 0,213,2014-12-14 04:37:32:037
0.2354,-9.9243,0.1079,0.6143,-9.7871,-0.0788,-0.3789,-0.1373,0.1867,0.0171,-0.0208,0.0037,0.0,-0.7,-16.6,13.6,105.6,86.38,-97.31,0.4,57.943,,,,NaN,,,,0 / 0,262,2014-12-14 04:37:32:086
0.2844,-9.9243,0.1765,0.5933,-9.7883,-0.0919,-0.2883,-0.1655,0.3194,0.0293,-0.0342,0.0,0.0,-0.7,-16.6,13.1,105.6,86.38,-97.31,0.4,57.943,,,,NaN,,,,0 / 0,312,2014-12-14 04:37:32:136
0.2844,-10.0028,0.3432,0.5896,-9.7885,-0.0922,-0.3441,-0.2044,0.4111,0.0281,-0.0318,0.0049,0.0,-0.7,-16.6,14.1,102.94,86.49,-98.8,0.4,57.943,,,,NaN,,,,0 / 0,362,2014-12-14 04:37:32:186
0.2648,-9.993,0.2942,0.5927,-9.7884,-0.083,-0.3441,-0.2044,0.4111,0.0281,-0.0318,0.0049,0.0,-0.7,-16.6,14.1,102.94,86.49,-98.8,0.4,36.478,,,,NaN,,,,0 / 0,412,2014-12-14 04:37:32:236
0.3138,-9.9636,0.5492,0.5976,-9.788,-0.0868,-0.2838,-0.1755,0.6359,-0.0415,-0.0269,-0.0513,0.0,-0.3,-16.6,13.1,102.75,86.47,-98.26,0.4,36.478,,,,NaN,,,,0 / 0,462,2014-12-14 04:37:32:286
-0.049,-10.0518,0.3825,0.6159,-9.7869,-0.0924,-0.6649,-0.265,0.4748,-0.0354,-0.0428,-0.0599,0.0,-0.7,-17.0,14.1,106.81,86.36,-98.53,0.4,36.478,,,,NaN,,,,0 / 0,512,2014-12-14 04:37:32:336
0.608,-9.7968,0.304,0.6064,-9.7875,-0.0884,0.0016,-0.0094,0.3924,-0.0098,-0.1185,-0.0513,0.0,-0.7,-16.6,14.6,105.98,86.42,-98.3,0.4,36.478,,,,NaN,,,,0 / 0,563,2014-12-14 04:37:32:387
0.7159,-9.8165,-0.1863,0.6865,-9.7816,-0.1363,0.0294,-0.0348,-0.05,-0.1246,0.0806,-0.0782,0.0,-1.1,-17.0,14.6,109.38,85.91,-101.23,0.4,36.478,,,,NaN,,,,0 / 0,612,2014-12-14 04:37:32:436
-0.3432,-9.7772,-0.2256,0.8047,-9.7684,-0.3182,-0.589,0.1088,-0.1231,-0.4618,0.0159,-0.2382,0.0,-1.6,-16.6,15.6,109.38,85.91,-101.23,0.4,36.478,,,,NaN,,,,0 / 0,663,2014-12-14 04:37:32:487
-0.8336,-9.9439,-0.0883,0.8476,-9.7593,-0.4572,-1.6811,-0.1847,0.369,-0.4716,-0.022,-0.2443,0.0,-1.6,-16.6,15.6,129.9,84.36,-118.35,0.4,36.478,,,,NaN,,,,0 / 0,713,2014-12-14 04:37:32:537
-0.3727,-10.3264,1.2356,0.6582,-9.7766,-0.3948,-1.0309,-0.5498,1.6304,-0.0611,-0.2602,-0.248,0.0,-2.4,-17.4,17.0,130.95,85.51,-120.95,0.4,36.478,,,,NaN,,,,0 / 0,762,2014-12-14 04:37:32:586
-0.3727,-10.1499,0.3138,0.6582,-9.7766,-0.2443,-1.0309,-0.5498,1.6304,0.0195,-0.0183,-0.2175,0.0,-2.4,-17.4,16.6,122.39,86.29,-112.62,0.4,36.478,,,,NaN,,,,0 / 0,813,2014-12-14 04:37:32:637
-1.1376,-10.2185,0.2452,0.5591,-9.788,-0.2318,-1.6967,-0.4306,0.477,0.0599,-0.0929,-0.215,0.0,-2.9,-17.9,17.5,122.39,86.29,-112.62,0.4,36.478,,,,NaN,,,,0 / 0,862,2014-12-14 04:37:32:686
-0.4903,-9.9538,1.0101,0.371,-9.7991,-0.1055,-0.6848,-0.2135,1.4883,0.0599,-0.0929,-0.215,0.0,-2.9,-17.9,17.5,122.39,86.29,-112.62,0.4,36.478,,,,NaN,,,,0 / 0,913,2014-12-14 04:37:32:737
-0.1863,-9.9145,2.0496,0.3583,-9.8,0.0394,-0.5447,-0.1145,2.0102,0.4166,-0.3213,-0.077,0.0,-3.3,-18.3,17.0,95.92,87.89,-83.73,0.4,40.598,,,,NaN,,,,0 / 0,963,2014-12-14 04:37:32:787
1.0493,-13.1899,0.9905,0.1765,-9.758,0.9593,0.8728,-3.4319,0.0311,0.8589,-0.248,0.2773,0.0,-2.0,-19.2,15.1,20.64,84.29,-10.42,0.4,40.598,,,,NaN,,,,0 / 0,1012,2014-12-14 04:37:32:836
0.863,-13.8176,3.8638,0.435,-9.6517,1.681,-0.1016,-4.0972,1.8494,1.6261,-0.2285,0.3396,0.0,-1.1,-20.1,12.7,26.17,79.8,-14.51,0.4,40.598,,,,NaN,,,,0 / 0,1063,2014-12-14 04:37:32:887
1.167,-12.8761,3.4716,0.3825,-9.5284,2.2876,0.7845,-3.3477,1.184,2.0904,-0.3262,0.3531,0.0,-0.3,-20.9,10.7,26.17,79.8,-14.51,0.4,40.598,,,,NaN,,,,0 / 0,1113,2014-12-14 04:37:32:937
1.3141,-12.6015,3.4814,0.3848,-9.4781,2.4877,0.9293,-3.1235,0.9937,2.1331,-0.5938,0.3457,0.0,-0.3,-21.4,10.7,18.19,75.13,-8.79,0.4,40.598,,,,NaN,,,,0 / 0,1162,2014-12-14 04:37:32:986
0.1373,-12.4054,4.0403,0.5504,-9.0748,3.6764,-0.4131,-3.3306,0.364,2.6463,-1.2987,0.2908,0.0,1.0,-22.7,6.3,181.86,67.72,-8.51,0.4,40.598,,,,NaN,,,,0 / 0,1213,2014-12-14 04:37:33:037
1.7456,-6.0213,1.8927,0.5504,-9.0748,3.6764,-0.4131,-3.3306,0.364,2.3885,-1.2046,0.0635,0.0,1.0,-22.7,6.3,181.86,67.72,-8.51,0.4,40.598,,,,NaN,,,,0 / 0,1262,2014-12-14 04:37:33:086
1.7456,-6.0213,1.8927,1.1091,-8.3871,4.9595,0.6365,2.3658,-3.0668,2.3885,-1.2046,0.0635,0.0,0.6,-25.7,1.4,183.48,58.79,-12.61,0.4,40.598,,,,NaN,,,,0 / 0,1312,2014-12-14 04:37:33:136
0.7845,-3.6873,3.1087,1.817,-7.8592,5.577,-1.0325,4.1719,-2.4682,1.0666,-0.4557,0.2272,0.0,2.3,-27.4,-3.0,183.48,58.79,-12.61,0.4,40.598,,,,NaN,,,,0 / 0,1364,2014-12-14 04:37:33:188
1.3239,-3.4225,3.6775,1.8872,-7.7083,5.7612,-0.5633,4.2858,-2.0837,0.2492,-0.4508,0.2847,0.0,2.3,-27.4,-3.9,189.31,51.82,-18.14,0.4,58.373,,,,NaN,,,,0 / 0,1413,2014-12-14 04:37:33:237
1.3729,-3.8246,5.2956,1.9673,-7.8443,5.5468,-0.5944,4.0197,-0.2512,-1.2254,0.1759,0.3457,0.0,4.1,-26.1,-1.5,195.03,53.12,-19.53,0.4,58.373,,,,NaN,,,,0 / 0,1463,2014-12-14 04:37:33:287
4.7366,-10.905,7.7767,1.8731,-8.2601,4.943,2.8635,-2.6449,2.8337,-0.6683,1.3659,-0.1124,0.0,4.1,-24.0,2.4,196.6,57.38,-20.75,0.4,58.373,,,,NaN,,,,0 / 0,1513,2014-12-14 04:37:33:337
4.7366,-10.905,7.7767,1.8731,-8.2601,4.943,2.8635,-2.6449,2.8337,-0.6683,1.3659,-0.1124,0.0,4.1,-24.0,2.4,196.6,57.38,-20.75,0.4,58.373,,,,NaN,,,,0 / 0,1563,2014-12-14 04:37:33:387
2.9224,-11.9543,3.1283,1.341,-8.7926,4.1306,1.5814,-3.1617,-1.0023,-1.6359,0.4948,0.0489,0.0,6.3,-22.7,5.8,228.52,63.71,-17.99,0.4,58.373,,,,NaN,,,,0 / 0,1612,2014-12-14 04:37:33:436
-0.863,-12.3172,0.1569,1.3625,-9.4553,2.216,-2.2254,-2.8618,-2.0591,-2.1564,1.5308,-0.0367,0.0,6.7,-20.9,12.2,2.36,74.62,-31.58,0.4,58.373,,,,NaN,,,,0 / 0,1662,2014-12-14 04:37:33:486
-0.8238,-14.4452,0.4903,1.2936,-9.5293,1.9206,-2.1174,-4.9159,-1.4303,-2.116,1.1716,-0.1991,0.0,6.7,-21.4,13.1,2.36,74.62,-31.58,0.4,58.373,,,,NaN,,,,0 / 0,1712,2014-12-14 04:37:33:536
-1.1082,-10.9933,-0.0392,1.0705,-9.7249,0.6711,-2.1787,-1.2683,-0.7103,-1.5064,0.7648,-0.3616,0.0,6.7,-20.9,16.6,41.38,82.6,-57.92,0.4,58.373,,,,NaN,,,,0 / 0,1763,2014-12-14 04:37:33:587
-1.4808,-10.0616,0.7061,0.5634,-9.7398,-0.9949,-1.5307,-0.0661,1.7725,-1.7471,0.0867,-0.2651,0.0,5.4,-21.8,22.9,141.89,83.3,-150.48,0.4,58.373,,,,NaN,,,,0 / 0,1813,2014-12-14 04:37:33:637
-0.2942,-9.2084,0.814,0.4694,-9.7237,-1.1835,-0.7636,0.5152,1.9974,-1.2462,0.0953,-0.3042,0.0,5.8,-20.9,23.9,141.89,83.3,-150.48,0.4,58.373,,,,NaN,,,,0 / 0,1863,2014-12-14 04:37:33:687
-0.1177,-9.8165,0.8336,0.5571,-9.6927,-1.3827,-0.6748,-0.1238,2.2162,-0.9957,0.4985,-0.1979,0.0,5.0,-21.4,25.8,150.31,81.26,-158.05,0.4,58.373,,,,NaN,,,,0 / 0,1912,2014-12-14 04:37:33:736
0.2256,-9.7772,0.1765,0.5309,-9.6857,-1.4406,-0.3706,-0.3954,2.0513,-0.766,0.8491,0.1417,0.0,5.0,-21.8,26.3,150.31,81.26,-158.05,0.4,67.995,,,,NaN,,,,0 / 0,1962,2014-12-14 04:37:33:786
-0.0588,-10.2872,-0.2452,0.544,-9.6796,-1.4762,-0.6028,-0.6075,1.2311,-0.7098,1.1606,0.1124,0.0,5.0,-21.4,28.3,152.49,80.77,-159.77,0.4,67.995,,,,NaN,,,,0 / 0,2013,2014-12-14 04:37:33:837
-0.304,-10.2578,-0.6374,0.4974,-9.6646,-1.5871,-1.3114,-1.1031,0.8712,-0.5742,1.2217,0.1319,0.0,4.5,-21.4,29.2,152.49,80.77,-159.77,0.4,67.995,,,,NaN,,,,0 / 0,2062,2014-12-14 04:37:33:886
-1.3925,-11.258,-1.1572,0.4591,-9.6402,-1.7394,-1.8516,-1.6178,0.5822,-0.6952,0.4325,-0.3751,0.0,4.5,-21.8,29.2,158.04,79.43,-165.22,0.4,67.995,,,,NaN,,,,0 / 0,2113,2014-12-14 04:37:33:937
0.1079,-13.3567,-1.1768,0.423,-9.6165,-1.8747,-0.3151,-3.7402,0.6979,-0.391,-0.0293,-0.5779,0.0,3.6,-21.8,30.2,158.04,79.43,-165.22,0.4,67.995,,,,NaN,,,,0 / 0,2162,2014-12-14 04:37:33:986
-0.5099,-14.7198,-1.5102,0.5011,-9.6131,-1.8727,-1.011,-5.1066,0.3625,-0.2786,0.0965,-0.5351,0.0,3.2,-21.4,30.7,161.57,78.6,-165.02,0.4,67.995,,,,NaN,,,,0 / 0,2212,2014-12-14 04:37:34:036
2.687,-14.1706,2.4615,0.5669,-9.6851,-1.4312,2.1202,-4.4855,3.8927,0.9395,0.1515,-0.2908,0.0,3.6,-20.1,29.2,153.05,80.97,-158.39,0.4,67.995,,,,NaN,,,,0 / 0,2263,2014-12-14 04:37:34:087
-1.8633,-14.7786,2.2555,0.6694,-9.7301,1.023,-2.5327,-5.0485,1.2325,2.8136,0.4936,0.6463,0.0,7.1,-17.0,20.0,15.56,82.84,-33.2,0.4,67.995,,,,NaN,,,,0 / 0,2312,2014-12-14 04:37:34:136
1.9123,-12.9938,-2.6576,0.2716,-9.6375,1.7929,1.6407,-3.3563,-4.4505,2.2516,-0.3494,0.9688,0.0,10.6,-15.7,13.1,321.67,79.34,-8.61,0.4,67.995,,,,NaN,,,,0 / 0,2362,2014-12-14 04:37:34:186
0.5884,-11.1404,-2.432,0.0947,-9.5503,2.2254,0.4937,-1.59,-4.6575,2.821,-1.543,1.2315,0.0,13.6,-14.8,6.3,282.37,76.87,-2.44,0.4,67.995,,,,NaN,,,,0 / 0,2412,2014-12-14 04:37:34:236
0.5394,-9.6694,0.7355,-0.0238,-9.3966,2.8061,0.5632,-0.2728,-2.0706,2.854,-1.5626,0.6084,0.0,14.5,-14.8,-0.5,253.6,73.37,0.49,0.4,59.908,,,,NaN,,,,0 / 0,2463,2014-12-14 04:37:34:287
0.7747,-7.6296,0.9905,0.0284,-9.2784,3.175,0.7561,0.8055,-1.8707,2.5803,-1.4135,0.4007,0.0,14.5,-15.3,-3.4,253.6,73.37,0.49,0.4,59.908,,,,NaN,,,,0 / 0,2513,2014-12-14 04:37:34:337
1.726,-3.9815,0.049,0.4975,-8.9303,4.0215,1.2285,4.9488,-3.9724,2.094,-0.9884,0.0171,0.0,13.2,-17.0,-11.7,221.21,65.59,-7.05,0.4,59.908,,,,NaN,,,,0 / 0,2563,2014-12-14 04:37:34:387
1.8535,-3.55,0.1961,0.6252,-8.8812,4.1115,1.2282,5.3312,-3.9154,1.9389,-0.8906,-0.0318,0.0,12.8,-17.4,-12.2,222.17,64.91,-8.65,0.4,59.908,,,,NaN,,,,0 / 0,2618,2014-12-14 04:37:34:442
1.6475,-3.2656,0.7845,0.6252,-8.8812,4.1115,1.2282,5.3312,-3.9154,1.9389,-0.8906,-0.0318,0.0,12.8,-17.4,-12.2,222.17,64.91,-8.65,0.4,59.908,,,,NaN,,,,0 / 0,2681,2014-12-14 04:37:34:505
1.4024,-3.2852,1.0101,1.0794,-8.7455,4.3036,0.5681,5.4799,-3.5191,1.2022,-0.7758,-0.0782,0.0,11.9,-18.3,-14.7,219.55,63.1,-14.08,0.4,59.908,,,,NaN,,,,0 / 0,2743,2014-12-14 04:37:34:567
1.4024,-3.2852,1.0101,1.0794,-8.7455,4.3036,0.5681,5.4799,-3.5191,1.2022,-0.7758,-0.0782,0.0,11.9,-18.3,-14.7,219.55,63.1,-14.08,0.4,59.908,,,,NaN,,,,0 / 0,2763,2014-12-14 04:37:34:587
0.5688,-2.4124,2.0594,1.6018,-8.6475,4.3389,-1.033,6.235,-2.2795,0.4508,-0.6463,-0.0672,0.0,10.6,-19.2,-17.1,219.49,61.86,-20.26,0.4,59.908,,,,NaN,,,,0 / 0,2813,2014-12-14 04:37:34:637
0.5688,-2.4124,2.0594,1.6018,-8.6475,4.3389,-1.033,6.235,-2.2795,0.4508,-0.6463,-0.0672,0.0,10.6,-19.2,-17.1,219.49,61.86,-20.26,0.4,59.908,,,,NaN,,,,0 / 0,2863,2014-12-14 04:37:34:687
1.2454,-1.6966,2.8145,1.9301,-8.5614,4.3758,-0.6847,6.8648,-1.5613,-1.4917,0.6573,0.314,0.0,11.0,-17.9,-15.1,223.67,60.81,-23.8,0.4,59.908,,,,NaN,,,,0 / 0,2913,2014-12-14 04:37:34:737
1.2454,-1.6966,2.8145,1.9301,-8.5614,4.3758,-0.6847,6.8648,-1.5613,-1.4917,0.6573,0.314,0.0,11.0,-17.9,-15.1,223.67,60.81,-23.8,0.4,59.908,,,,NaN,,,,0 / 0,2963,2014-12-14 04:37:34:787
-0.3825,-11.768,10.4539,1.9399,-8.6775,4.1362,-4.3327,-6.9641,9.652,-1.4441,0.7367,0.4643,0.0,11.9,-16.1,-9.3,235.34,62.23,-25.13,0.4,59.908,,,,NaN,,,,0 / 0,3013,2014-12-14 04:37:34:837
4.717,-11.0325,2.6478,1.9716,-8.7468,3.9721,2.7552,1.382,-2.1186,-1.5406,0.6866,-0.0782,0.0,11.9,-14.0,-5.4,246.77,63.12,-26.4,0.4,59.908,,,,NaN,,,,0 / 0,3062,2014-12-14 04:37:34:886
-0.9316,-12.7486,-0.3432,1.9074,-9.3043,2.4419,-2.839,-3.4444,-2.7851,-2.2235,1.471,-0.4581,0.0,13.6,-11.8,0.9,296.23,71.58,-37.99,0.4,59.908,,,,NaN,,,,0 / 0,3112,2014-12-14 04:37:34:936
-3.0695,-8.8358,-0.1373,0.9054,-9.7635,-0.1559,-3.9748,0.9277,0.0186,-1.708,0.1491,-0.2358,0.0,11.5,-9.2,9.7,296.23,71.58,-37.99,0.4,59.908,,,,NaN,,,,0 / 0,3162,2014-12-14 04:37:34:986
1.2749,-9.6399,0.8336,0.4381,-9.7412,-1.0427,0.8368,0.1013,1.8763,-0.6964,0.2663,-0.3958,0.0,8.9,-8.7,15.6,130.15,83.38,-157.21,0.4,59.908,,,,NaN,,,,0 / 0,3212,2014-12-14 04:37:35:036
0.7355,-9.7184,0.2059,0.7046,-9.725,-1.048,0.0309,0.0066,1.254,-0.4887,0.5449,-0.0318,0.0,7.6,-8.3,17.0,130.15,83.38,-157.21,0.4,67.482,,,,NaN,,,,0 / 0,3263,2014-12-14 04:37:35:087
0.2452,-9.1398,-0.5394,0.717,-9.7163,-1.1179,-0.4718,0.5765,0.5786,-0.5791,0.4533,-0.0843,0.0,6.7,-8.7,17.5,128.66,82.22,-147.33,0.4,67.482,,,,NaN,,,,0 / 0,3313,2014-12-14 04:37:35:137
-0.5492,-12.3368,-0.7551,0.8237,-9.627,-1.6769,-1.3729,-2.7097,0.9218,-0.5828,0.1271,-0.4972,0.0,4.1,-8.3,20.9,144.92,79.02,-153.84,0.4,67.482,,,,NaN,,,,0 / 0,3363,2014-12-14 04:37:35:187
-0.1765,-12.6114,-0.7257,0.8429,-9.6182,-1.7177,-1.0194,-2.9932,0.992,-0.5058,-0.099,-0.6121,0.0,2.8,-8.3,21.4,144.92,79.02,-153.84,0.4,67.482,,,,NaN,,,,0 / 0,3413,2014-12-14 04:37:35:237
1.1376,-14.6413,2.7066,0.9446,-9.6938,-1.144,0.1929,-4.9475,3.8506,0.9615,0.0501,-0.2248,0.0,-1.1,-7.9,21.4,149.34,78.65,-150.31,0.4,67.482,,,,NaN,,,,0 / 0,3462,2014-12-14 04:37:35:286
3.0008,-13.2586,4.158,1.0141,-9.7446,-0.4291,1.9867,-3.514,4.5871,1.4245,-0.1271,-0.1356,0.0,-2.4,-7.4,20.0,120.43,83.55,-112.93,0.4,67.482,,,,NaN,,,,0 / 0,3513,2014-12-14 04:37:35:337
0.3138,-14.6707,3.295,1.2028,-9.7099,0.664,-0.889,-4.9608,2.631,1.9707,-0.2443,0.1246,0.0,-3.3,-7.0,15.6,120.43,83.55,-112.93,0.4,67.482,,,,NaN,,,,0 / 0,3566,2014-12-14 04:37:35:390
-1.9025,-13.3567,-2.1869,0.8306,-9.6227,1.6984,-2.7331,-3.734,-3.8852,2.1906,0.2211,0.711,0.0,-3.7,-6.1,10.7,69.38,81.1,-50.44,0.4,67.482,,,,NaN,,,,0 / 0,3613,2014-12-14 04:37:35:437
0.4903,-12.8075,-3.0499,0.4385,-9.6024,1.942,0.0518,-3.2051,-4.9919,2.116,-0.3054,0.8674,0.0,-3.7,-5.7,7.3,49.77,78.29,-12.73,0.4,67.482,,,,NaN,,,,0 / 0,3662,2014-12-14 04:37:35:486
0.814,-8.5024,0.6276,0.2853,-9.1444,3.5312,1.251,-0.4019,-4.2212,2.8723,-2.0769,1.0397,0.0,-3.7,-3.5,0.9,49.77,78.29,-12.73,0.4,67.482,,,,NaN,,,,0 / 0,3713,2014-12-14 04:37:35:537
0.814,-8.5024,0.6276,0.2853,-9.1444,3.5312,0.5814,2.4191,-3.8597,2.5278,-1.361,0.4704,0.0,-4.6,-4.0,-10.3,159.4,68.82,-4.62,0.4,67.482,,,,NaN,,,,0 / 0,3763,2014-12-14 04:37:35:587
1.0591,-4.5405,-0.2157,0.5304,-8.886,4.1143,0.5287,4.3455,-4.3301,2.1771,-1.091,0.3983,0.0,-5.0,-4.8,-13.7,168.28,64.97,-7.35,0.4,67.482,,,,NaN,,,,0 / 0,3813,2014-12-14 04:37:35:637
1.1768,-2.3438,1.824,1.4367,-8.6444,4.4024,-0.2599,6.3006,-2.5784,-0.1857,0.0745,0.3995,0.0,-7.2,-6.6,-19.0,177.94,61.82,-18.07,0.4,57.465,,,,NaN,,,,0 / 0,3863,2014-12-14 04:37:35:687
1.8731,-1.9711,3.3343,1.52,-8.7227,4.216,0.3531,6.7515,-0.8818,-0.1857,0.0745,0.3995,0.0,-7.2,-6.6,-19.0,177.94,61.82,-18.07,0.4,57.465,,,,NaN,,,,0 / 0,3912,2014-12-14 04:37:35:736
1.0591,-3.6088,2.7655,1.6369,-8.8021,4.0017,-0.5778,5.1933,-1.2362,-2.1063,0.7831,0.2834,0.0,-5.9,-2.7,-13.2,178.07,63.34,-21.3,0.4,57.465,,,,NaN,,,,0 / 0,3963,2014-12-14 04:37:35:787
-0.1569,-16.0731,13.4253,1.5616,-8.9451,3.7037,-1.7185,-7.128,9.7216,-0.5046,1.7336,0.2859,0.0,-5.5,-0.1,-9.8,175.94,65.8,-22.86,0.4,57.465,,,,NaN,,,,0 / 0,4012,2014-12-14 04:37:35:836
3.4127,-3.0401,0.7257,1.0211,-9.4667,2.3471,1.362,6.6914,-2.2785,-2.1893,1.4746,-0.2285,0.0,-3.3,4.3,-0.5,92.32,74.87,-23.51,0.4,57.465,,,,NaN,,,,0 / 0,4062,2014-12-14 04:37:35:886
0.255,-6.1488,-0.6865,1.2114,-9.5423,1.9101,-0.9564,3.3935,-2.5965,-2.2113,1.493,-0.3201,0.0,-2.9,5.2,1.9,92.32,74.87,-23.51,0.4,57.465,,,,NaN,,,,0 / 0,4112,2014-12-14 04:37:35:936
-0.0785,-16.1221,-0.7061,1.245,-9.6928,0.8179,-1.3235,-6.4293,-1.524,-2.1124,0.8992,-0.5034,0.0,-4.2,6.0,7.8,72.2,77.75,-37.32,0.4,57.465,,,,NaN,,,,0 / 0,4162,2014-12-14 04:37:35:986
-2.5399,-9.7282,-0.1569,0.8913,-9.7363,-0.7619,-3.5391,1.7635,-0.1894,-1.8912,0.876,-0.1271,0.0,-5.0,7.3,16.1,146.08,83.13,-130.52,0.4,57.465,,,,NaN,,,,0 / 0,4212,2014-12-14 04:37:36:036
-1.6867,-10.4343,0.4805,0.546,-9.677,-1.4929,-2.2328,-0.7573,1.9735,-1.3879,0.562,-0.2468,0.0,-5.5,6.9,21.9,172.22,80.67,-159.91,0.4,57.465,,,,NaN,,,,0 / 0,4263,2014-12-14 04:37:36:087
0.4413,-9.3752,0.6178,0.6096,-9.6606,-1.5719,-0.1683,0.2855,2.1897,-0.6561,0.595,-0.2162,0.0,-7.2,6.5,25.8,173.48,80.1,-158.8,0.4,57.465,,,,NaN,,,,0 / 0,4312,2014-12-14 04:37:36:136
-0.3923,-9.1594,-0.6669,0.6856,-9.659,-1.5503,-1.2967,0.5834,0.2161,-0.5742,1.0067,0.0403,0.0,-7.7,6.5,28.3,171.62,80.05,-156.14,0.4,57.465,,,,NaN,,,,0 / 0,4362,2014-12-14 04:37:36:186
-0.0294,-11.2188,-0.9218,0.6363,-9.6485,-1.6346,-0.745,-1.175,0.7629,-0.5217,0.6475,-0.077,0.0,-8.5,6.5,29.7,171.62,80.05,-156.14,0.4,68.316,,,,NaN,,,,0 / 0,4413,2014-12-14 04:37:36:237
-0.0294,-11.2188,-0.9218,0.5441,-9.6101,-1.8765,-0.6912,-1.697,0.8272,-0.5217,0.6475,-0.077,0.0,-9.8,6.5,31.2,181.82,78.51,-163.83,0.4,68.316,,,,NaN,,,,0 / 0,4463,2014-12-14 04:37:36:287
-0.5884,-12.6702,-1.1572,0.6179,-9.5677,-2.0612,-1.2259,-2.4357,-0.3022,-0.4765,-0.4643,-0.6219,0.0,-10.7,6.0,32.2,182.44,77.32,-163.31,0.4,68.316,,,,NaN,,,,0 / 0,4512,2014-12-14 04:37:36:336
-0.3923,-16.2496,1.8633,0.7101,-9.6053,-1.8452,-1.1024,-6.6443,3.7084,1.0214,-0.0037,-0.2688,0.0,-14.2,6.5,34.1,181.41,78.37,-158.95,0.4,68.316,,,,NaN,,,,0 / 0,4562,2014-12-14 04:37:36:386
2.3046,-12.8565,2.5301,0.891,-9.7661,0.023,1.4135,-3.0905,2.5071,1.6689,0.1197,-0.0977,0.0,-16.3,9.9,25.3,119.5,84.79,-88.52,0.4,68.316,,,,NaN,,,,0 / 0,4612,2014-12-14 04:37:36:436
-1.8142,-13.4155,-0.4413,0.4931,-9.6841,1.4648,-2.3073,-3.7314,-1.9061,2.5546,0.5534,0.7257,0.0,-15.5,13.9,12.2,64.23,80.93,-18.6,0.4,68.316,,,,NaN,,,,0 / 0,4663,2014-12-14 04:37:36:487
0.5394,-12.8859,-0.8924,0.1249,-9.6047,1.9761,0.4145,-3.2813,-2.8685,2.5546,0.5534,0.7257,0.0,-15.5,13.9,12.2,64.23,80.93,-18.6,0.4,68.316,,,,NaN,,,,0 / 0,4712,2014-12-14 04:37:36:536
-0.2746,-9.7282,-2.589,0.0623,-9.442,2.6484,-0.3369,-0.2862,-5.2374,2.7232,-2.0855,0.9065,0.0,-15.5,14.3,-10.8,79.75,77.44,-2.16,0.4,68.316,,,,NaN,,,,0 / 0,4763,2014-12-14 04:37:36:587
-0.5296,-9.3752,-1.8338,0.0568,-9.4117,2.7543,-0.5864,0.0366,-4.5881,2.7391,-1.5296,0.4643,0.0,-17.2,11.7,-18.1,130.58,73.68,-1.18,0.4,58.418,,,,NaN,,,,0 / 0,4812,2014-12-14 04:37:36:636
0.863,-5.9624,0.6963,0.171,-9.1974,3.3983,0.692,3.235,-2.702,2.0733,-1.3158,0.3103,0.0,-18.5,8.6,-23.9,140.31,69.7,-2.88,0.4,58.418,,,,NaN,,,,0 / 0,4863,2014-12-14 04:37:36:687
1.5593,-4.413,0.5394,0.4201,-8.995,3.8838,1.1391,4.582,-3.3444,2.2736,-1.2144,0.3311,0.0,-19.0,7.8,-24.4,140.31,69.7,-2.88,0.4,58.418,,,,NaN,,,,0 / 0,4912,2014-12-14 04:37:36:736
1.8731,-4.3051,0.6767,0.5018,-8.9632,3.9472,1.3712,4.6581,-3.2705,1.4783,-1.135,0.314,0.0,-22.4,2.1,-31.7,149.94,66.06,-7.25,0.4,58.418,,,,NaN,,,,0 / 0,4963,2014-12-14 04:37:36:787
1.9025,-2.1084,2.7851,0.9827,-8.9317,3.928,0.7334,6.7546,-1.2018,-1.2083,0.43,0.463,0.0,-23.3,1.7,-31.7,155.91,65.61,-14.05,0.4,58.418,,,,NaN,,,,0 / 0,5109,2014-12-14 04:37:36:933
1.9025,-2.1084,2.7851,0.9827,-8.9317,3.928,0.7334,6.7546,-1.2018,-1.2083,0.43,0.463,0.0,-23.3,1.7,-31.7,155.91,65.61,-14.05,0.4,58.418,,,,NaN,,,,0 / 0,5111,2014-12-14 04:37:36:935
1.9025,-2.1084,2.7851,0.9827,-8.9317,3.928,0.7334,6.7546,-1.2018,-1.2083,0.43,0.463,0.0,-23.3,1.7,-31.7,155.91,65.61,-14.05,0.4,58.418,,,,NaN,,,,0 / 0,5113,2014-12-14 04:37:36:937
1.8731,-2.4419,2.7655,1.092,-8.9923,3.7572,0.7811,6.5504,-0.9917,-1.4868,0.4618,0.485,0.0,-22.0,4.3,-29.8,157.17,66.17,-15.26,0.4,58.418,,,,NaN,,,,0 / 0,5162,2014-12-14 04:37:36:986
-2.3732,-17.9266,14.2687,1.2708,-9.1675,3.2422,-3.644,-8.759,11.0265,-0.5021,1.6567,0.3738,0.0,-18.1,11.3,-24.4,160.91,69.2,-21.4,0.4,58.418,,,,NaN,,,,0 / 0,5213,2014-12-14 04:37:37:037
3.1185,-3.0989,0.3628,1.0132,-9.5568,1.9524,2.1054,6.4579,-1.5895,-2.1527,1.3867,-0.0733,0.0,-16.8,17.3,-15.1,154.03,77.04,-27.43,0.4,58.418,,,,NaN,,,,0 / 0,5262,2014-12-14 04:37:37:086
-1.3337,-10.1401,0.2256,0.9666,-9.7482,-0.4575,-2.3003,-0.3919,0.683,-2.1136,1.1777,-0.3482,0.0,-15.9,20.8,-8.8,154.03,77.04,-27.43,0.4,59.546,,,,NaN,,,,0 / 0,5312,2014-12-14 04:37:37:136
-1.5298,-7.8355,-0.5688,0.9,-9.7367,-0.7458,-2.4299,1.9012,0.177,-1.6933,0.7001,-0.2321,0.0,-17.2,23.4,1.9,218.93,83.15,-129.65,0.4,59.546,,,,NaN,,,,0 / 0,5363,2014-12-14 04:37:37:187
-2.2948,-9.8753,-0.1177,0.706,-9.6756,-1.4336,-2.6376,-0.9569,2.1693,-1.2804,0.3653,-0.2456,0.0,-18.1,23.4,10.7,218.93,83.15,-129.65,0.4,59.546,,,,NaN,,,,0 / 0,5413,2014-12-14 04:37:37:237
-0.6963,-9.8753,0.8238,0.5172,-9.6527,-1.6516,-1.2135,-0.2226,2.4754,-1.0043,0.5229,-0.3176,0.0,-19.4,23.0,11.7,228.65,79.84,-162.61,0.4,59.546,,,,NaN,,,,0 / 0,5462,2014-12-14 04:37:37:286
0.0883,-9.9047,0.6767,0.5904,-9.6711,-1.5141,-0.5022,-0.2337,2.1907,-0.3494,0.4704,-0.0953,0.0,-20.3,22.6,15.6,216.33,80.23,-159.39,0.4,59.546,,,,NaN,,,,0 / 0,5513,2014-12-14 04:37:37:337
-0.2942,-9.1104,-1.3729,0.5631,-9.6931,-1.3776,-0.8573,0.5827,0.0047,-0.3311,0.7159,0.1185,0.0,-20.3,23.0,16.1,216.33,80.23,-159.39,0.4,59.546,,,,NaN,,,,0 / 0,5563,2014-12-14 04:37:37:387
-0.1863,-9.13,-1.3925,0.5313,-9.6908,-1.4056,-0.7177,0.5608,0.0131,-0.3702,0.722,0.1075,0.0,-19.8,23.0,16.6,213.51,81.19,-159.29,0.4,59.546,,,,NaN,,,,0 / 0,5613,2014-12-14 04:37:37:437
0.353,-10.7579,-1.9319,0.7003,-9.608,-1.835,-0.2526,-1.1671,-0.1859,-0.3348,0.3018,-0.3311,0.0,-19.8,22.6,18.0,213.51,81.19,-159.29,0.4,59.546,,,,NaN,,,,0 / 0,5662,2014-12-14 04:37:37:486
0.4707,-11.2973,-2.4419,0.857,-9.562,-2.0013,-0.3863,-1.7353,-0.4406,-0.4007,0.1625,-0.5559,0.0,-21.1,22.1,18.5,212.3,78.45,-159.11,0.4,66.828,,,,NaN,,,,0 / 0,5713,2014-12-14 04:37:37:537
-0.9512,-14.2393,-1.5789,0.9255,-9.4974,-2.2612,-1.8768,-4.7419,0.6823,-0.0745,0.7782,-0.2639,0.0,-23.7,19.5,20.5,210.55,77.17,-156.82,0.4,66.828,,,,NaN,,,,0 / 0,5762,2014-12-14 04:37:37:586
3.4323,-12.7486,2.3928,1.0058,-9.6115,-1.6669,2.4265,-3.1372,4.0597,0.9139,0.1442,-0.237,0.0,-24.2,18.2,18.0,205.41,78.55,-148.89,0.4,66.828,,,,NaN,,,,0 / 0,5812,2014-12-14 04:37:37:636
-1.6181,-11.866,4.0698,1.3203,-9.7085,-0.4158,-2.9384,-2.1576,4.4856,1.6554,-0.711,-0.0745,0.0,-25.9,16.0,11.7,205.41,78.55,-148.89,0.4,66.828,,,,NaN,,,,0 / 0,5862,2014-12-14 04:37:37:686
-1.6377,-11.5817,-1.2651,0.7069,-9.7315,0.9837,-2.3446,-1.8501,-2.2488,2.1539,0.6365,0.3983,0.0,-25.0,15.2,3.4,114.84,82.9,-35.7,0.4,66.828,,,,NaN,,,,0 / 0,5913,2014-12-14 04:37:37:737
4.2463,-11.3169,-2.1084,0.3271,-9.7284,1.1922,3.9191,-1.5885,-3.3006,1.4539,0.2505,0.4349,0.0,-23.7,12.6,-2.5,106.21,82.76,-15.35,0.4,66.828,,,,NaN,,,,0 / 0,5963,2014-12-14 04:37:37:787
2.7361,-8.5612,-2.9812,0.749,-9.6694,1.4533,1.9871,1.1082,-4.4345,1.7654,-1.7837,0.6878,0.0,-22.4,10.8,-7.8,133.57,80.4,-27.27,0.4,66.828,,,,NaN,,,,0 / 0,6013,2014-12-14 04:37:37:837
0.4609,-7.3844,-0.9022,0.8884,-9.6526,1.4861,-0.4275,2.2682,-2.3884,1.6884,-0.6084,0.4081,0.0,-22.9,7.8,-11.7,133.57,80.4,-27.27,0.4,66.828,,,,NaN,,,,0 / 0,6063,2014-12-14 04:37:37:887
1.4906,-6.6587,0.5198,0.848,-9.6271,1.6646,0.6427,2.9684,-1.1448,0.8393,-0.3005,0.3201,0.0,-22.4,6.0,-14.2,147.64,79.02,-27.0,0.4,66.828,,,,NaN,,,,0 / 0,6112,2014-12-14 04:37:37:936
1.2454,-5.6781,-1.4612,0.9512,-9.6387,1.5367,0.4119,3.8822,-3.1842,0.022,0.4056,0.3238,0.0,-21.1,5.2,-14.7,156.1,79.38,-31.76,0.4,55.553,,,,NaN,,,,0 / 0,6162,2014-12-14 04:37:37:986
0.8532,-4.5895,-0.2157,1.001,-9.6998,1.0408,-0.1968,4.7376,-1.5507,-0.4142,0.11,0.259,0.0,-20.3,5.6,-15.1,156.1,79.38,-31.76,0.4,55.553,,,,NaN,,,,0 / 0,6212,2014-12-14 04:37:38:036
1.1376,-4.4228,-0.1373,1.0839,-9.7418,0.3043,0.0536,5.319,-0.4416,-1.1729,0.0916,0.1381,0.0,-18.5,7.8,-12.7,173.99,82.02,-47.38,0.4,55.553,,,,NaN,,,,0 / 0,6263,2014-12-14 04:37:38:087
0.9709,-4.717,-0.3334,1.119,-9.7414,0.1536,-0.1481,5.0244,-0.487,-1.7715,0.3201,-0.1478,0.0,-17.2,11.3,-5.9,192.58,83.39,-82.18,0.4,55.553,,,,NaN,,,,0 / 0,6312,2014-12-14 04:37:38:136
0.0392,-14.6806,3.3048,1.2492,-9.653,-1.1953,-1.21,-5.0275,4.5001,-1.4514,0.1564,-0.2199,0.0,-17.7,11.7,-3.4,192.58,83.39,-82.18,0.4,55.553,,,,NaN,,,,0 / 0,6362,2014-12-14 04:37:38:186
1.2945,-19.3387,11.817,1.0408,-9.7413,-0.4401,0.2537,-9.5974,12.2572,1.6298,-2.0036,-0.4459,0.0,-18.1,12.1,-2.0,211.74,83.38,-112.92,0.4,55.553,,,,NaN,,,,0 / 0,6412,2014-12-14 04:37:38:236
4.8249,-2.5988,-1.1278,2.087,-9.5776,0.2894,3.7356,9.098,-3.0721,0.6084,0.6243,-0.0745,0.0,-19.8,9.9,-6.4,156.24,80.31,-51.71,0.4,55.553,,,,NaN,,,,0 / 0,6462,2014-12-14 04:37:38:286
-3.5304,-12.8565,-3.3735,1.9638,-9.6077,0.0776,-5.4942,-3.2488,-3.4511,-0.92,1.5821,0.303,0.0,-17.2,12.6,-5.4,196.91,78.44,-87.74,0.4,55.553,,,,NaN,,,,0 / 0,6513,2014-12-14 04:37:38:337
-3.5304,-12.8565,-3.3735,1.9638,-9.6077,0.0776,-5.4942,-3.2488,-3.4511,0.1552,-0.6585,-0.0965,0.0,-17.2,13.0,-5.4,196.91,78.44,-60.44,0.4,55.553,,,,NaN,,,,0 / 0,6562,2014-12-14 04:37:38:386
0.8532,-8.6102,1.8633,0.3771,-9.7971,0.2138,0.4761,1.1868,1.6494,0.1552,-0.6585,-0.0965,0.0,-16.8,13.0,-5.4,166.38,87.47,-60.44,0.4,55.553,,,,NaN,,,,0 / 0,6612,2014-12-14 04:37:38:436
-0.6472,-10.395,1.0199,0.3861,-9.7891,0.441,-1.0333,-0.6059,0.5789,0.055,0.1723,0.1258,0.0,-16.3,13.4,-3.9,156.9,86.15,-54.83,0.4,67.181,,,,NaN,,,,0 / 0,6663,2014-12-14 04:37:38:487
-0.1961,-10.0126,1.0787,0.31,-9.7904,0.4711,-0.5061,-0.2222,0.6077,0.0721,0.2114,0.077,0.0,-16.8,13.0,-3.9,134.8,86.7,-33.35,0.4,67.181,,,,NaN,,,,0 / 0,6713,2014-12-14 04:37:38:537
0.8041,-9.787,1.3141,0.3423,-9.7857,0.5411,0.4618,-0.0013,0.773,-0.0012,0.1161,-0.0415,0.0,-16.3,13.4,-4.9,137.65,86.26,-32.32,0.4,67.181,,,,NaN,,,,0 / 0,6762,2014-12-14 04:37:38:586
-0.657,-10.1499,0.7551,0.4385,-9.7795,0.5822,-1.0956,-0.3704,0.1729,-0.0318,0.0403,-0.0244,0.0,-16.8,13.0,-4.4,137.65,86.26,-32.32,0.4,67.181,,,,NaN,,,,0 / 0,6813,2014-12-14 04:37:38:637
-0.608,-10.2087,0.8434,0.3984,-9.7814,0.579,-1.0064,-0.4273,0.2644,0.0171,0.1869,-0.0476,0.0,-16.3,13.4,-3.9,136.25,85.89,-34.53,0.4,67.181,,,,NaN,,,,0 / 0,6863,2014-12-14 04:37:38:687
-0.2648,-9.9832,0.8924,0.3287,-9.7843,0.5736,-0.5935,-0.1988,0.3188,-0.0293,-0.0012,-0.0415,0.0,-16.3,13.4,-4.4,131.5,86.13,-29.81,0.4,67.181,,,,NaN,,,,0 / 0,6913,2014-12-14 04:37:38:737
-0.1471,-9.9734,0.9611,0.3039,-9.7853,0.5705,-0.1274,-0.1684,0.4102,-0.0293,-0.0012,-0.0415,0.0,-16.3,13.4,-4.4,131.5,86.13,-29.81,0.4,67.181,,,,NaN,,,,0 / 0,6962,2014-12-14 04:37:38:786
0.2942,-9.8361,0.7747,0.3119,-9.785,0.572,-0.0177,-0.0511,0.2027,-0.0281,0.0012,0.0037,0.0,-16.8,13.4,-4.4,129.6,86.19,-28.61,0.4,67.181,,,,NaN,,,,0 / 0,7013,2014-12-14 04:37:38:837
0.0,-10.1205,1.118,0.3691,-9.7865,0.5086,-0.3691,-0.334,0.6094,-0.1014,-0.0929,-0.033,0.0,-16.8,13.4,-3.4,129.6,86.19,-28.61,0.4,67.181,,,,NaN,,,,0 / 0,7063,2014-12-14 04:37:38:887
0.2256,-9.993,0.7747,0.3306,-9.787,0.5254,-0.1051,-0.206,0.2493,0.0904,0.0,-0.0244,0.0,-16.8,13.9,-2.5,128.94,86.47,-34.37,0.4,67.181,,,,NaN,,,,0 / 0,7112,2014-12-14 04:37:38:936
0.2157,-9.9145,0.5884,0.3793,-9.7868,0.4942,-0.1636,-0.1277,0.0942,-0.0855,0.0538,-0.0269,0.0,-17.2,13.4,-2.0,132.1,86.36,-37.5,0.4,67.181,,,,NaN,,,,0 / 0,7162,2014-12-14 04:37:38:986
0.0785,-10.0322,1.0689,0.4029,-9.7876,0.4584,-0.3244,-0.2446,0.6105,-0.0464,-0.055,-0.0195,0.0,-16.3,13.9,-3.0,132.1,86.36,-37.5,0.4,67.181,,,,NaN,,,,0 / 0,7213,2014-12-14 04:37:39:037