ACCELEROMETER X (m/s²),ACCELEROMETER Y (m/s²),ACCELEROMETER Z (m/s²),GRAVITY X (m/s²),GRAVITY Y (m/s²),GRAVITY Z (m/s²),LINEAR ACCELERATION X (m/s²),LINEAR ACCELERATION Y (m/s²),LINEAR ACCELERATION Z (m/s²),GYROSCOPE X (rad/s),GYROSCOPE Y (rad/s),GYROSCOPE Z (rad/s),LIGHT (lux),MAGNETIC FIELD X (μT),MAGNETIC FIELD Y (μT),MAGNETIC FIELD Z (μT),ORIENTATION X (°),ORIENTATION Y (°),ORIENTATION Z (°),PROXIMITY (i),SOUND LEVEL (dB),LOCATION Latitude : ,LOCATION Longitude : ,LOCATION Altitude ( m),LOCATION Altitude-google ( m),LOCATION Speed ( Kmh),LOCATION Accuracy ( m),LOCATION ORIENTATION (°),Satellites in range,Time since start in ms ,YYYY-MO-DD HH-MI-SS_SSS
0.5394,-9.9439,-0.7355,0.8172,-9.7079,-1.1222,-0.2778,-0.236,0.3867,0.0049,0.0147,-0.0049,0.0,-4.4,-21.3,-3.1,239.86,81.86,-143.94,0.4,56.313,,,,NaN,,,,0 / 0,11,2014-12-14 04:40:05:534
0.4707,-9.9243,-0.8532,0.83,-9.7057,-1.1321,-0.3593,-0.2187,0.2789,-0.0012,0.0086,-0.0134,0.0,-3.6,-21.3,-3.6,248.93,81.77,-143.75,0.4,39.148,,,,NaN,,,,0 / 0,63,2014-12-14 04:40:05:586
0.4903,-9.9243,-0.7551,0.8334,-9.703,-1.1526,-0.3431,-0.2214,0.3975,0.0122,0.0159,-0.011,0.0,-3.6,-21.7,-3.1,248.93,81.77,-143.75,0.4,39.148,,,,NaN,,,,0 / 0,113,2014-12-14 04:40:05:636
0.4805,-9.9636,-0.7551,0.834,-9.7029,-1.1526,-0.3534,-0.2607,0.3975,0.011,0.0147,-0.0147,0.0,-4.0,-21.3,-3.1,239.36,81.66,-144.11,0.4,39.148,,,,NaN,,,,0 / 0,162,2014-12-14 04:40:05:685
0.4609,-9.993,-0.8238,0.838,-9.7022,-1.1561,-0.2567,-0.2414,0.2914,0.0464,0.0318,-0.0073,0.0,-4.4,-21.3,-3.6,248.72,81.63,-144.06,0.4,39.148,,,,NaN,,,,0 / 0,211,2014-12-14 04:40:05:734
0.6472,-9.9145,-0.8238,0.8313,-9.703,-1.154,-0.184,-0.2115,0.3302,0.0232,0.0513,-0.0379,0.0,-4.4,-21.7,-3.1,248.72,81.63,-144.06,0.4,39.148,,,,NaN,,,,0 / 0,263,2014-12-14 04:40:05:786
0.4217,-10.0028,-0.7845,0.8597,-9.7013,-1.1468,-0.3767,-0.2421,0.3204,0.0428,0.0648,-0.0391,0.0,-4.0,-22.1,-3.6,246.6,81.6,-143.14,0.4,39.148,,,,NaN,,,,0 / 0,311,2014-12-14 04:40:05:834
0.3236,-10.0714,-0.6276,0.8592,-9.702,-1.142,-0.5356,-0.3695,0.5144,0.0501,0.0953,-0.0379,0.0,-4.0,-21.3,-3.1,246.6,81.6,-143.14,0.4,39.148,,,,NaN,,,,0 / 0,361,2014-12-14 04:40:05:884
0.2059,-9.9341,-0.5001,0.8007,-9.7249,-0.9775,-0.5948,-0.2092,0.4773,0.1539,0.0171,-0.0831,0.0,-4.9,-21.3,-3.1,237.73,81.85,-142.7,0.4,39.148,,,,NaN,,,,0 / 0,412,2014-12-14 04:40:05:935
0.2059,-9.9341,-0.5001,0.8007,-9.7249,-0.9775,-0.5948,-0.2092,0.4773,0.1539,0.0171,-0.0831,0.0,-4.9,-21.3,-3.1,237.73,81.85,-142.7,0.4,39.148,,,,NaN,,,,0 / 0,462,2014-12-14 04:40:05:985
0.0294,-10.0616,-0.2256,0.7749,-9.7374,-0.8672,-0.7455,-0.3242,0.6416,0.2321,0.066,-0.1234,0.0,-4.9,-21.3,-4.6,253.46,83.19,-138.22,0.4,36.541,,,,NaN,,,,0 / 0,512,2014-12-14 04:40:06:035
-0.2059,-10.4343,0.7551,0.7671,-9.7632,-0.5112,-0.9731,-0.671,1.2663,0.3372,0.0757,-0.1515,0.0,-5.3,-21.7,-5.1,249.14,83.99,-131.84,0.4,36.541,,,,NaN,,,,0 / 0,562,2014-12-14 04:40:06:085
-0.2746,-10.4833,0.8532,0.762,-9.7673,-0.4356,-1.0365,-0.716,1.2888,0.4581,0.1161,-0.1564,0.0,-6.2,-22.1,-5.1,237.37,84.87,-119.76,0.4,36.541,,,,NaN,,,,0 / 0,612,2014-12-14 04:40:06:135
0.2354,-9.9538,1.8437,0.7173,-9.7802,-0.0608,-0.3643,-0.3108,2.3261,0.7379,0.2028,-0.1246,0.0,-6.2,-22.6,-7.5,226.65,85.79,-94.84,0.4,36.541,,,,NaN,,,,0 / 0,662,2014-12-14 04:40:06:185
0.9807,-12.68,4.5209,0.6591,-9.7404,0.9275,0.3216,-2.9396,3.5934,1.554,0.6658,0.2077,0.0,-5.7,-23.0,-10.4,183.63,83.34,-35.4,0.4,36.541,,,,NaN,,,,0 / 0,711,2014-12-14 04:40:06:234
1.4024,-13.6116,4.7758,0.6346,-9.7097,1.2202,0.7678,-3.9019,3.5556,1.8656,0.7428,0.2309,0.0,-6.2,-23.9,-10.9,183.63,83.34,-35.4,0.4,36.541,,,,NaN,,,,0 / 0,762,2014-12-14 04:40:06:285
1.8829,-11.8562,2.6282,1.1288,-9.2898,2.9317,1.7561,-3.115,-0.0259,2.1661,-0.3616,0.0428,0.0,-6.6,-24.7,-17.2,179.04,71.32,-21.06,0.4,36.541,,,,NaN,,,,0 / 0,811,2014-12-14 04:40:06:334
0.1961,-12.1308,2.6282,1.1882,-9.1868,3.219,-0.9921,-2.9441,-0.5908,2.1099,0.1417,0.0916,0.0,-6.2,-25.6,-18.7,179.04,71.32,-21.06,0.4,36.541,,,,NaN,,,,0 / 0,862,2014-12-14 04:40:06:385
0.1765,-12.1701,2.9224,0.9609,-8.939,3.9168,-0.2843,-2.2406,-1.0434,2.3653,-0.9407,0.1918,0.0,-7.0,-26.9,-24.6,178.61,65.72,-13.78,0.4,36.541,,,,NaN,,,,0 / 0,912,2014-12-14 04:40:06:435
0.8041,-9.689,2.8832,1.0144,-8.7609,4.2881,-0.2103,-0.928,-1.4049,2.2773,-1.4294,0.2236,0.0,-7.0,-27.8,-25.5,178.15,64.12,-13.11,0.4,36.541,,,,NaN,,,,0 / 0,961,2014-12-14 04:40:06:484
1.4612,-5.4231,3.4912,1.446,-8.115,5.3128,0.0152,2.692,-1.8216,1.5687,-0.8577,-0.0122,0.0,-9.7,-31.7,-31.9,178.44,55.84,-15.23,0.4,36.541,,,,NaN,,,,0 / 0,1012,2014-12-14 04:40:06:535
1.7456,-4.3149,3.4127,1.6966,-7.9275,5.5178,0.0152,2.692,-1.8216,1.5687,-0.8577,-0.0122,0.0,-9.7,-31.7,-31.9,178.44,55.84,-15.23,0.4,55.97,,,,NaN,,,,0 / 0,1061,2014-12-14 04:40:06:584
2.4026,-2.8047,3.501,2.1388,-7.7215,5.6546,0.2638,4.9168,-2.1536,0.5095,-0.7147,0.1503,0.0,-10.1,-33.4,-33.3,182.8,51.94,-20.72,0.4,55.97,,,,NaN,,,,0 / 0,1111,2014-12-14 04:40:06:634
2.8832,-3.0303,4.5307,2.6061,-7.5814,5.6481,0.2771,4.5512,-1.1174,-0.6145,0.0098,0.3677,0.0,-10.5,-32.6,-32.9,185.73,50.63,-24.77,0.4,55.97,,,,NaN,,,,0 / 0,1161,2014-12-14 04:40:06:684
3.7756,-4.0305,7.4727,2.8639,-7.5822,5.5208,0.9117,3.5516,1.9518,-1.6408,0.3641,0.4007,0.0,-9.2,-30.4,-30.4,187.75,50.64,-27.42,0.4,55.97,,,,NaN,,,,0 / 0,1212,2014-12-14 04:40:06:735
-0.5198,-14.0431,7.4236,2.4881,-7.4702,5.846,-3.0078,-6.5729,1.5776,-1.6408,0.3641,0.4007,0.0,-7.5,-29.1,-30.4,187.22,49.62,-23.05,0.4,55.97,,,,NaN,,,,0 / 0,1262,2014-12-14 04:40:06:785
-0.4021,-13.7587,2.893,2.2835,-7.5866,5.7792,-2.6856,-6.1721,-2.8863,-1.4209,0.4154,0.4129,0.0,-7.0,-27.8,-28.5,187.22,49.62,-23.05,0.4,55.97,,,,NaN,,,,0 / 0,1312,2014-12-14 04:40:06:835
1.7848,-8.9927,1.6769,2.2349,-8.7099,3.9132,-0.4501,-0.2828,-2.2363,-1.4209,0.4154,0.4129,0.0,-4.4,-23.9,-23.6,195.07,62.64,-29.73,0.4,55.97,,,,NaN,,,,0 / 0,1361,2014-12-14 04:40:06:884
-0.9316,-14.4256,0.0392,1.7779,-9.4041,2.1385,-2.7096,-5.0215,-2.0993,-2.3763,1.8106,0.2199,0.0,-2.7,-21.7,-18.7,195.07,62.64,-29.73,0.4,55.97,,,,NaN,,,,0 / 0,1411,2014-12-14 04:40:06:934
-2.3928,-9.6203,-0.2746,1.6103,-9.5447,1.5733,-2.4144,-3.2039,-1.3772,-1.8485,0.8589,-0.2834,0.0,-3.1,-20.8,-16.8,208.58,76.73,-45.66,0.4,55.97,,,,NaN,,,,0 / 0,1461,2014-12-14 04:40:06:984
-2.5595,-9.6301,-0.4609,1.1202,-9.7424,-0.0392,-3.6797,0.1123,-0.4217,-1.9975,0.2798,-0.0965,0.0,-2.7,-20.0,-11.4,246.25,83.44,-92.0,0.4,67.323,,,,NaN,,,,0 / 0,1512,2014-12-14 04:40:07:035
-1.2553,-9.9734,0.9022,0.6544,-9.7372,-0.9636,-1.9096,-0.2361,1.8658,-1.4649,-0.2712,-0.16,0.0,-3.6,-19.1,-7.0,279.88,83.18,-145.82,0.4,67.323,,,,NaN,,,,0 / 0,1562,2014-12-14 04:40:07:085
0.9218,-9.3948,2.1575,0.5433,-9.7125,-1.2419,0.3785,0.3177,3.3994,-1.1277,0.6365,0.11,0.0,-4.0,-19.5,-3.6,263.67,82.05,-156.37,0.4,67.323,,,,NaN,,,,0 / 0,1612,2014-12-14 04:40:07:135
0.304,-9.8557,0.912,0.6003,-9.7066,-1.2619,-0.2963,-0.1491,2.1739,-1.0348,1.471,0.4166,0.0,-3.1,-19.1,-1.6,238.4,81.81,-154.56,0.4,67.323,,,,NaN,,,,0 / 0,1662,2014-12-14 04:40:07:185
-0.0981,-10.395,-1.5495,0.5426,-9.6888,-1.4152,-0.9341,-0.9724,-0.2847,-0.8027,1.2669,0.1906,0.0,-3.1,-19.1,-0.7,238.4,81.81,-154.56,0.4,67.323,,,,NaN,,,,0 / 0,1711,2014-12-14 04:40:07:234
-0.0981,-10.395,-1.5495,0.5426,-9.6888,-1.4152,-0.9341,-0.9724,-0.2847,-0.9554,0.9346,-0.077,0.0,-2.7,-18.7,0.8,206.41,81.11,-159.02,0.4,67.323,,,,NaN,,,,0 / 0,1762,2014-12-14 04:40:07:285
-1.8927,-12.5525,0.0981,0.4649,-9.612,-1.8875,-2.3576,-2.9405,1.9856,-0.788,0.6231,-0.3079,0.0,-2.7,-19.1,1.8,206.41,81.11,-159.02,0.4,67.323,,,,NaN,,,,0 / 0,1812,2014-12-14 04:40:07:335
-0.2059,-15.4357,0.4119,0.6093,-9.6809,-1.442,-0.8153,-5.7548,1.8539,0.3042,-0.1051,-0.8894,0.0,-4.4,-19.1,2.8,199.03,80.81,-157.09,0.4,67.323,,,,NaN,,,,0 / 0,1862,2014-12-14 04:40:07:385
3.3637,-15.4259,6.4724,0.8356,-9.7708,0.0641,-0.0467,-4.2508,2.9578,1.4343,0.6634,-0.1381,0.0,-5.7,-18.7,2.3,206.33,82.99,-143.96,0.4,67.323,,,,NaN,,,,0 / 0,1911,2014-12-14 04:40:07:434
0.608,-15.877,5.835,0.9571,-9.7243,0.8326,-0.3491,-6.1527,5.0024,2.6414,0.1112,0.2309,0.0,-4.9,-16.9,-4.6,183.06,82.57,-48.98,0.4,67.323,,,,NaN,,,,0 / 0,1962,2014-12-14 04:40:07:485
-2.079,-13.3861,-4.0305,0.6586,-9.5648,2.0619,-2.7377,-3.8213,-6.0925,2.3714,0.4496,0.5302,0.0,-4.0,-16.1,-10.9,183.06,82.57,-48.98,0.4,67.323,,,,NaN,,,,0 / 0,2011,2014-12-14 04:40:07:534
-1.8633,-13.4057,-4.8543,0.537,-9.5507,2.1603,-2.4002,-3.855,-7.0146,2.1893,0.1759,0.6243,0.0,-3.6,-16.1,-12.4,176.45,76.88,-13.96,0.4,57.736,,,,NaN,,,,0 / 0,2061,2014-12-14 04:40:07:584
2.1673,-10.7971,-0.5786,0.0503,-9.427,2.7019,2.117,-1.3702,-3.2805,2.8271,-2.2529,1.1863,0.0,-0.1,-16.5,-22.6,178.26,74.78,-0.59,0.4,57.736,,,,NaN,,,,0 / 0,2112,2014-12-14 04:40:07:635
0.6178,-5.9722,0.4609,0.3472,-9.0945,3.6525,0.2707,3.1222,-3.1916,2.3921,-1.3268,0.347,0.0,-0.5,-18.2,-31.9,184.77,68.03,-5.43,0.4,57.736,,,,NaN,,,,0 / 0,2162,2014-12-14 04:40:07:685
0.6767,-4.7758,-0.1275,0.4418,-8.9918,3.8888,0.2349,4.216,-4.0163,2.1893,-1.1032,0.2529,0.0,-0.5,-18.7,-33.8,184.77,68.03,-5.43,0.4,57.736,,,,NaN,,,,0 / 0,2211,2014-12-14 04:40:07:734
2.03,-2.9616,0.6472,1.0038,-8.7699,4.2723,1.0262,5.8083,-3.625,1.493,-0.9505,0.1222,0.0,-1.8,-20.8,-38.2,186.28,63.94,-10.18,0.4,57.736,,,,NaN,,,,0 / 0,2262,2014-12-14 04:40:07:785
1.6573,-1.3043,2.3634,1.7534,-8.7798,4.0015,0.8356,7.4657,-0.7359,-1.2792,0.4239,0.3323,0.0,-4.0,-20.8,-37.7,189.39,63.26,-15.17,0.4,57.736,,,,NaN,,,,0 / 0,2311,2014-12-14 04:40:07:834
2.991,-1.8338,2.9616,1.9015,-8.7972,3.894,1.0895,6.9634,-0.9324,-1.7654,0.6939,0.3824,0.0,-3.6,-20.0,-36.8,197.44,63.78,-26.03,0.4,57.736,,,,NaN,,,,0 / 0,2362,2014-12-14 04:40:07:885
0.0883,-9.2477,5.3348,2.2369,-9.0488,3.0472,0.7015,6.7283,-1.6662,-1.978,0.8247,0.4019,0.0,-3.6,-18.7,-34.8,197.44,63.78,-26.03,0.4,57.736,,,,NaN,,,,0 / 0,2411,2014-12-14 04:40:07:934
3.6285,-17.4362,1.4514,1.2673,-9.2987,2.8458,2.3611,-8.1375,-1.3944,-1.9645,0.1833,0.3115,0.0,-2.3,-13.9,-26.5,208.7,67.33,-36.28,0.4,57.736,,,,NaN,,,,0 / 0,2462,2014-12-14 04:40:07:985
0.1961,-3.6971,-0.7159,1.758,-9.5147,1.5967,-1.5619,5.8176,-2.3126,-2.1991,1.2694,-0.2065,0.0,-2.7,-12.6,-23.6,196.89,72.92,-25.95,0.4,57.736,,,,NaN,,,,0 / 0,2512,2014-12-14 04:40:08:035
0.1961,-3.6971,-0.7159,1.758,-9.5147,1.5967,-1.5619,5.8176,-2.3126,-2.1991,1.2694,-0.2065,0.0,-2.7,-12.6,-23.6,196.89,72.92,-25.95,0.4,57.736,,,,NaN,,,,0 / 0,2561,2014-12-14 04:40:08:084
-0.912,-17.9658,-2.7851,1.6463,-9.6663,0.1489,-2.5584,-8.2995,-2.934,-2.2981,0.6756,-0.3677,0.0,-3.1,-11.3,-16.8,249.26,80.3,-84.83,0.4,57.736,,,,NaN,,,,0 / 0,2611,2014-12-14 04:40:08:134
-0.912,-17.9658,-2.7851,1.6463,-9.6663,0.1489,-2.5584,-8.2995,-2.934,-2.2981,0.6756,-0.3677,0.0,-3.1,-11.3,-16.8,249.26,80.3,-84.83,0.4,57.736,,,,NaN,,,,0 / 0,2689,2014-12-14 04:40:08:212
-0.912,-17.9658,-2.7851,1.6463,-9.6663,0.1489,-2.5584,-8.2995,-2.934,-2.2981,0.6756,-0.3677,0.0,-3.1,-11.3,-16.8,249.26,80.3,-84.83,0.4,57.736,,,,NaN,,,,0 / 0,2712,2014-12-14 04:40:08:235
-1.4318,-18.0737,-2.4909,1.5548,-9.6817,-0.1354,-2.9866,-8.392,-2.3555,-1.9487,0.3824,-0.2883,0.0,-3.1,-10.8,-14.8,257.33,80.84,-94.98,0.4,57.736,,,,NaN,,,,0 / 0,2762,2014-12-14 04:40:08:285
-2.2555,-16.2006,-1.167,1.4664,-9.6884,-0.3948,-3.7219,-6.5122,-0.7722,-1.5553,0.1869,-0.2651,0.0,-3.6,-11.3,-13.8,257.33,80.84,-94.98,0.4,69.828,,,,NaN,,,,0 / 0,2811,2014-12-14 04:40:08:334
-3.0597,-10.6598,0.1079,1.2863,-9.6922,-0.7599,-4.346,-0.9677,0.8678,-1.3268,0.2724,-0.3091,0.0,-4.0,-10.8,-12.4,274.41,81.24,-120.57,0.4,69.828,,,,NaN,,,,0 / 0,2862,2014-12-14 04:40:08:385
-3.0597,-10.6598,0.1079,1.2863,-9.6922,-0.7599,-4.346,-0.9677,0.8678,-1.3268,0.2724,-0.3091,0.0,-4.0,-10.8,-12.4,274.41,81.24,-120.57,0.4,69.828,,,,NaN,,,,0 / 0,2911,2014-12-14 04:40:08:434
-1.9221,-10.2283,-0.1961,1.2863,-9.6922,-0.7599,-4.346,-0.9677,0.8678,-1.3268,0.2724,-0.3091,0.0,-4.0,-10.8,-12.4,274.41,81.24,-120.57,0.4,69.828,,,,NaN,,,,0 / 0,2961,2014-12-14 04:40:08:484
-1.9221,-10.2283,-0.1961,0.9257,-9.6687,-1.3529,-2.8478,-0.5597,1.1568,-1.7006,-0.0171,-0.1686,0.0,-4.4,-10.4,-8.5,288.47,80.38,-145.62,0.4,69.828,,,,NaN,,,,0 / 0,3011,2014-12-14 04:40:08:534
-1.1768,-11.0521,-0.1275,0.7694,-9.6385,-1.6366,-1.9462,-1.4136,1.5091,-1.5259,-0.4129,-0.1368,0.0,-4.4,-10.4,-6.5,286.43,79.37,-154.82,0.4,69.828,,,,NaN,,,,0 / 0,3062,2014-12-14 04:40:08:585
-0.1667,-8.8456,-0.7551,0.9298,-9.5888,-1.8331,-1.0965,0.7432,1.078,-0.6072,0.474,-0.1967,0.0,-7.5,-10.8,0.8,286.43,79.37,-154.82,0.4,69.828,,,,NaN,,,,0 / 0,3111,2014-12-14 04:40:08:634
-0.9512,-13.4743,0.657,0.9798,-9.4783,-2.3176,-1.931,-3.996,2.9747,-0.3396,-0.1246,-0.5034,0.0,-8.8,-11.3,2.8,217.79,76.54,-155.08,0.4,69.828,,,,NaN,,,,0 / 0,3161,2014-12-14 04:40:08:684
2.8047,-13.4057,3.8344,1.2842,-9.7186,-0.2635,1.5205,-3.6871,4.0979,1.6041,0.2712,-0.0134,0.0,-10.1,-12.1,4.7,217.79,76.54,-155.08,0.4,69.828,,,,NaN,,,,0 / 0,3211,2014-12-14 04:40:08:734
-2.6184,-15.1513,-1.8633,0.9868,-9.5638,1.9314,-3.6052,-5.5875,-3.7946,2.7501,-0.2896,0.6878,0.0,-15.3,-10.0,-9.4,177.64,81.98,-79.83,0.4,69.828,,,,NaN,,,,0 / 0,3262,2014-12-14 04:40:08:785
1.9221,-9.6105,-0.0196,0.4975,-9.3895,2.7857,2.317,-1.1036,-4.7862,2.9444,-1.5565,1.1704,0.0,-14.0,-8.7,-21.6,158.9,73.23,-10.13,0.4,69.828,,,,NaN,,,,0 / 0,3312,2014-12-14 04:40:08:835
0.7159,-4.3247,-0.3236,1.0444,-8.9004,3.9828,-0.3285,4.5757,-4.3064,2.6316,-1.2999,0.3677,0.0,-14.4,-10.0,-31.4,158.9,73.23,-10.13,0.4,69.828,,,,NaN,,,,0 / 0,3361,2014-12-14 04:40:08:884
0.8826,-3.246,-0.2157,1.2014,-8.7867,4.1859,-0.3188,5.5407,-4.4016,1.8436,-0.9713,0.1564,0.0,-15.7,-11.7,-36.8,172.38,64.08,-15.54,0.4,69.828,,,,NaN,,,,0 / 0,3411,2014-12-14 04:40:08:934
2.2457,-1.7358,0.5394,1.555,-8.7163,4.2165,0.6907,6.9805,-3.6771,0.595,-0.7074,-0.0611,0.0,-17.5,-13.0,-38.7,176.78,62.72,-20.24,0.4,59.42,,,,NaN,,,,0 / 0,3462,2014-12-14 04:40:08:985
2.3242,-0.4609,1.2847,2.0456,-8.6986,4.0399,0.6904,8.679,-2.5983,-0.4508,-0.6096,-0.0208,0.0,-18.3,-12.6,-38.7,176.78,62.72,-20.24,0.4,59.42,,,,NaN,,,,0 / 0,3512,2014-12-14 04:40:09:035
2.2751,-2.9028,1.2945,2.8416,-8.7361,3.4317,-0.5664,5.8333,-2.1372,-2.4691,1.6261,0.182,0.0,-15.7,-7.8,-31.4,189.15,62.6,-35.7,0.4,59.42,,,,NaN,,,,0 / 0,3561,2014-12-14 04:40:09:084
1.2553,-6.3449,4.0698,2.9041,-8.7824,3.2567,-1.6489,2.4375,0.8131,-1.9743,1.9597,0.2749,0.0,-14.9,-6.9,-30.9,196.06,63.58,-41.72,0.4,59.42,,,,NaN,,,,0 / 0,3612,2014-12-14 04:40:09:135
-2.8439,-18.4365,4.364,2.5267,-8.9742,3.0413,-5.3706,-9.4623,1.3227,-2.2419,1.0201,-0.4679,0.0,-13.1,-3.4,-25.1,196.06,63.58,-41.72,0.4,59.42,,,,NaN,,,,0 / 0,3662,2014-12-14 04:40:09:185
2.0398,-3.3539,-1.0591,1.8009,-9.321,2.4588,5.054,-0.2208,-1.635,-0.8845,0.8589,-0.1918,0.0,-14.4,-2.6,-23.1,184.96,71.89,-36.22,0.4,59.42,,,,NaN,,,,0 / 0,3712,2014-12-14 04:40:09:235
2.0398,-3.3539,-1.0591,2.2503,-9.3719,1.8092,-0.2105,6.0181,-2.8683,-1.9572,1.5015,-0.4019,0.0,-14.0,-2.1,-20.2,184.96,71.89,-36.22,0.4,59.42,,,,NaN,,,,0 / 0,3761,2014-12-14 04:40:09:284
-0.2746,-15.112,-1.5691,2.4814,-9.4589,0.7359,-2.756,-5.6531,-2.305,-2.0293,0.4814,-0.3531,0.0,-14.9,-1.3,-15.3,209.0,74.7,-73.48,0.4,59.42,,,,NaN,,,,0 / 0,3811,2014-12-14 04:40:09:334
-2.9028,-9.6497,0.1765,1.1366,-9.6716,-1.1572,-4.0393,0.0218,1.3337,-1.438,0.055,-0.1319,0.0,-16.2,-0.4,-3.6,239.9,80.48,-135.51,0.4,59.42,,,,NaN,,,,0 / 0,3862,2014-12-14 04:40:09:385
1.1572,-10.0322,0.1275,1.0318,-9.6701,-1.2626,0.1254,-0.3621,1.3901,-0.4337,0.4814,0.0635,0.0,-18.3,-1.3,1.3,227.57,80.43,-140.74,0.4,59.42,,,,NaN,,,,0 / 0,3911,2014-12-14 04:40:09:434
0.8336,-9.5517,-0.0588,1.0318,-9.6701,-1.2626,0.1254,-0.3621,1.3901,-0.474,0.7159,0.1527,0.0,-18.3,-1.3,1.3,227.57,80.43,-140.74,0.4,59.42,,,,NaN,,,,0 / 0,3961,2014-12-14 04:40:09:484
0.6767,-9.4928,-1.0101,1.1075,-9.654,-1.3205,-0.4308,0.1612,0.3104,-0.5241,0.6035,-0.1051,0.0,-18.3,-1.3,2.8,223.24,80.35,-139.91,0.4,59.42,,,,NaN,,,,0 / 0,4018,2014-12-14 04:40:09:541
-0.3727,-11.1207,-1.9907,1.2009,-9.5636,-1.8071,-1.5735,-1.5571,-0.1837,-0.5241,0.6035,-0.1051,0.0,-18.3,-1.3,2.8,223.24,80.35,-139.91,0.4,70.045,,,,NaN,,,,0 / 0,4061,2014-12-14 04:40:09:584
-0.3825,-13.1311,0.5198,1.162,-9.524,-2.028,-1.5444,-3.6071,2.5478,-0.4288,-0.3384,-0.7245,0.0,-23.1,-3.4,9.1,219.43,76.16,-149.72,0.4,70.045,,,,NaN,,,,0 / 0,4111,2014-12-14 04:40:09:634
1.6377,-13.8862,2.6772,1.19,-9.6693,-1.1222,0.4478,-4.2169,3.7995,1.5247,0.3299,-0.1038,0.0,-24.9,-3.0,6.7,207.5,80.4,-133.32,0.4,70.045,,,,NaN,,,,0 / 0,4162,2014-12-14 04:40:09:685
1.3925,-13.3174,5.2171,1.44,-9.698,0.2116,-0.0475,-3.6194,5.0056,1.5553,-0.2822,0.0098,0.0,-25.7,-1.3,0.8,169.38,81.46,-81.64,0.4,70.045,,,,NaN,,,,0 / 0,4211,2014-12-14 04:40:09:734
-3.4029,-15.0238,0.0981,1.0025,-9.6136,1.6567,-3.16,-5.6064,-2.7649,2.7587,-0.3751,0.5217,0.0,-25.3,0.5,-6.0,169.38,81.46,-81.64,0.4,70.045,,,,NaN,,,,0 / 0,4262,2014-12-14 04:40:09:785
4.6287,-12.121,-2.1378,0.727,-9.5181,2.2465,3.9409,-2.5735,-4.5707,2.6438,-0.887,0.8589,0.0,-24.0,1.8,-17.2,141.83,76.07,-17.93,0.4,70.045,,,,NaN,,,,0 / 0,4312,2014-12-14 04:40:09:835
0.5099,-8.9535,0.6178,0.9713,-9.2287,3.1715,-0.4613,0.2752,-2.5537,2.6793,-1.0812,0.7807,0.0,-21.8,-0.4,-35.3,163.97,70.23,-17.03,0.4,70.045,,,,NaN,,,,0 / 0,4361,2014-12-14 04:40:09:884
0.5099,-7.4629,0.5884,0.9363,-9.1335,3.4457,-0.4263,1.6706,-2.8573,2.5119,-1.058,0.4765,0.0,-22.3,-1.7,-38.7,163.97,70.23,-17.03,0.4,70.045,,,,NaN,,,,0 / 0,4412,2014-12-14 04:40:09:935
1.4122,-4.1776,0.4217,1.0081,-8.8031,4.2022,0.404,4.6255,-3.7805,1.9035,-0.8283,0.2028,0.0,-24.0,-7.4,-48.0,166.36,63.85,-13.49,0.4,70.045,,,,NaN,,,,0 / 0,4461,2014-12-14 04:40:09:984
2.0398,-3.1479,1.0395,1.1639,-8.7277,4.3178,0.1363,6.4407,-3.4407,1.9035,-0.8283,0.2028,0.0,-24.0,-7.4,-48.0,166.36,63.85,-13.49,0.4,59.441,,,,NaN,,,,0 / 0,4512,2014-12-14 04:40:10:035
1.5004,-0.7845,1.4612,1.7218,-8.6302,4.3273,-0.2213,7.8457,-2.8661,-0.0672,-0.5571,0.0611,0.0,-26.2,-10.8,-50.4,174.06,61.65,-21.7,0.4,59.441,,,,NaN,,,,0 / 0,4561,2014-12-14 04:40:10:084
1.5887,-6.139,5.1779,2.5049,-8.5807,4.0333,-0.9162,2.4417,1.1446,-2.1319,1.543,0.2602,0.0,-21.8,-3.4,-46.0,186.95,61.04,-31.84,0.4,59.441,,,,NaN,,,,0 / 0,4612,2014-12-14 04:40:10:135
2.9028,-16.0731,0.7747,1.3555,-8.9987,3.6547,1.5473,-7.0744,-2.88,-1.2572,1.956,0.2028,0.0,-21.0,-3.0,-45.5,186.95,61.04,-31.84,0.4,59.441,,,,NaN,,,,0 / 0,4661,2014-12-14 04:40:10:184
4.9426,-4.9131,0.9807,1.5035,-9.2567,2.8676,3.439,4.3436,-1.8869,-1.4478,0.8076,-0.1442,0.0,-20.5,0.9,-40.2,173.17,66.58,-20.35,0.4,59.441,,,,NaN,,,,0 / 0,4712,2014-12-14 04:40:10:235
3.5794,-3.4323,1.2945,1.6297,-9.2998,2.651,1.9498,5.8675,-1.3565,-1.7434,1.2486,-0.077,0.0,-20.5,2.2,-38.2,173.17,66.58,-20.35,0.4,59.441,,,,NaN,,,,0 / 0,4762,2014-12-14 04:40:10:285
-1.6769,-15.8279,-0.7453,1.7138,-9.6152,0.8838,-3.3908,-6.2127,-1.6291,-2.1075,1.3341,-0.3629,0.0,-17.9,6.1,-32.4,204.66,76.38,-52.47,0.4,59.441,,,,NaN,,,,0 / 0,4811,2014-12-14 04:40:10:334
-2.3046,-8.3945,0.1079,1.0182,-9.7361,-0.5849,-3.7935,0.8611,0.477,-1.7446,0.4716,-0.0525,0.0,-19.2,8.3,-21.6,216.94,79.67,-68.47,0.4,59.441,,,,NaN,,,,0 / 0,4862,2014-12-14 04:40:10:385
-2.893,-9.1594,-0.0686,0.9119,-9.7348,-0.7563,-3.8049,0.5754,0.6877,-1.6884,0.2443,-0.0086,0.0,-19.7,8.7,-20.7,268.25,83.06,-129.67,0.4,59.441,,,,NaN,,,,0 / 0,4912,2014-12-14 04:40:10:435
0.9807,-9.7478,1.1964,0.516,-9.7011,-1.3389,0.4647,-0.0467,2.5354,-1.5504,0.2089,-0.0574,0.0,-19.7,8.7,-18.7,268.25,83.06,-129.67,0.4,68.16,,,,NaN,,,,0 / 0,4961,2014-12-14 04:40:10:484
-0.1667,-10.552,-0.2648,0.6713,-9.6902,-1.349,-0.838,-0.8618,1.0842,-0.3714,0.2932,-0.0244,0.0,-19.7,8.7,-9.0,271.41,81.16,-153.55,0.4,68.16,,,,NaN,,,,0 / 0,5202,2014-12-14 04:40:10:725
-0.1667,-10.552,-0.2648,0.6713,-9.6902,-1.349,-0.838,-0.8618,1.0842,-0.3714,0.2932,-0.0244,0.0,-19.7,8.7,-9.0,271.41,81.16,-153.55,0.4,68.16,,,,NaN,,,,0 / 0,5204,2014-12-14 04:40:10:727
-0.1667,-10.552,-0.2648,0.6713,-9.6902,-1.349,-0.838,-0.8618,1.0842,-0.3714,0.2932,-0.0244,0.0,-19.7,8.7,-9.0,271.41,81.16,-153.55,0.4,68.16,,,,NaN,,,,0 / 0,5205,2014-12-14 04:40:10:728
-0.1667,-10.552,-0.2648,0.6713,-9.6902,-1.349,-0.838,-0.8618,1.0842,-0.3714,0.2932,-0.0244,0.0,-19.7,8.7,-9.0,271.41,81.16,-153.55,0.4,68.16,,,,NaN,,,,0 / 0,5207,2014-12-14 04:40:10:730
-0.1667,-10.552,-0.2648,0.6713,-9.6902,-1.349,-0.838,-0.8618,1.0842,-0.3714,0.2932,-0.0244,0.0,-19.7,8.7,-9.0,271.41,81.16,-153.55,0.4,68.16,,,,NaN,,,,0 / 0,5212,2014-12-14 04:40:10:735
0.8826,-11.2875,-1.4514,0.6717,-9.6866,-1.3743,-0.456,-0.9046,-0.538,-0.3885,0.1649,-0.2334,0.0,-20.5,7.9,-8.0,271.41,81.16,-153.55,0.4,68.16,,,,NaN,,,,0 / 0,5261,2014-12-14 04:40:10:784
3.0008,-12.1406,2.0104,0.8911,-9.5784,-1.9055,-1.0579,-3.9156,1.5426,0.2456,0.5608,-0.2443,0.0,-24.0,3.9,-6.0,261.19,77.61,-154.94,0.4,68.16,,,,NaN,,,,0 / 0,5311,2014-12-14 04:40:10:834
1.1082,-12.5427,2.9812,1.3222,-9.7013,-0.554,-0.2141,-2.8414,3.5353,1.6029,-0.0977,-0.0916,0.0,-24.4,2.6,-14.3,234.02,81.59,-112.73,0.4,68.16,,,,NaN,,,,0 / 0,5361,2014-12-14 04:40:10:884
0.2256,-12.6506,3.4912,1.3511,-9.7087,-0.2943,-1.1255,-2.9419,3.7855,1.7874,-0.4496,-0.0354,0.0,-24.4,1.8,-15.3,234.02,81.59,-112.73,0.4,58.034,,,,NaN,,,,0 / 0,5411,2014-12-14 04:40:10:934
2.4615,-6.9431,-2.7066,1.0328,-9.6563,1.3634,2.3211,-0.0719,-3.9818,1.4954,0.5999,0.0929,0.0,-24.0,-2.6,-27.5,175.51,79.96,-37.14,0.4,58.034,,,,NaN,,,,0 / 0,5462,2014-12-14 04:40:10:985
1.0395,-6.5214,-2.2555,1.2429,-9.6334,1.3499,-0.2034,3.112,-3.6054,1.1985,-0.766,0.5925,0.0,-22.7,-5.6,-34.8,189.24,79.22,-42.64,0.4,58.034,,,,NaN,,,,0 / 0,5512,2014-12-14 04:40:11:035
-0.7551,-5.629,-0.9905,1.039,-9.6723,1.2398,-1.7941,4.0433,-2.2303,0.8662,-0.5095,0.1906,0.0,-22.7,-7.4,-36.8,187.99,80.51,-39.96,0.4,58.034,,,,NaN,,,,0 / 0,5561,2014-12-14 04:40:11:084
0.7551,-5.0406,-1.6966,0.8017,-9.7196,1.0281,-0.0466,4.679,-2.7247,0.0513,-0.3189,0.3152,0.0,-22.7,-8.2,-37.2,185.99,82.36,-37.95,0.4,58.034,,,,NaN,,,,0 / 0,5611,2014-12-14 04:40:11:134
1.9319,-4.6385,-1.6573,0.8109,-9.7726,0.099,1.121,5.134,-1.7563,-0.7013,0.0599,0.5473,0.0,-20.5,-7.4,-34.8,232.73,85.22,-83.04,0.4,58.034,,,,NaN,,,,0 / 0,5662,2014-12-14 04:40:11:185
2.638,-5.5506,-1.1082,1.0728,-9.712,-0.8348,1.5652,4.1614,-0.2733,-1.113,-0.3311,0.1319,0.0,-19.2,-6.1,-34.3,232.73,85.22,-83.04,0.4,58.034,,,,NaN,,,,0 / 0,5711,2014-12-14 04:40:11:234
-2.6478,-17.6127,11.3561,1.4852,-9.6451,-0.9683,-4.133,-7.9677,12.3244,-0.4643,-1.5858,-0.1625,0.0,-19.2,-3.9,-28.0,276.06,82.03,-127.89,0.4,58.034,,,,NaN,,,,0 / 0,5761,2014-12-14 04:40:11:284
1.7848,-18.8092,8.0807,1.3782,-9.6944,-0.5381,0.4066,-9.1148,8.6188,0.5131,-1.5638,-0.4362,0.0,-20.1,-4.3,-27.5,253.97,81.32,-111.33,0.4,57.927,,,,NaN,,,,0 / 0,5812,2014-12-14 04:40:11:335
5.3544,-4.3836,0.8924,2.0593,-9.5725,0.5457,3.2951,5.1889,0.3467,-0.2883,0.7672,-0.0489,0.0,-21.0,-5.6,-30.9,253.97,81.32,-111.33,0.4,57.927,,,,NaN,,,,0 / 0,5861,2014-12-14 04:40:11:384
2.6968,-6.0213,-0.1373,2.3965,-9.4975,0.4745,0.3003,3.4762,-0.6118,-0.9187,1.1093,0.0513,0.0,-21.0,-5.2,-30.4,223.37,75.57,-78.8,0.4,57.927,,,,NaN,,,,0 / 0,5911,2014-12-14 04:40:11:434
-7.4531,-12.7486,0.7943,1.7139,-9.6434,-0.4877,-9.167,-3.1052,1.282,-0.3286,-0.4618,0.259,0.0,-19.2,-3.4,-27.5,250.15,79.53,-105.88,0.4,57.927,,,,NaN,,,,0 / 0,5962,2014-12-14 04:40:11:485
3.8246,-9.5026,0.9512,0.566,-9.7893,-0.1401,3.2586,0.2867,1.0913,-0.0171,-0.6854,-0.1381,0.0,-20.1,-3.4,-27.0,247.13,86.59,-103.9,0.4,57.927,,,,NaN,,,,0 / 0,6011,2014-12-14 04:40:11:534
1.4612,-9.8459,0.9218,1.4095,-9.7046,0.0595,0.0517,-0.1412,0.8623,-0.2871,0.3152,0.1515,0.0,-21.0,-3.4,-25.5,247.13,86.59,-103.9,0.4,57.927,,,,NaN,,,,0 / 0,6061,2014-12-14 04:40:11:584
0.2844,-10.0714,0.9022,1.327,-9.7161,0.088,-1.0426,-0.3554,0.8143,-0.0672,0.6622,0.2309,0.0,-20.5,-3.0,-24.1,226.13,82.21,-86.21,0.4,57.927,,,,NaN,,,,0 / 0,6111,2014-12-14 04:40:11:634
0.0294,-9.6596,1.3043,1.1168,-9.7394,0.2602,-1.0874,0.0798,1.044,0.2883,0.0367,0.0403,0.0,-19.7,-3.0,-26.0,219.12,83.28,-76.88,0.4,57.927,,,,NaN,,,,0 / 0,6162,2014-12-14 04:40:11:685
0.2059,-10.042,1.3631,0.9938,-9.7449,0.4694,-0.8219,-0.5033,0.7912,0.1271,0.1637,0.0403,0.0,-19.7,-2.6,-26.5,207.03,83.56,-64.72,0.4,57.927,,,,NaN,,,,0 / 0,6212,2014-12-14 04:40:11:735
-0.0883,-10.1499,0.7257,0.8995,-9.7481,0.579,-0.9878,-0.4018,0.1467,0.16,0.2321,0.0586,0.0,-19.2,-2.6,-26.5,207.03,83.56,-64.72,0.4,57.927,,,,NaN,,,,0 / 0,6262,2014-12-14 04:40:11:785
0.1569,-9.7478,0.4609,0.7337,-9.7645,0.5358,-0.4493,-0.15,-0.1043,0.16,0.2321,0.0586,0.0,-19.2,-2.6,-27.5,198.65,84.68,-53.86,0.4,65.633,,,,NaN,,,,0 / 0,6311,2014-12-14 04:40:11:834
0.304,-9.9832,0.4903,0.7337,-9.7645,0.5358,-0.4493,-0.15,-0.1043,0.0098,-0.1283,0.0476,0.0,-19.2,-2.6,-27.5,198.65,84.68,-53.86,0.4,65.633,,,,NaN,,,,0 / 0,6361,2014-12-14 04:40:11:884
0.3923,-9.9734,0.9807,0.689,-9.7723,0.445,-0.2967,-0.2011,0.5357,-0.0134,-0.0599,0.0354,0.0,-19.2,-2.6,-26.0,200.89,85.2,-57.14,0.4,65.633,,,,NaN,,,,0 / 0,6411,2014-12-14 04:40:11:934
0.1275,-9.787,0.9414,0.6631,-9.7744,0.4375,-0.5055,0.0062,0.4913,-0.0464,-0.0391,0.0452,0.0,-18.8,-2.1,-27.0,201.97,85.2,-57.14,0.4,65.633,,,,NaN,,,,0 / 0,6461,2014-12-14 04:40:11:984
0.1471,-9.8753,0.9512,0.5866,-9.7791,0.4412,-0.4395,-0.0962,0.5101,-0.0208,-0.0073,0.0721,0.0,-19.7,-2.1,-26.0,195.46,85.71,-53.05,0.4,65.633,,,,NaN,,,,0 / 0,6512,2014-12-14 04:40:12:035
0.2157,-9.7772,0.6767,0.5555,-9.781,0.4405,-0.2907,-0.0355,0.2459,-0.0305,-0.0195,0.0415,0.0,-18.8,-1.3,-25.5,195.46,85.71,-53.05,0.4,65.633,,,,NaN,,,,0 / 0,6561,2014-12-14 04:40:12:084
0.0981,-10.0224,1.0297,0.5513,-9.7819,0.4251,-0.4532,-0.2405,0.6046,-0.1283,-0.1991,0.0147,0.0,-18.8,-1.7,-25.5,195.1,85.93,-52.37,0.4,65.633,,,,NaN,,,,0 / 0,6611,2014-12-14 04:40:12:134
0.2059,-9.8851,0.6767,0.4999,-9.7852,0.413,-0.2939,-0.0999,0.2636,-0.0941,-0.055,0.0354,0.0,-19.2,-1.3,-25.1,193.2,86.21,-50.43,0.4,65.633,,,,NaN,,,,0 / 0,6662,2014-12-14 04:40:12:185
0.1471,-9.9145,0.7355,0.4952,-9.7867,0.3807,-0.3481,-0.1278,0.3548,-0.1038,-0.0867,0.0293,0.0,-18.8,-1.3,-24.6,193.2,86.21,-50.43,0.4,65.633,,,,NaN,,,,0 / 0,6716,2014-12-14 04:40:12:239