ACCELEROMETER X (m/s²),ACCELEROMETER Y (m/s²),ACCELEROMETER Z (m/s²),GRAVITY X (m/s²),GRAVITY Y (m/s²),GRAVITY Z (m/s²),LINEAR ACCELERATION X (m/s²),LINEAR ACCELERATION Y (m/s²),LINEAR ACCELERATION Z (m/s²),GYROSCOPE X (rad/s),GYROSCOPE Y (rad/s),GYROSCOPE Z (rad/s),LIGHT (lux),MAGNETIC FIELD X (μT),MAGNETIC FIELD Y (μT),MAGNETIC FIELD Z (μT),ORIENTATION X (°),ORIENTATION Y (°),ORIENTATION Z (°),PROXIMITY (i),SOUND LEVEL (dB),LOCATION Latitude : ,LOCATION Longitude : ,LOCATION Altitude ( m),LOCATION Altitude-google ( m),LOCATION Speed ( Kmh),LOCATION Accuracy ( m),LOCATION ORIENTATION (°),Satellites in range,Time since start in ms ,YYYY-MO-DD HH-MI-SS_SSS
0.2354,-9.8557,0.814,-1.5219,-9.3925,2.3739,1.7573,-0.4632,-1.56,0.7563,0.7123,0.6573,0.0,-5.5,-26.3,11.7,334.64,73.29,32.66,0.4,54.929,,,,NaN,,,,0 / 0,9,2014-12-14 04:36:25:991
0.2354,-9.8557,0.814,-1.5219,-9.3925,2.3739,1.7573,-0.4632,-1.56,0.7563,0.7123,0.6573,0.0,-5.5,-26.3,11.7,334.64,73.29,32.66,0.4,54.929,,,,NaN,,,,0 / 0,60,2014-12-14 04:36:26:042
0.304,-9.9538,0.8826,-1.5267,-9.3927,2.37,1.8503,-0.463,-1.4874,0.7526,0.6976,0.6597,0.0,-6.4,-26.3,11.7,344.66,73.29,32.79,0.4,54.929,,,,NaN,,,,0 / 0,109,2014-12-14 04:36:26:091
0.304,-9.9636,0.8434,-1.5261,-9.3927,2.3705,1.8007,-0.5317,-1.5075,0.7538,0.6903,0.6646,0.0,-6.0,-26.3,11.7,344.66,73.29,32.79,0.4,54.929,,,,NaN,,,,0 / 0,160,2014-12-14 04:36:26:142
0.2452,-10.042,0.8238,-1.5229,-9.3948,2.364,1.8073,-0.6178,-1.5697,0.7538,0.7159,0.6707,0.0,-6.0,-26.7,12.2,343.88,73.34,32.79,0.4,54.929,,,,NaN,,,,0 / 0,210,2014-12-14 04:36:26:192
0.1863,-9.9341,0.8532,-1.5506,-9.3906,2.3629,1.7467,-0.5632,-1.5195,0.7636,0.6781,0.6756,0.0,-6.0,-25.9,11.2,348.27,73.32,32.89,0.4,54.929,,,,NaN,,,,0 / 0,260,2014-12-14 04:36:26:242
0.2942,-9.8557,0.863,-1.5671,-9.3886,2.3598,1.8613,-0.4671,-1.4968,0.7599,0.6744,0.6707,0.0,-6.0,-25.9,11.7,348.27,73.32,32.89,0.4,39.493,,,,NaN,,,,0 / 0,310,2014-12-14 04:36:26:292
0.1765,-10.0224,0.8924,-1.5597,-9.3857,2.3761,1.7362,-0.6367,-1.4837,0.777,0.672,0.6891,0.0,-6.0,-26.3,12.7,332.48,73.2,33.5,0.4,39.493,,,,NaN,,,,0 / 0,360,2014-12-14 04:36:26:342
0.5099,-9.6301,1.0493,-1.5573,-9.3803,2.399,2.0672,-0.2498,-1.3497,0.7831,0.7013,0.6658,0.0,-5.5,-26.3,12.2,333.28,73.04,32.99,0.4,39.493,,,,NaN,,,,0 / 0,410,2014-12-14 04:36:26:392
0.5099,-9.6301,1.0493,-1.5573,-9.3803,2.399,2.0672,-0.2498,-1.3497,0.7831,0.7013,0.6658,0.0,-5.5,-26.3,12.2,333.28,73.04,32.99,0.4,39.493,,,,NaN,,,,0 / 0,459,2014-12-14 04:36:26:441
-0.2059,-9.8949,0.9905,-1.548,-9.3586,2.4883,1.342,-0.5364,-1.4978,0.7355,0.6805,0.6219,0.0,-6.0,-25.9,12.2,345.97,72.61,31.89,0.4,39.493,,,,NaN,,,,0 / 0,510,2014-12-14 04:36:26:492
-0.4511,-10.2578,1.0297,-1.5635,-9.3865,2.3704,1.1124,-0.8712,-1.3407,0.5571,0.8222,0.4911,0.0,-6.4,-26.3,12.2,342.98,73.17,33.41,0.4,39.493,,,,NaN,,,,0 / 0,559,2014-12-14 04:36:26:541
-0.0392,-9.8753,1.0591,-1.6312,-9.395,2.2898,1.592,-0.4803,-1.2307,0.6671,0.6793,0.4765,0.0,-6.4,-26.3,12.2,338.56,73.43,35.47,0.4,39.493,,,,NaN,,,,0 / 0,609,2014-12-14 04:36:26:591
-0.0588,-9.9341,0.9807,-1.6278,-9.3931,2.3,1.569,-0.541,-1.3194,0.722,0.7611,0.4826,0.0,-6.8,-26.3,13.6,342.1,73.3,35.29,0.4,39.493,,,,NaN,,,,0 / 0,660,2014-12-14 04:36:26:642
-0.4511,-9.8263,0.8434,-1.6212,-9.3915,2.3113,1.1701,-0.4348,-1.4679,0.7062,0.7391,0.4899,0.0,-6.8,-26.7,13.1,342.1,73.3,35.29,0.4,39.493,,,,NaN,,,,0 / 0,710,2014-12-14 04:36:26:692
0.0098,-9.9047,0.6865,-1.6291,-9.3914,2.3059,1.1682,-0.4741,-1.492,0.7037,0.7526,0.4728,0.0,-7.3,-26.7,13.6,341.47,73.27,35.24,0.4,51.644,,,,NaN,,,,0 / 0,760,2014-12-14 04:36:26:742
0.0883,-9.8851,0.8238,-1.5588,-9.4244,2.2184,1.6471,-0.4607,-1.3947,0.6439,0.6695,0.4007,0.0,-7.7,-26.7,14.6,348.21,73.71,35.56,0.4,51.644,,,,NaN,,,,0 / 0,809,2014-12-14 04:36:26:791
0.4609,-10.0028,1.2454,-1.5588,-9.4244,2.2184,1.6471,-0.4607,-1.3947,0.6439,0.6695,0.4007,0.0,-7.7,-26.7,14.6,348.21,73.71,35.56,0.4,51.644,,,,NaN,,,,0 / 0,859,2014-12-14 04:36:26:841
0.2648,-9.8851,1.8927,-1.3584,-9.4387,2.2884,1.6231,-0.4464,-0.3957,0.6585,0.7709,0.4594,0.0,-8.6,-27.6,15.1,0.84,74.35,32.29,0.4,51.644,,,,NaN,,,,0 / 0,909,2014-12-14 04:36:26:891
0.6472,-11.3953,2.2065,-1.2697,-9.3747,2.5832,1.917,-2.0206,-0.3767,0.9957,0.6536,0.5815,0.0,-8.6,-28.1,14.6,9.81,72.93,26.18,0.4,51.644,,,,NaN,,,,0 / 0,960,2014-12-14 04:36:26:942
0.9807,-12.2975,1.9025,-1.2276,-9.3342,2.7453,2.2083,-2.9634,-0.8428,1.2413,0.606,0.6243,0.0,-8.6,-27.6,15.1,9.81,72.93,26.18,0.4,51.644,,,,NaN,,,,0 / 0,1010,2014-12-14 04:36:26:992
0.2746,-13.4547,3.9129,-1.0461,-9.0795,3.5551,1.3207,-4.3752,0.3578,1.7886,0.0538,0.821,0.0,-9.0,-28.5,13.6,22.35,71.75,23.04,0.4,51.644,,,,NaN,,,,0 / 0,1060,2014-12-14 04:36:27:042
0.5099,-13.5528,4.2169,-1.0335,-8.9186,3.9447,1.5435,-4.6342,0.2722,2.5766,-0.0305,0.8259,0.0,-8.6,-29.4,11.7,22.35,71.75,23.04,0.4,51.644,,,,NaN,,,,0 / 0,1110,2014-12-14 04:36:27:092
1.8633,-10.6598,3.4323,-0.6105,-8.1846,5.3674,2.4737,-2.4752,-1.9351,2.9529,-0.5999,0.9847,0.0,-7.3,-30.7,6.8,112.68,62.92,12.94,0.4,42.596,,,,NaN,,,,0 / 0,1159,2014-12-14 04:36:27:141
1.1474,-10.297,2.6772,-0.3632,-7.947,5.7344,0.8027,-2.0854,-3.6694,2.9529,-0.595,0.9517,0.0,-7.7,-31.5,5.8,149.48,54.13,3.62,0.4,42.596,,,,NaN,,,,0 / 0,1209,2014-12-14 04:36:27:191
1.7946,-6.4332,2.1869,-0.2327,-7.2929,6.5521,2.0273,0.8597,-4.3652,2.5302,-0.2175,0.8809,0.0,-7.3,-32.0,3.4,158.07,52.09,2.26,0.4,42.596,,,,NaN,,,,0 / 0,1259,2014-12-14 04:36:27:241
2.1084,-5.6094,2.5399,0.018,-7.0989,6.7657,2.0904,1.4895,-4.2258,2.3543,-0.0415,0.92,0.0,-7.3,-33.3,0.9,162.39,46.38,-0.15,0.4,42.596,,,,NaN,,,,0 / 0,1309,2014-12-14 04:36:27:291
1.726,-5.58,3.3441,0.6464,-6.7438,7.0903,1.0795,1.1639,-3.7463,1.664,0.4545,1.1484,0.0,-6.0,-33.7,0.0,162.39,46.38,-0.15,0.4,42.596,,,,NaN,,,,0 / 0,1359,2014-12-14 04:36:27:341
1.726,-5.58,3.3441,0.6464,-6.7438,7.0903,1.0795,1.1639,-3.7463,1.664,0.4545,1.1484,0.0,-6.0,-33.7,0.0,162.39,46.38,-0.15,0.4,42.596,,,,NaN,,,,0 / 0,1410,2014-12-14 04:36:27:392
1.4612,-3.8246,3.854,0.7255,-6.5535,7.2592,0.5771,2.7563,-3.1477,0.9749,0.4288,1.1509,0.0,-5.5,-32.8,-2.0,169.7,41.72,-5.67,0.4,42.596,,,,NaN,,,,0 / 0,1460,2014-12-14 04:36:27:442
3.0989,-11.7778,10.7873,0.5998,-6.6447,7.1874,2.4991,-5.1331,3.5999,0.5119,1.4795,0.7184,0.0,-3.8,-31.1,2.4,169.8,41.93,-5.71,0.4,42.596,,,,NaN,,,,0 / 0,1510,2014-12-14 04:36:27:492
3.4029,-7.8159,1.3043,-0.1326,-7.7713,5.98,3.5356,-0.0446,-4.6757,-1.003,1.4917,0.6487,0.0,-1.6,-29.4,5.8,171.77,52.41,1.27,0.4,42.596,,,,NaN,,,,0 / 0,1560,2014-12-14 04:36:27:542
3.4029,-7.8159,1.3043,-0.1326,-7.7713,5.98,3.5356,-0.0446,-4.6757,-1.003,1.4917,0.6487,0.0,-1.6,-29.4,5.8,171.77,52.41,1.27,0.4,65.965,,,,NaN,,,,0 / 0,1610,2014-12-14 04:36:27:592
-0.3432,-14.2491,0.5198,-0.7179,-8.9813,3.8717,0.3747,-5.2677,-3.352,-1.1472,1.9658,0.5681,0.0,-0.7,-28.1,13.6,314.29,66.33,10.5,0.4,65.965,,,,NaN,,,,0 / 0,1660,2014-12-14 04:36:27:642
-1.5396,-11.5326,-0.2942,-0.9274,-9.2883,3.0062,-0.6122,-2.2443,-3.3004,-0.9102,1.7837,0.369,0.0,-0.3,-27.6,15.6,319.38,71.29,17.15,0.4,65.965,,,,NaN,,,,0 / 0,1709,2014-12-14 04:36:27:691
-2.7459,-9.6988,-1.2062,-1.3729,-9.5601,1.7,-1.373,-0.1387,-2.9063,-1.2462,1.4441,0.3763,0.0,-1.2,-27.6,19.0,319.38,71.29,17.15,0.4,65.965,,,,NaN,,,,0 / 0,1759,2014-12-14 04:36:27:741
-2.0202,-10.7971,0.3628,-1.7335,-9.6272,0.6941,-0.2867,-1.1699,-0.3312,-0.5095,0.4545,0.3348,0.0,-1.6,-28.1,22.4,282.93,79.02,68.18,0.4,65.965,,,,NaN,,,,0 / 0,1810,2014-12-14 04:36:27:792
0.5001,-9.5321,0.7061,-1.7814,-9.6275,0.5557,2.2816,0.0954,0.1504,0.044,0.7013,0.4875,0.0,-1.6,-28.1,24.9,282.93,79.02,68.18,0.4,65.965,,,,NaN,,,,0 / 0,1859,2014-12-14 04:36:27:841
0.7943,-8.7966,0.6178,-1.7419,-9.6414,0.4246,2.544,0.8393,0.1096,0.0171,1.6408,0.832,0.0,-2.0,-27.6,26.3,278.87,79.29,73.8,0.4,65.965,,,,NaN,,,,0 / 0,1910,2014-12-14 04:36:27:892
-0.6276,-10.0616,-0.6963,-1.8266,-9.6261,0.4136,1.199,-0.4355,-1.1099,0.4154,1.5406,0.7049,0.0,-2.0,-27.2,27.3,276.4,79.42,76.66,0.4,65.965,,,,NaN,,,,0 / 0,1959,2014-12-14 04:36:27:941
-1.3435,-11.0325,-0.7845,-1.8171,-9.6345,0.2138,0.4736,-1.398,-0.9983,0.3128,1.014,0.3384,0.0,-2.5,-27.2,27.8,270.27,79.25,83.29,0.4,65.965,,,,NaN,,,,0 / 0,2009,2014-12-14 04:36:27:991
-0.608,-11.258,-1.7064,-1.7611,-9.6464,0.1225,1.1531,-1.6116,-1.8289,0.2517,0.7844,0.1344,0.0,-2.9,-27.6,28.8,270.27,79.25,83.29,0.4,65.965,,,,NaN,,,,0 / 0,2059,2014-12-14 04:36:28:041
0.7453,-15.1611,-2.5203,-1.1102,-9.7373,-0.3492,0.4826,-6.4142,0.7807,0.1295,1.0715,-0.0513,0.0,-4.2,-26.7,29.2,264.13,81.22,95.66,0.4,56.451,,,,NaN,,,,0 / 0,2109,2014-12-14 04:36:28:091
1.3337,-15.0728,2.1673,-1.0725,-9.7465,-0.1623,2.4062,-5.3263,2.3296,1.0873,1.2779,0.3677,0.0,-4.2,-27.2,29.2,263.44,83.65,98.61,0.4,56.451,,,,NaN,,,,0 / 0,2159,2014-12-14 04:36:28:141
0.6963,-12.6114,4.0403,-0.7904,-9.7293,0.9416,1.4867,-2.8821,3.0987,2.0391,0.5718,0.4166,0.0,-3.8,-25.9,27.8,324.01,82.8,40.01,0.4,56.451,,,,NaN,,,,0 / 0,2209,2014-12-14 04:36:28:191
-3.0401,-14.9159,0.8336,-1.0255,-9.4463,2.4261,-2.0146,-5.4696,-1.5926,3.0959,0.8625,0.9859,0.0,-1.6,-23.7,22.4,324.01,82.8,40.01,0.4,56.451,,,,NaN,,,,0 / 0,2259,2014-12-14 04:36:28:241
2.8145,-13.3763,1.2749,-1.6908,-9.0943,3.2566,4.5053,-4.282,-1.9818,3.3952,1.4551,1.2364,0.0,-0.7,-22.8,17.0,309.93,68.03,27.44,0.4,56.451,,,,NaN,,,,0 / 0,2310,2014-12-14 04:36:28:292
2.2065,-12.5427,-2.6184,-1.5951,-8.7846,4.0567,3.8016,-3.7581,-6.6751,3.1704,-0.821,1.8436,0.0,2.7,-22.0,11.2,309.93,68.03,27.44,0.4,56.451,,,,NaN,,,,0 / 0,2360,2014-12-14 04:36:28:342
1.1376,-12.1504,-3.4421,-1.5529,-8.7159,4.218,2.6905,-3.4345,-7.6602,3.2901,-1.19,1.9645,0.0,3.2,-21.5,10.2,250.62,62.72,20.21,0.4,56.451,,,,NaN,,,,0 / 0,2410,2014-12-14 04:36:28:392
1.1376,-12.1504,-3.4421,-1.5529,-8.7159,4.218,2.6905,-3.4345,-7.6602,3.2901,-1.19,1.9645,0.0,3.2,-21.5,10.2,250.62,62.72,20.21,0.4,56.451,,,,NaN,,,,0 / 0,2460,2014-12-14 04:36:28:442
0.7747,-5.5506,-0.8434,-1.647,-7.6092,5.9631,2.4217,2.0586,-6.8065,3.0861,-0.38,0.8283,0.0,5.3,-23.7,-7.8,207.69,57.85,21.91,0.4,56.451,,,,NaN,,,,0 / 0,2510,2014-12-14 04:36:28:492
1.3337,-2.6968,0.5884,-0.9684,-7.093,6.7024,2.3021,4.3961,-6.114,2.116,-0.661,0.5693,0.0,3.2,-26.3,-15.6,181.31,46.33,8.22,0.4,56.451,,,,NaN,,,,0 / 0,2580,2014-12-14 04:36:28:562
1.3337,-2.6968,0.5884,-0.9684,-7.093,6.7024,2.3021,4.3961,-6.114,2.116,-0.661,0.5693,0.0,3.2,-26.3,-15.6,181.31,46.33,8.22,0.4,56.451,,,,NaN,,,,0 / 0,2610,2014-12-14 04:36:28:592
1.3337,-2.6968,0.5884,-0.9684,-7.093,6.7024,2.3021,4.3961,-6.114,2.116,-0.661,0.5693,0.0,3.2,-26.3,-15.6,181.31,46.33,8.22,0.4,56.451,,,,NaN,,,,0 / 0,2660,2014-12-14 04:36:28:642
1.775,-17.6324,2.3732,-0.4112,-7.2825,6.5549,0.4994,-11.9288,-3.7796,-0.8063,1.0079,0.5571,0.0,5.3,-23.3,-9.8,183.36,42.77,1.06,0.4,58.432,,,,NaN,,,,0 / 0,2711,2014-12-14 04:36:28:693
1.775,-17.6324,2.3732,-0.4112,-7.2825,6.5549,0.4994,-11.9288,-3.7796,-0.8063,1.0079,0.5571,0.0,5.3,-23.3,-9.8,183.36,42.77,1.06,0.4,58.432,,,,NaN,,,,0 / 0,2760,2014-12-14 04:36:28:742
3.7952,-6.4822,1.8633,-0.5554,-8.2273,5.3079,4.3506,1.7451,-3.4446,-0.7709,1.0922,0.6267,0.0,4.5,-22.0,-6.9,193.09,57.03,5.97,0.4,58.432,,,,NaN,,,,0 / 0,2809,2014-12-14 04:36:28:791
1.9025,-5.4133,0.5884,-0.4248,-8.5277,4.8238,2.3273,3.1144,-4.2354,-1.4575,1.8033,0.7013,0.0,5.3,-21.5,-4.9,196.76,60.41,5.03,0.4,58.432,,,,NaN,,,,0 / 0,2860,2014-12-14 04:36:28:842
0.559,-9.1496,-0.5688,-0.472,-8.7252,4.4517,1.031,-0.4244,-5.0205,-1.438,2.171,0.5412,0.0,6.2,-20.2,-2.5,206.66,62.84,6.05,0.4,58.432,,,,NaN,,,,0 / 0,2909,2014-12-14 04:36:28:891
-1.7162,-12.6996,-0.559,-0.8712,-9.42,2.5837,-0.8449,-3.2796,-3.1426,-1.0189,1.4392,0.3409,0.0,6.2,-19.4,3.9,243.42,73.86,18.63,0.4,58.432,,,,NaN,,,,0 / 0,2960,2014-12-14 04:36:28:942
-2.3928,-8.6495,-0.3236,-1.3065,-9.6022,1.5035,-1.0864,0.9528,-1.8271,-0.9566,1.2376,0.4081,0.0,6.2,-17.6,7.8,243.42,73.86,18.63,0.4,58.432,,,,NaN,,,,0 / 0,3009,2014-12-14 04:36:28:991
-0.2746,-9.4536,0.657,-1.7048,-9.6353,0.6515,1.4302,0.1817,0.0056,-0.3262,0.7917,0.3396,0.0,4.9,-16.7,13.6,259.17,79.27,69.09,0.4,58.432,,,,NaN,,,,0 / 0,3060,2014-12-14 04:36:29:042
-0.2746,-9.4536,0.657,-1.7048,-9.6353,0.6515,1.4302,0.1817,0.0056,-0.3262,0.7917,0.3396,0.0,4.9,-16.7,13.6,259.17,79.27,69.09,0.4,58.432,,,,NaN,,,,0 / 0,3111,2014-12-14 04:36:29:093
-0.4315,-10.1499,0.6963,-1.6289,-9.6564,0.5204,1.1974,-0.4935,0.1759,-0.0159,1.1118,0.5205,0.0,3.2,-16.7,16.6,267.71,79.96,72.28,0.4,58.432,,,,NaN,,,,0 / 0,3159,2014-12-14 04:36:29:141
0.3138,-9.6203,-0.7649,-1.7292,-9.6365,0.5643,2.043,0.0162,-1.3292,0.1906,1.295,0.6817,0.0,3.2,-16.7,16.6,267.71,79.96,72.28,0.4,58.432,,,,NaN,,,,0 / 0,3209,2014-12-14 04:36:29:191
-0.2746,-11.3659,-0.9807,-1.6302,-9.6649,0.319,1.3556,-1.701,-1.2997,0.3653,1.0825,0.3274,0.0,0.6,-16.7,18.0,267.32,79.42,72.13,0.4,68.765,,,,NaN,,,,0 / 0,3260,2014-12-14 04:36:29:242
-0.8532,-10.856,-1.471,-1.4708,-9.6947,0.1416,0.6176,-1.1613,-1.6126,0.226,0.7428,0.1332,0.0,-0.3,-16.3,19.0,268.15,81.33,84.5,0.4,68.765,,,,NaN,,,,0 / 0,3311,2014-12-14 04:36:29:293
-1.0885,-15.8966,-0.1863,-1.1282,-9.7405,-0.1404,0.0396,-6.1561,-0.046,0.4154,0.5693,-0.0464,0.0,-4.2,-16.7,21.9,268.14,83.34,97.09,0.4,68.765,,,,NaN,,,,0 / 0,3359,2014-12-14 04:36:29:341
-1.6083,-15.7495,0.7159,-1.087,-9.7453,-0.1351,-0.5212,-6.0042,0.8509,0.8015,0.6023,0.1026,0.0,-4.7,-16.3,21.4,268.14,83.34,97.09,0.4,68.765,,,,NaN,,,,0 / 0,3409,2014-12-14 04:36:29:391
2.6772,-12.5721,3.0401,-0.9739,-9.71,0.9682,3.6512,-2.8621,2.0719,2.0818,0.1979,0.4191,0.0,-7.7,-15.9,18.5,296.75,83.31,74.64,0.4,68.765,,,,NaN,,,,0 / 0,3459,2014-12-14 04:36:29:441
2.6772,-12.5721,3.0401,-0.9739,-9.71,0.9682,3.6512,-2.8621,2.0719,2.0818,0.1979,0.4191,0.0,-7.7,-15.9,18.5,296.75,83.31,74.64,0.4,68.765,,,,NaN,,,,0 / 0,3510,2014-12-14 04:36:29:492
-1.4318,-14.6413,1.216,-1.0518,-9.2812,2.9873,-0.38,-5.3602,-1.7713,2.9383,0.5657,0.7697,0.0,-9.0,-15.4,16.1,7.52,78.51,23.21,0.4,68.765,,,,NaN,,,,0 / 0,3561,2014-12-14 04:36:29:543
1.775,-12.4446,-3.903,-1.657,-8.8257,3.9411,1.8867,-2.3405,-6.4206,3.6701,-1.0727,1.846,0.0,-9.0,-12.8,0.9,65.07,67.01,22.86,0.4,68.765,,,,NaN,,,,0 / 0,3610,2014-12-14 04:36:29:592
-0.0981,-10.248,-1.2749,-1.8381,-8.552,4.4334,1.74,-1.6959,-5.7083,3.7715,-1.0116,1.7446,0.0,-8.6,-12.4,-2.5,116.25,60.7,22.52,0.4,68.765,,,,NaN,,,,0 / 0,3660,2014-12-14 04:36:29:642
0.4805,-8.5024,1.167,-1.9782,-8.2208,4.9674,2.4587,-0.2815,-3.8004,3.7067,-0.7636,1.328,0.0,-8.6,-12.4,-5.9,116.25,60.7,22.52,0.4,68.765,,,,NaN,,,,0 / 0,3710,2014-12-14 04:36:29:692
1.118,-3.4912,-0.1079,-1.6172,-7.3055,6.3391,2.7352,3.8143,-6.447,3.069,-0.5058,1.0153,0.0,-10.3,-13.3,-12.7,139.94,50.84,16.18,0.4,68.765,,,,NaN,,,,0 / 0,3760,2014-12-14 04:36:29:742
0.8924,-2.2457,1.1866,-0.98,-6.9179,6.8813,2.147,3.6425,-6.2145,1.8485,-0.3946,0.7453,0.0,-12.5,-15.0,-20.5,147.87,44.86,8.11,0.4,68.765,,,,NaN,,,,0 / 0,3809,2014-12-14 04:36:29:791
1.2454,-1.6475,1.6769,-0.6369,-6.8255,7.0126,1.8824,5.178,-5.3357,1.0666,0.0098,0.7208,0.0,-13.8,-15.4,-20.0,146.45,44.11,5.19,0.4,56.685,,,,NaN,,,,0 / 0,3859,2014-12-14 04:36:29:841
0.7649,-12.729,10.5912,0.1223,-6.886,6.9813,0.6426,-5.843,3.6099,-0.3506,1.5015,1.2767,0.0,-11.2,-10.7,-13.2,147.79,44.6,-1.0,0.4,56.685,,,,NaN,,,,0 / 0,3909,2014-12-14 04:36:29:891
0.4511,-19.2112,3.9717,-0.7963,-7.4038,6.3813,1.2474,-11.8075,-2.4096,-0.8063,1.1875,0.4362,0.0,-10.3,-8.9,-10.3,147.79,44.6,-1.0,0.4,56.685,,,,NaN,,,,0 / 0,3959,2014-12-14 04:36:29:941
1.5593,-6.1488,0.7943,-0.5708,-8.5619,4.7475,2.1301,2.4131,-3.9532,-1.5162,2.1967,0.5302,0.0,-10.3,-5.9,-3.4,135.12,51.52,8.98,0.4,56.685,,,,NaN,,,,0 / 0,4010,2014-12-14 04:36:29:992
-1.0003,-12.8369,-0.4119,-0.8385,-9.0114,3.7764,2.1301,2.4131,-3.9532,-1.5162,2.1967,0.5302,0.0,-10.3,-5.9,-3.4,135.12,51.52,8.98,0.4,56.685,,,,NaN,,,,0 / 0,4060,2014-12-14 04:36:30:042
-2.2751,-11.4346,0.1765,-1.2576,-9.4992,2.0869,-1.1262,0.0048,-2.0728,-0.8589,1.5638,0.3971,0.0,-9.9,-2.4,9.7,56.41,70.54,17.93,0.4,56.685,,,,NaN,,,,0 / 0,4109,2014-12-14 04:36:30:091
-2.1967,-9.8066,0.2648,-1.8438,-9.5957,0.8333,-1.1262,0.0048,-2.0728,-0.8589,1.5638,0.3971,0.0,-9.9,-2.4,9.7,56.41,70.54,17.93,0.4,56.685,,,,NaN,,,,0 / 0,4159,2014-12-14 04:36:30:141
0.4217,-10.0322,1.0787,-1.934,-9.6056,0.4022,2.3557,-0.4266,0.6766,-0.0159,0.992,0.3274,0.0,-12.9,-1.5,22.9,314.18,77.86,74.55,0.4,56.685,,,,NaN,,,,0 / 0,4210,2014-12-14 04:36:30:192
0.1765,-9.2281,0.3236,-1.7622,-9.6355,0.4704,1.9387,0.4075,-0.1467,0.3079,1.2706,0.4887,0.0,-13.8,-1.5,24.9,313.42,79.28,75.06,0.4,56.685,,,,NaN,,,,0 / 0,4260,2014-12-14 04:36:30:242
-0.0686,-9.2281,0.0392,-1.7392,-9.6398,0.4687,1.6705,0.4118,-0.4295,0.358,1.4966,0.7294,0.0,-13.8,-1.5,24.9,313.42,79.28,75.06,0.4,67.704,,,,NaN,,,,0 / 0,4309,2014-12-14 04:36:30:291
0.0,-9.3163,-0.4609,-1.7647,-9.6387,0.3895,1.7647,0.3224,-0.8504,0.3677,1.3463,0.7184,0.0,-14.7,-1.5,24.9,312.65,79.38,77.55,0.4,67.704,,,,NaN,,,,0 / 0,4359,2014-12-14 04:36:30:341
0.0196,-11.7778,-0.8826,-1.6008,-9.675,0.0543,1.6204,-2.1028,-0.9369,0.3018,0.8161,0.2395,0.0,-16.8,-1.5,28.3,302.61,80.6,88.06,0.4,67.704,,,,NaN,,,,0 / 0,4409,2014-12-14 04:36:30:391
-0.3825,-11.8268,-1.4906,-1.4657,-9.6965,0.0027,1.0832,-2.1303,-1.4934,0.2297,0.6353,0.0586,0.0,-17.7,-1.1,29.2,302.61,80.6,88.06,0.4,67.704,,,,NaN,,,,0 / 0,4460,2014-12-14 04:36:30:442
-1.8338,-15.2395,0.8434,-1.1526,-9.7387,-6.0E-4,-0.6813,-5.5009,0.844,0.7868,0.5632,0.0892,0.0,-20.3,-1.5,31.2,302.44,81.4,89.89,0.4,67.704,,,,NaN,,,,0 / 0,4510,2014-12-14 04:36:30:492
2.5399,-13.6116,4.158,-1.2147,-9.6721,1.0699,3.7547,-3.9395,3.0881,2.055,0.5938,0.5302,0.0,-22.9,1.1,26.3,302.44,81.4,89.89,0.4,67.704,,,,NaN,,,,0 / 0,4560,2014-12-14 04:36:30:542
0.0392,-13.8568,4.3738,-0.9932,-9.5015,2.215,1.0324,-4.3553,2.1588,3.1692,0.7001,1.157,0.0,-23.8,4.6,17.0,1.56,79.63,41.06,0.4,67.704,,,,NaN,,,,0 / 0,4609,2014-12-14 04:36:30:591
0.0392,-13.8568,4.3738,-0.9932,-9.5015,2.215,1.0324,-4.3553,2.1588,3.1692,0.7001,1.157,0.0,-23.8,4.6,17.0,1.56,79.63,41.06,0.4,67.704,,,,NaN,,,,0 / 0,4659,2014-12-14 04:36:30:641
0.7061,-12.1995,-3.2068,-1.5723,-8.8854,3.8403,2.758,-3.5678,-5.6906,3.2413,0.5803,1.135,0.0,-24.2,5.4,15.6,35.26,70.34,20.69,0.4,67.704,,,,NaN,,,,0 / 0,4710,2014-12-14 04:36:30:692
1.6867,-12.2975,-1.3435,-1.7693,-8.6906,4.1849,3.4561,-3.6069,-5.5284,3.3133,-0.6634,1.8069,0.0,-23.3,8.0,-6.4,74.0,62.4,22.92,0.4,67.704,,,,NaN,,,,0 / 0,4760,2014-12-14 04:36:30:742
0.6963,-8.267,0.3923,-1.6944,-8.002,5.4099,2.5507,0.2777,-5.2878,3.3463,-0.9554,1.7813,0.0,-23.3,8.0,-11.2,74.0,62.4,22.92,0.4,54.985,,,,NaN,,,,0 / 0,4809,2014-12-14 04:36:30:791
1.0297,-6.1292,0.0785,-1.624,-7.7171,5.8292,2.6017,2.0061,-6.0066,3.0885,-0.4349,1.1558,0.0,-26.4,1.9,-26.4,111.8,52.79,16.22,0.4,54.985,,,,NaN,,,,0 / 0,4860,2014-12-14 04:36:30:842
1.6279,-3.5696,0.5982,-1.2523,-7.1973,6.5422,2.8802,3.6277,-5.944,2.755,-0.237,0.9713,0.0,-28.1,-1.5,-30.3,111.8,52.79,16.22,0.4,54.985,,,,NaN,,,,0 / 0,4910,2014-12-14 04:36:30:892
1.7848,-0.7943,0.559,-0.4617,-6.8691,6.9837,2.6584,6.6534,-6.0717,0.8381,0.3519,0.7672,0.0,-32.9,-6.3,-34.7,126.2,45.97,7.94,0.4,54.985,,,,NaN,,,,0 / 0,4960,2014-12-14 04:36:30:942
2.638,-4.5405,4.0305,0.4875,-6.8045,7.045,2.1504,2.264,-3.0145,-1.1496,1.9865,0.9029,0.0,-28.6,0.2,-31.2,130.46,43.94,-3.96,0.4,54.985,,,,NaN,,,,0 / 0,5178,2014-12-14 04:36:31:160
2.638,-4.5405,4.0305,0.4875,-6.8045,7.045,2.1504,2.264,-3.0145,-1.1496,1.9865,0.9029,0.0,-28.6,0.2,-31.2,130.46,43.94,-3.96,0.4,54.985,,,,NaN,,,,0 / 0,5181,2014-12-14 04:36:31:163
2.638,-4.5405,4.0305,0.4875,-6.8045,7.045,2.1504,2.264,-3.0145,-1.1496,1.9865,0.9029,0.0,-28.6,0.2,-31.2,130.46,43.94,-3.96,0.4,54.985,,,,NaN,,,,0 / 0,5182,2014-12-14 04:36:31:164
2.638,-4.5405,4.0305,0.4875,-6.8045,7.045,2.1504,2.264,-3.0145,-1.1496,1.9865,0.9029,0.0,-28.6,0.2,-31.2,130.46,43.94,-3.96,0.4,54.985,,,,NaN,,,,0 / 0,5184,2014-12-14 04:36:31:166
-4.6876,-17.8873,4.3443,-0.0155,-6.9465,6.9221,-4.6721,-10.9408,-2.5778,-0.9664,0.6353,1.2938,0.0,-26.0,4.1,-29.3,124.15,45.1,0.13,0.4,54.985,,,,NaN,,,,0 / 0,5209,2014-12-14 04:36:31:191
5.6879,-4.3542,1.9025,-0.548,-8.0198,5.6173,6.6379,1.5768,-3.7736,-0.7184,1.1668,0.259,0.0,-27.7,6.3,-24.4,124.15,45.1,0.13,0.4,54.985,,,,NaN,,,,0 / 0,5260,2014-12-14 04:36:31:242
-3.6187,-9.3065,-0.8826,-1.6756,-9.5157,1.6778,-1.1632,-5.535,-3.868,-1.3488,2.1796,0.3311,0.0,-26.0,13.7,-16.1,100.03,65.59,8.82,0.4,54.985,,,,NaN,,,,0 / 0,5310,2014-12-14 04:36:31:292
-2.3144,-9.9341,0.1765,-1.8803,-9.5323,1.3304,-0.4341,-0.4018,-1.1538,-0.6597,0.4997,0.3225,0.0,-27.3,18.5,0.9,29.19,76.42,54.72,0.4,67.851,,,,NaN,,,,0 / 0,5360,2014-12-14 04:36:31:342
-0.9709,-9.6399,0.6865,-1.9782,-9.5479,1.0468,2.2658,-0.0456,-0.2267,-0.2431,0.5058,0.3311,0.0,-28.6,17.6,6.3,29.19,76.42,54.72,0.4,67.851,,,,NaN,,,,0 / 0,5409,2014-12-14 04:36:31:391
0.0392,-9.3065,0.559,-1.7854,-9.6136,0.7493,1.8247,0.3071,-0.1903,-0.171,1.1606,0.4655,0.0,-29.9,17.6,11.2,2.41,78.61,67.23,0.4,67.851,,,,NaN,,,,0 / 0,5459,2014-12-14 04:36:31:441
0.2746,-9.7772,1.1964,-1.8505,-9.6136,0.5695,2.1251,-0.1636,0.6269,0.5266,1.1179,0.7856,0.0,-29.0,18.0,14.6,350.59,78.61,72.89,0.4,67.851,,,,NaN,,,,0 / 0,5511,2014-12-14 04:36:31:493
0.5099,-9.1594,-1.0885,-1.7733,-9.6143,0.7686,2.2833,0.4549,-1.8571,0.6426,0.8406,0.5498,0.0,-28.6,17.6,14.6,350.59,78.61,72.89,0.4,67.851,,,,NaN,,,,0 / 0,5560,2014-12-14 04:36:31:542
-0.3727,-10.0812,-1.9515,-1.6163,-9.6566,0.5554,1.2437,-0.4247,-2.507,0.369,1.0043,0.2908,0.0,-29.0,17.6,16.1,350.81,79.96,71.03,0.4,67.851,,,,NaN,,,,0 / 0,5609,2014-12-14 04:36:31:591
-0.5688,-13.2586,-2.4909,-1.2406,-9.7278,-0.021,2.1306,-3.1695,-2.3599,0.3299,0.4814,0.1368,0.0,-31.2,16.7,18.5,338.8,81.27,80.94,0.4,67.851,,,,NaN,,,,0 / 0,5660,2014-12-14 04:36:31:642
-1.1376,-13.0821,-2.7655,-1.1603,-9.7375,-0.074,0.0228,-3.3446,-2.6915,0.4203,0.5767,0.1454,0.0,-32.9,15.9,20.9,325.28,83.19,93.65,0.4,67.851,,,,NaN,,,,0 / 0,5709,2014-12-14 04:36:31:691
2.1575,-14.6021,-0.608,-0.7304,-9.7794,0.0274,3.741,-2.8712,0.3354,0.5559,1.1191,0.4215,0.0,-34.7,12.8,19.0,334.2,85.73,87.85,0.4,56.287,,,,NaN,,,,0 / 0,5760,2014-12-14 04:36:31:742
2.03,-11.817,1.3729,-0.4327,-9.7843,0.5008,3.741,-2.8712,0.3354,1.7532,0.8063,0.2285,0.0,-34.7,12.8,19.0,334.2,85.73,87.85,0.4,56.287,,,,NaN,,,,0 / 0,5809,2014-12-14 04:36:31:791
-1.5495,-11.8268,3.2166,-0.437,-9.6909,1.4372,-1.1124,-2.1359,1.7793,2.3494,-0.0391,0.8454,0.0,-36.0,9.3,10.2,24.77,86.13,40.83,0.4,56.287,,,,NaN,,,,0 / 0,5859,2014-12-14 04:36:31:841
2.7066,-11.5915,-2.1575,-1.1183,-9.3671,2.6789,3.8249,-2.2243,-4.8363,2.4264,1.0397,1.0336,0.0,-34.2,7.6,0.9,63.05,72.78,22.66,0.4,56.287,,,,NaN,,,,0 / 0,5910,2014-12-14 04:36:31:892
2.7066,-11.5915,-2.1575,-1.1183,-9.3671,2.6789,3.8249,-2.2243,-4.8363,2.4264,1.0397,1.0336,0.0,-34.2,7.6,0.9,63.05,72.78,22.66,0.4,56.287,,,,NaN,,,,0 / 0,5959,2014-12-14 04:36:31:941
1.3239,-7.2863,-2.2261,-1.0559,-9.2185,3.1741,2.3798,1.9321,-5.4002,2.3066,-0.2175,1.3085,0.0,-33.3,3.7,-6.4,74.96,71.06,18.13,0.4,56.287,,,,NaN,,,,0 / 0,6010,2014-12-14 04:36:31:992
1.0493,-7.3158,-1.1474,-1.0949,-9.2073,3.1934,2.1442,1.8915,-4.3408,2.1918,0.0855,1.1924,0.0,-33.3,3.3,-8.3,83.29,69.86,18.92,0.4,56.287,,,,NaN,,,,0 / 0,6060,2014-12-14 04:36:32:042
1.167,-6.4037,-0.4511,-1.156,-9.0832,3.5114,2.323,2.6794,-3.9625,1.2523,0.4203,1.0079,0.0,-32.5,1.5,-10.3,87.91,67.85,18.22,0.4,56.287,,,,NaN,,,,0 / 0,6110,2014-12-14 04:36:32:092
1.167,-6.4037,-0.4511,-1.156,-9.0832,3.5114,2.323,2.6794,-3.9625,1.2523,0.4203,1.0079,0.0,-32.5,1.5,-10.3,87.91,67.85,18.22,0.4,56.287,,,,NaN,,,,0 / 0,6160,2014-12-14 04:36:32:142
1.0689,-4.7955,-1.2945,-1.3225,-9.1454,3.2837,2.3718,4.2029,-4.7547,0.6903,0.8234,1.0238,0.0,-31.2,1.1,-11.2,87.13,68.84,21.94,0.4,53.64,,,,NaN,,,,0 / 0,6210,2014-12-14 04:36:32:192
0.8041,-4.6287,-1.0199,-1.4358,-9.4251,2.2971,2.24,4.7963,-3.317,-0.496,0.4838,0.7306,0.0,-28.6,3.7,-5.9,68.41,73.96,32.01,0.4,53.64,,,,NaN,,,,0 / 0,6260,2014-12-14 04:36:32:242
1.0297,-8.9142,0.7061,-1.3617,-9.6167,1.3546,2.3914,0.7025,-0.6485,-0.6952,0.5547,0.3836,0.0,-28.1,5.9,0.0,68.41,73.96,32.01,0.4,53.64,,,,NaN,,,,0 / 0,6310,2014-12-14 04:36:32:292
1.4906,-18.7405,9.0319,-1.0417,-9.6609,1.3239,2.7382,-9.7073,11.0325,2.2333,-0.529,0.6548,0.0,-28.6,6.3,3.9,42.99,80.11,38.2,0.4,53.64,,,,NaN,,,,0 / 0,6360,2014-12-14 04:36:32:342
6.139,-2.8341,-0.6178,-0.8678,-9.4855,2.3331,7.0067,6.6513,-2.9509,1.2352,1.5504,0.8625,0.0,-28.6,5.9,-0.5,67.42,75.3,20.4,0.4,53.64,,,,NaN,,,,0 / 0,6409,2014-12-14 04:36:32:391
-2.4419,-8.6004,-3.0499,-0.3854,-9.6031,1.9502,-2.0564,1.0026,-5.0,0.0806,1.9035,0.7074,0.0,-27.7,7.2,1.4,74.24,78.3,11.18,0.4,53.64,,,,NaN,,,,0 / 0,6460,2014-12-14 04:36:32:442
0.5001,-9.5517,2.2065,-1.9462,-9.5029,1.4412,2.4463,-0.0487,0.7653,0.2761,1.1875,0.7624,0.0,-26.8,8.5,0.9,33.59,80.66,52.92,0.4,53.64,,,,NaN,,,,0 / 0,6510,2014-12-14 04:36:32:492
1.167,-9.2084,1.7456,-1.945,-9.485,1.5561,3.112,0.2766,0.1894,0.7685,0.0538,0.606,0.0,-27.7,8.0,2.4,33.15,75.29,51.34,0.4,53.64,,,,NaN,,,,0 / 0,6560,2014-12-14 04:36:32:542
0.3138,-9.3457,1.2553,-1.7921,-9.4799,1.758,2.1059,0.1342,-0.5027,0.5498,0.9163,0.628,0.0,-27.7,8.0,2.4,38.66,75.17,45.55,0.4,53.64,,,,NaN,,,,0 / 0,6610,2014-12-14 04:36:32:592
-0.304,-9.993,0.5884,-1.8632,-9.4578,1.8025,1.5592,-0.5352,-1.2141,0.7514,1.0385,0.81,0.0,-26.8,8.5,2.4,38.66,75.17,45.55,0.4,53.64,,,,NaN,,,,0 / 0,6660,2014-12-14 04:36:32:642
0.3825,-9.5615,1.1866,-1.9123,-9.4405,1.8411,2.2947,-0.1209,-0.6545,0.7746,0.909,0.6365,0.0,-26.4,8.5,1.9,37.27,74.29,46.09,0.4,65.289,,,,NaN,,,,0 / 0,6710,2014-12-14 04:36:32:692
0.1275,-10.091,0.7943,-1.8038,-9.4379,1.9602,1.9313,-0.6531,-1.1659,0.6707,0.672,0.6304,0.0,-26.8,8.5,2.4,40.79,74.24,42.62,0.4,65.289,,,,NaN,,,,0 / 0,6759,2014-12-14 04:36:32:741
-0.255,-10.1597,0.5001,-1.7872,-9.4428,1.9521,1.5322,-0.7169,-1.4519,0.7795,1.0165,0.6206,0.0,-26.8,8.5,2.4,40.93,74.34,42.48,0.4,65.289,,,,NaN,,,,0 / 0,6810,2014-12-14 04:36:32:792
-0.4315,-9.9145,0.608,-1.8485,-9.4316,1.9489,1.417,-0.4829,-1.3409,0.8002,0.628,0.639,0.0,-27.3,8.5,1.9,40.93,74.34,42.48,0.4,65.289,,,,NaN,,,,0 / 0,6860,2014-12-14 04:36:32:842
-0.1373,-10.1205,0.3236,-1.8783,-9.4247,1.9538,1.741,-0.6958,-1.6302,0.7343,0.6439,0.6011,0.0,-26.8,8.5,2.4,39.6,73.96,43.87,0.4,65.289,,,,NaN,,,,0 / 0,6910,2014-12-14 04:36:32:892
0.4609,-9.9047,0.2844,-1.8524,-9.4402,1.9033,2.3133,-0.4646,-1.6189,0.7135,0.7282,0.6255,0.0,-26.8,8.0,1.9,39.6,73.96,43.87,0.4,65.289,,,,NaN,,,,0 / 0,6959,2014-12-14 04:36:32:941
0.0294,-10.2578,1.1376,-1.7469,-9.4739,1.834,1.7763,-0.7838,-0.6964,0.5412,0.4349,0.6121,0.0,-27.7,8.5,3.9,36.37,75.03,43.61,0.4,65.289,,,,NaN,,,,0 / 0,7009,2014-12-14 04:36:32:991
-0.1177,-9.8655,0.1765,-1.7689,-9.4524,1.9217,1.8964,-0.3052,-1.7648,0.7819,0.9334,0.6548,0.0,-27.3,8.0,3.4,39.37,74.76,42.41,0.4,65.289,,,,NaN,,,,0 / 0,7059,2014-12-14 04:36:33:041
0.5982,-9.8263,0.4217,-1.7363,-9.4679,1.8746,2.1482,-0.4172,-1.247,0.7135,0.6512,0.6304,0.0,-27.7,8.5,3.9,37.12,74.9,42.81,0.4,65.289,,,,NaN,,,,0 / 0,7110,2014-12-14 04:36:33:092
0.3236,-9.9439,0.7257,-1.7115,-9.4718,1.8779,2.0351,-0.4722,-1.1522,0.7257,0.5962,0.6219,0.0,-27.7,8.0,3.4,37.12,74.9,42.81,0.4,65.289,,,,NaN,,,,0 / 0,7159,2014-12-14 04:36:33:141
0.0785,-9.993,0.4119,-1.6689,-9.4708,1.9205,1.7474,-0.5221,-1.5086,0.7355,0.6267,0.6671,0.0,-27.7,8.0,3.9,39.16,74.96,40.99,0.4,65.289,,,,NaN,,,,0 / 0,7257,2014-12-14 04:36:33:239
0.0785,-9.993,0.4119,-1.6689,-9.4708,1.9205,1.7474,-0.5221,-1.5086,0.7355,0.6267,0.6671,0.0,-27.7,8.0,3.9,39.16,74.96,40.99,0.4,65.289,,,,NaN,,,,0 / 0,7259,2014-12-14 04:36:33:241