ACCELEROMETER X (m/s²),ACCELEROMETER Y (m/s²),ACCELEROMETER Z (m/s²),GRAVITY X (m/s²),GRAVITY Y (m/s²),GRAVITY Z (m/s²),LINEAR ACCELERATION X (m/s²),LINEAR ACCELERATION Y (m/s²),LINEAR ACCELERATION Z (m/s²),GYROSCOPE X (rad/s),GYROSCOPE Y (rad/s),GYROSCOPE Z (rad/s),LIGHT (lux),MAGNETIC FIELD X (μT),MAGNETIC FIELD Y (μT),MAGNETIC FIELD Z (μT),ORIENTATION X (°),ORIENTATION Y (°),ORIENTATION Z (°),PROXIMITY (i),SOUND LEVEL (dB),LOCATION Latitude : ,LOCATION Longitude : ,LOCATION Altitude ( m),LOCATION Altitude-google ( m),LOCATION Speed ( Kmh),LOCATION Accuracy ( m),LOCATION ORIENTATION (°),Satellites in range,Time since start in ms ,YYYY-MO-DD HH-MI-SS_SSS
-0.17777,-9.07223,3.06099,-0.11762,-9.30566,3.09256,-0.10609,0.22865,-0.11492,-0.00432,0.04526,0.01024,1169.0,-9.18,43.14,-40.8,157.414,71.567,1.955,1.97,47.5549,,,,NaN,,,,0 / 0,5,2014-12-14 13:56:39:334
0.09038,-9.18715,3.06578,-0.12989,-9.30626,3.09002,0.22027,0.11911,-0.02424,-0.00432,0.03567,-0.00467,1169.0,-7.62,43.56,-40.62,159.102,71.604,2.178,1.97,47.5549,,,,NaN,,,,0 / 0,56,2014-12-14 13:56:39:385
0.09038,-9.18715,3.06578,-0.12989,-9.30626,3.09002,0.22027,0.11911,-0.02424,-0.00432,0.03567,-0.00467,1161.0,-7.62,43.56,-40.62,159.102,71.604,2.178,1.97,47.5549,,,,NaN,,,,0 / 0,106,2014-12-14 13:56:39:435
-0.20171,-9.21588,3.07775,-0.14425,-9.30851,3.08268,0.15727,0.13991,-0.16071,-0.00112,0.03993,-0.00361,1161.0,-7.98,43.02,-41.1,158.934,71.648,2.308,1.97,47.5549,,,,NaN,,,,0 / 0,155,2014-12-14 13:56:39:484
-0.14664,-9.17757,3.02747,-0.14979,-9.30851,3.08253,0.03487,0.09008,0.04998,-0.00538,0.05698,0.01237,1161.0,-7.44,43.38,-40.8,158.934,71.648,2.308,1.97,47.5549,,,,NaN,,,,0 / 0,205,2014-12-14 13:56:39:534
-0.14425,-9.1273,3.13281,-0.16086,-9.30596,3.08957,0.01661,0.17867,0.04325,0.0074,0.03035,0.00598,1161.0,-7.56,43.32,-40.62,160.063,71.652,2.901,1.97,47.5549,,,,NaN,,,,0 / 0,255,2014-12-14 13:56:39:584
-0.31424,-9.13448,3.11605,-0.17567,-9.30402,3.09436,-0.13856,0.16954,0.0217,0.00421,0.02289,0.02728,1161.0,-6.96,43.5,-40.38,159.041,71.611,2.98,1.97,47.5549,,,,NaN,,,,0 / 0,305,2014-12-14 13:56:39:634
-0.01736,-9.10575,3.11127,-0.1872,-9.30477,3.09151,0.16984,0.19902,0.01975,-0.03201,0.00265,0.01983,1151.0,-7.38,43.02,-40.56,159.041,71.611,2.98,1.97,48.8823,,,,NaN,,,,0 / 0,363,2014-12-14 13:56:39:692
-0.22087,-8.85196,3.45842,-0.17942,-9.31045,3.07505,-0.04145,0.45849,0.38337,-0.07356,-0.06233,-0.00467,1151.0,-7.74,43.14,-40.74,157.39,71.694,3.339,1.97,48.8823,,,,NaN,,,,0 / 0,405,2014-12-14 13:56:39:734
-0.47944,-8.14328,4.91889,-0.17777,-9.29489,3.12174,-0.30167,1.15161,1.79715,-0.06291,-0.08896,0.01876,1151.0,-7.8,43.38,-41.16,157.292,71.407,3.259,1.97,48.8823,,,,NaN,,,,0 / 0,456,2014-12-14 13:56:39:785
0.55725,-8.75619,2.94367,-0.16116,-9.29384,3.12563,0.77827,0.42273,-0.0838,-0.20778,-0.08364,-0.02172,1151.0,-7.38,43.32,-40.38,157.292,71.407,3.259,1.97,48.8823,,,,NaN,,,,0 / 0,506,2014-12-14 13:56:39:835
0.68654,-9.07462,3.52067,-0.14635,-9.29953,3.10947,0.83288,0.22491,0.4112,-0.2195,-0.03463,-0.03983,1151.0,-7.44,43.2,-40.14,159.655,71.493,2.695,1.97,48.8823,,,,NaN,,,,0 / 0,555,2014-12-14 13:56:39:884
-0.18735,-8.26778,3.81516,-0.11657,-9.3302,3.01744,-0.07078,1.06243,0.79772,-0.32922,0.06657,0.03687,1187.0,-7.8,43.56,-40.74,159.655,71.493,2.695,1.97,48.8823,,,,NaN,,,,0 / 0,605,2014-12-14 13:56:39:934
0.94032,-9.44094,2.89818,-0.25902,-9.3941,2.80241,1.19935,-0.04684,0.09577,-0.37609,-0.12092,0.04646,1187.0,-7.44,43.98,-40.74,159.144,72.066,2.212,1.97,48.8823,,,,NaN,,,,0 / 0,656,2014-12-14 13:56:39:985
0.90202,-9.1656,2.34033,-0.09292,-9.43854,2.66026,0.99494,0.27294,-0.31993,-0.41977,0.05911,-0.1879,1187.0,-7.56,44.46,-40.38,160.323,74.25,2.001,1.97,48.8823,,,,NaN,,,,0 / 0,705,2014-12-14 13:56:40:034
-1.88005,-9.00998,2.23259,-0.10804,-9.48059,2.50568,-1.77201,0.47061,-0.27309,-0.54227,0.53528,-0.13038,1187.0,-7.38,44.58,-39.9,160.323,74.25,2.001,1.97,45.1751,,,,NaN,,,,0 / 0,755,2014-12-14 13:56:40:084
-1.09475,-8.80408,4.23415,-0.17747,-9.5165,2.36143,-0.91728,0.71242,1.87271,-0.48688,0.22849,-0.15701,1187.0,-7.02,44.64,-39.12,159.412,76.026,4.298,1.97,45.1751,,,,NaN,,,,0 / 0,806,2014-12-14 13:56:40:135
1.12946,-7.844,3.34829,-0.02544,-9.53356,2.29828,1.1549,1.68956,1.05001,-0.30579,0.25299,-0.3626,1159.0,-7.2,45.3,-38.28,159.412,76.026,4.298,1.97,45.1751,,,,NaN,,,,0 / 0,855,2014-12-14 13:56:40:184
-0.73562,-7.67162,2.85748,0.11582,-9.60494,1.97552,-0.85144,1.93332,0.88196,-0.43788,0.77497,-0.30508,1159.0,-5.88,46.92,-37.02,164.12,76.445,0.634,1.97,45.1751,,,,NaN,,,,0 / 0,905,2014-12-14 13:56:40:234
-1.79146,-7.50403,0.93015,0.11717,-9.63546,1.82064,-1.90863,2.13144,-0.89049,-0.54654,0.46924,-0.23477,1159.0,-6.06,47.04,-36.42,172.229,79.278,-3.682,1.97,45.1751,,,,NaN,,,,0 / 0,955,2014-12-14 13:56:40:284
-0.62788,-10.15201,1.39941,0.07302,-9.67572,1.59603,-0.7009,-0.4763,-0.19662,-0.43255,0.12942,-0.07605,1073.0,-5.76,47.52,-35.82,172.229,79.278,-3.682,1.97,45.1751,,,,NaN,,,,0 / 0,1005,2014-12-14 13:56:40:334
1.21805,-8.92139,1.22942,0.35255,-9.7459,1.03235,0.8655,0.8245,0.19707,-0.57423,0.16777,-0.28377,1073.0,-4.8,48.3,-34.86,180.146,82.125,-8.247,1.97,45.1751,,,,NaN,,,,0 / 0,1055,2014-12-14 13:56:40:384
2.15658,-12.20384,6.11838,0.5351,-9.74784,0.9297,1.62147,-2.456,5.18868,-0.67117,0.50972,-0.72053,1073.0,-4.62,48.48,-34.44,180.146,82.125,-8.247,1.97,45.1751,,,,NaN,,,,0 / 0,1106,2014-12-14 13:56:40:435
7.89548,-9.72106,14.45739,0.9924,-9.6603,1.36544,6.90308,-0.06075,13.09194,0.69556,1.47804,-1.02733,1073.0,-4.32,48.9,-34.02,218.615,80.089,-36.009,1.97,52.7299,,,,NaN,,,,0 / 0,1156,2014-12-14 13:56:40:485
0.69372,-14.70339,13.25789,1.31636,-9.40622,2.44164,-0.62264,-5.29717,10.81626,3.19467,2.84158,-1.04331,1073.0,-4.62,49.26,-33.06,218.615,80.089,-36.009,1.97,52.7299,,,,NaN,,,,0 / 0,1206,2014-12-14 13:56:40:535
-12.35228,-19.51813,-5.91248,0.98357,-8.89491,4.01059,-13.33585,-10.62322,-9.92307,3.00825,2.14596,1.10533,1039.0,-4.02,49.8,-32.22,205.04,65.097,-13.779,1.97,52.7299,,,,NaN,,,,0 / 0,1256,2014-12-14 13:56:40:585
6.24587,-8.36355,-1.26294,0.05357,-7.55146,6.2565,6.1923,-0.81208,-7.51944,2.67269,-0.62479,0.31277,1039.0,-1.62,45.24,-36.9,155.818,57.146,1.504,1.97,52.7299,,,,NaN,,,,0 / 0,1305,2014-12-14 13:56:40:634
1.63225,-5.38276,-1.72981,-0.00554,-7.18141,6.67818,1.63778,1.79864,-8.40799,1.34537,-0.15927,0.94448,1039.0,3.54,39.06,-41.58,155.818,57.146,1.504,1.97,52.7299,,,,NaN,,,,0 / 0,1356,2014-12-14 13:56:40:685
1.49099,-2.35649,-2.77608,-0.18046,-7.05242,6.8118,1.67145,4.69593,-9.58788,0.78931,0.05591,0.87736,1053.0,6.9,31.5,-45.72,207.788,45.984,1.518,1.97,52.7299,,,,NaN,,,,0 / 0,1405,2014-12-14 13:56:40:734
2.69527,0.40881,-3.25013,-0.01631,-7.06619,6.79983,2.71158,7.475,-10.04996,-0.2163,-1.46635,0.28401,1053.0,6.78,25.44,-49.2,207.788,45.984,1.518,1.97,52.7299,,,,NaN,,,,0 / 0,1456,2014-12-14 13:56:40:785
-0.46747,-1.12827,0.97085,0.17283,-7.41694,6.41332,-0.6403,6.28867,-5.44247,-1.64589,0.36804,-0.03663,1053.0,6.48,21.66,-50.58,197.046,49.14,-1.544,1.97,52.7299,,,,NaN,,,,0 / 0,1505,2014-12-14 13:56:40:834
0.31304,-4.93984,5.11521,0.19094,-7.9073,5.79726,0.1221,2.96746,-0.68205,-1.85681,-0.27858,-0.34982,1053.0,6.42,18.54,-50.82,197.046,49.14,-1.544,1.97,60.9408,,,,NaN,,,,0 / 0,1556,2014-12-14 13:56:40:885
1.63704,-7.12095,0.05866,0.52628,-8.3806,5.06538,1.11076,1.25965,-5.00672,-2.19556,-0.7686,-0.47659,1119.0,5.4,18.24,-51.18,196.973,58.714,-5.932,1.97,60.9408,,,,NaN,,,,0 / 0,1605,2014-12-14 13:56:40:934
3.14778,-6.8959,1.86389,1.22763,-9.17802,3.22903,1.92015,2.28212,-1.36514,-1.158,-0.42452,-0.35195,1119.0,4.32,24.72,-47.34,205.399,66.215,-13.364,1.97,60.9408,,,,NaN,,,,0 / 0,1656,2014-12-14 13:56:40:985
7.14131,-8.37552,0.00599,1.53019,-9.3736,2.44253,5.61111,0.99808,-2.43655,-2.17319,-0.75369,-0.20281,1119.0,3.06,26.7,-46.08,224.123,72.908,-32.066,1.97,60.9408,,,,NaN,,,,0 / 0,1706,2014-12-14 13:56:41:035
2.56838,-13.44643,-2.71143,1.78054,-9.50154,1.64946,0.78784,-3.9449,-4.36089,-1.89942,0.13368,-0.70881,1119.0,1.8,28.8,-44.22,224.123,72.908,-32.066,1.97,60.9408,,,,NaN,,,,0 / 0,1756,2014-12-14 13:56:41:085
-0.34776,-4.69084,-14.92426,1.6116,-9.4758,1.94499,-1.95935,4.78496,-16.86924,1.51262,0.89854,0.7719,1119.0,-1.02,31.32,-41.82,234.184,74.749,-43.931,1.97,60.9408,,,,NaN,,,,0 / 0,1805,2014-12-14 13:56:41:134
-0.39804,-4.42987,-11.23718,1.47109,-9.51441,1.86613,-1.86912,5.08454,-13.10332,0.19595,-1.08072,-0.0377,1119.0,-1.8,32.46,-40.92,226.337,75.074,-39.645,1.97,60.9408,,,,NaN,,,,0 / 0,1856,2014-12-14 13:56:41:185
-1.9399,-19.4056,6.13035,1.31846,-9.59626,1.53094,-3.25836,-9.80934,4.59941,-0.34094,2.69457,0.0422,1101.0,-1.5,32.16,-39.96,226.337,75.074,-39.645,1.97,60.9408,,,,NaN,,,,0 / 0,1905,2014-12-14 13:56:41:234
-0.52972,-6.18243,6.22852,1.42754,-9.58758,1.48755,-1.95726,3.40515,4.74097,-0.33774,-0.47565,-0.22838,1101.0,-0.6,28.02,-40.38,227.24,77.817,-41.268,1.97,64.0612,,,,NaN,,,,0 / 0,1955,2014-12-14 13:56:41:284
1.18214,-6.16567,3.45603,1.50416,-9.56169,1.57583,-0.32202,3.39603,1.8802,-0.05225,-0.80482,-0.1112,1101.0,0.78,28.14,-40.14,233.05,77.165,-43.667,1.97,64.0612,,,,NaN,,,,0 / 0,2005,2014-12-14 13:56:41:334
3.3872,-5.14095,1.99557,1.67504,-9.53296,1.57733,1.71215,4.39201,0.41824,-0.13002,-0.14755,-0.17405,1101.0,1.02,28.14,-39.54,233.05,77.165,-43.667,1.97,64.0612,,,,NaN,,,,0 / 0,2056,2014-12-14 13:56:41:385
2.0632,-8.22229,5.17746,1.79849,-9.49481,1.66891,0.26471,1.27252,3.50855,-0.05225,0.80479,-0.37326,1101.0,-0.06,28.14,-39.72,236.594,75.511,-47.14,1.97,64.0612,,,,NaN,,,,0 / 0,2105,2014-12-14 13:56:41:434
-0.24002,-19.51813,-1.53109,2.04884,-8.82323,3.758,-1.19396,-7.36471,17.52077,2.14219,0.89321,-0.60868,1111.0,-1.8,26.64,-39.18,236.594,75.511,-47.14,1.97,64.0612,,,,NaN,,,,0 / 0,2155,2014-12-14 13:56:41:484
-4.21679,-13.89176,-5.76883,1.84144,-8.46964,4.58744,-3.29786,-10.757,-8.93785,3.53236,0.95926,-0.32106,1111.0,-2.88,24.78,-38.16,217.329,64.122,-28.599,1.97,64.0612,,,,NaN,,,,0 / 0,2205,2014-12-14 13:56:41:534
-0.17538,-13.23096,1.29885,1.42754,-8.25476,5.0983,-1.60292,-4.9762,-3.79945,3.10093,0.53848,2.29097,1111.0,-2.76,23.52,-38.94,217.329,64.122,-28.599,1.97,64.0612,,,,NaN,,,,0 / 0,2256,2014-12-14 13:56:41:585
3.07834,-11.53586,-0.59496,1.19366,-7.8648,5.73486,1.88469,-3.67106,-6.32982,2.25511,-1.00509,0.41291,1111.0,-1.92,21.12,-40.32,197.886,53.321,-11.758,1.97,64.0612,,,,NaN,,,,0 / 0,2305,2014-12-14 13:56:41:634
4.89794,-3.17531,-1.78727,1.33312,-7.50418,6.17091,3.56482,4.32887,-7.95818,1.09397,0.08041,0.71118,1173.0,-2.1,13.8,-40.98,196.961,49.926,-12.19,1.97,59.8058,,,,NaN,,,,0 / 0,2358,2014-12-14 13:56:41:687
1.7735,-2.21763,-1.34195,1.00452,-7.53365,6.19724,0.76899,5.31603,-7.53919,-0.41444,0.79947,0.45978,1173.0,-2.16,7.68,-41.82,189.979,50.194,-9.207,1.97,59.8058,,,,NaN,,,,0 / 0,2405,2014-12-14 13:56:41:734
-0.24241,-0.81702,0.04908,0.85039,-7.91927,5.72124,-1.0928,7.10225,-5.67216,-1.36892,0.05591,-0.16979,1173.0,-2.58,5.28,-42.36,189.979,50.194,-9.207,1.97,59.8058,,,,NaN,,,,0 / 0,2455,2014-12-14 13:56:41:784
1.61309,-9.3739,4.045,0.91444,-8.29636,5.14843,-4.77449,6.34688,-3.65804,-1.9889,-0.52572,-0.04835,1173.0,-2.1,4.62,-42.18,189.36,57.778,-10.072,1.97,59.8058,,,,NaN,,,,0 / 0,2506,2014-12-14 13:56:41:835
2.20446,-10.95647,6.25006,0.96307,-8.88099,4.04605,1.21266,-0.89992,0.25753,-2.46401,-0.44476,-0.15594,1173.0,-2.4,4.62,-41.34,192.369,64.906,-13.389,1.97,59.8058,,,,NaN,,,,0 / 0,2555,2014-12-14 13:56:41:884
1.82857,-16.10639,19.82459,1.37726,-9.26855,2.89294,0.45131,-6.83784,16.93165,-1.98464,-1.38539,-0.36686,1173.0,-3.66,6.72,-40.02,202.087,70.93,-25.458,1.97,59.8058,,,,NaN,,,,0 / 0,2606,2014-12-14 13:56:41:935
1.02891,-15.72811,5.697,1.45223,-9.57007,1.57389,1.5495,-9.94806,18.2507,-1.12497,1.37471,0.24247,1173.0,-9.3,12.3,-37.68,212.054,77.387,-42.698,1.97,59.8058,,,,NaN,,,,0 / 0,2656,2014-12-14 13:56:41:985
-3.08194,-14.2461,-5.61081,1.69614,-9.48777,1.80987,-4.96722,-0.65466,-7.85163,0.43564,-0.31586,-0.19855,1173.0,-11.34,13.44,-36.48,212.054,77.387,-42.698,1.97,59.8058,,,,NaN,,,,0 / 0,2705,2014-12-14 13:56:42:034
-0.57521,-5.69401,-6.05853,1.63898,-9.50752,1.75869,-2.21419,3.81351,-7.81722,0.49316,0.81119,0.25419,1173.0,-12.42,14.7,-35.4,207.416,75.81,-42.982,1.97,60.5698,,,,NaN,,,,0 / 0,2756,2014-12-14 13:56:42:085
-3.72119,-16.56847,5.73531,1.32833,-9.64684,1.15999,-5.04952,-6.92164,4.57532,-0.60726,-0.02398,0.27869,1173.0,-13.98,15.72,-32.94,208.51,79.468,-48.852,1.97,60.5698,,,,NaN,,,,0 / 0,2805,2014-12-14 13:56:42:134
1.52211,-6.0292,4.45202,1.02277,-9.69472,1.06692,0.49934,3.66552,3.3851,-0.31111,-1.0999,0.1647,1173.0,-14.34,14.58,-32.52,202.52,81.241,-43.871,1.97,60.5698,,,,NaN,,,,0 / 0,2855,2014-12-14 13:56:42:184
7.78774,-4.20961,1.58855,1.51882,-9.63262,1.03774,6.26892,5.42302,0.55082,-0.37929,-0.23064,-0.3381,1173.0,-12.84,14.94,-31.74,202.52,81.241,-43.871,1.97,60.5698,,,,NaN,,,,0 / 0,2906,2014-12-14 13:56:42:235
0.40402,-8.25341,6.36259,1.81451,-9.55616,1.24828,-1.32145,1.75226,3.79765,-0.48901,1.42691,-0.51387,1101.0,-13.02,15.84,-30.72,221.038,77.839,-59.335,1.97,60.5698,,,,NaN,,,,0 / 0,2956,2014-12-14 13:56:42:285
1.00018,-7.07546,2.92931,1.85072,-9.53281,1.36769,-0.85054,2.45735,1.56162,0.27052,1.09241,-0.51174,1101.0,-13.68,16.68,-30.36,213.056,76.428,-53.535,1.97,60.5698,,,,NaN,,,,0 / 0,3005,2014-12-14 13:56:42:334
-1.24558,-7.77936,10.90679,1.96848,-9.44707,1.74597,-3.21407,1.66771,9.16081,0.58371,1.27777,-0.76634,1101.0,-13.44,16.86,-29.46,209.241,74.436,-48.428,1.97,60.5698,,,,NaN,,,,0 / 0,3056,2014-12-14 13:56:42:385
-4.93984,-19.51813,-3.53983,2.05423,-8.52366,4.39291,-6.99406,-10.99447,-7.93274,3.08389,1.48017,-0.50109,1101.0,-13.08,16.74,-28.44,209.241,74.436,-48.428,1.97,60.5698,,,,NaN,,,,0 / 0,3105,2014-12-14 13:56:42:434
-5.40431,-19.51813,-3.95642,2.00365,-8.46814,4.5219,-7.40796,-11.04999,-8.47832,3.0221,0.06017,1.15966,1127.0,-12.18,15.72,-27.84,181.168,59.712,-23.898,1.97,60.5698,,,,NaN,,,,0 / 0,3155,2014-12-14 13:56:42:484
7.4334,-8.72507,-2.0243,1.35138,-7.69781,5.92355,6.08202,-1.02726,-7.94785,1.79811,-1.09351,0.63235,1127.0,-10.26,12.78,-28.02,166.889,51.717,-12.851,1.97,60.5698,,,,NaN,,,,0 / 0,3206,2014-12-14 13:56:42:535
3.87801,-3.635,-1.84473,1.55653,-7.53994,6.07424,2.32148,3.90494,-7.91897,0.262,0.99654,0.38841,1127.0,-7.44,9.0,-28.02,166.889,51.717,-12.851,1.97,58.7763,,,,NaN,,,,0 / 0,3256,2014-12-14 13:56:42:585
-0.1251,-1.54246,-0.16879,1.11285,-7.78415,5.85996,-1.23795,6.24168,-6.02875,-0.6765,-0.0847,0.04113,1249.0,-6.96,8.4,-28.08,180.569,50.252,-14.373,1.97,58.7763,,,,NaN,,,,0 / 0,3305,2014-12-14 13:56:42:634
0.90202,-0.92715,-0.94212,1.11285,-7.78415,5.85996,-1.23795,6.24168,-6.02875,-0.6765,-0.0847,0.04113,1249.0,-5.28,5.4,-28.92,180.569,50.252,-14.373,1.97,58.7763,,,,NaN,,,,0 / 0,3355,2014-12-14 13:56:42:684
-4.1306,-3.42191,3.7984,1.20653,-8.57379,4.6048,-5.33712,5.15187,-0.8064,-2.63552,-0.03677,-0.09203,1249.0,-3.06,5.4,-29.82,181.406,52.538,-10.753,1.97,58.7763,,,,NaN,,,,0 / 0,3408,2014-12-14 13:56:42:737
1.71844,-10.57339,7.6818,1.1992,-8.74168,4.27964,-4.34577,2.17618,3.3878,-1.8419,-1.14784,-0.12505,1143.0,-2.94,5.4,-29.82,191.263,60.961,-14.682,1.97,58.7763,,,,NaN,,,,0 / 0,3456,2014-12-14 13:56:42:785
6.37037,-10.01076,5.34506,1.89651,-9.30207,2.45885,4.47387,-0.70868,2.88621,-1.49675,-3.37743,0.53861,1143.0,-3.54,8.46,-29.16,213.996,71.54,-37.643,1.97,58.7763,,,,NaN,,,,0 / 0,3506,2014-12-14 13:56:42:835
7.45734,-15.14153,-5.12,1.90968,-9.37091,2.17034,5.54766,-5.77062,-7.29034,-1.46905,-1.88074,0.64514,1143.0,-4.62,9.0,-28.44,213.996,71.54,-37.643,1.97,58.7763,,,,NaN,,,,0 / 0,3556,2014-12-14 13:56:42:885
-0.18974,-19.51813,-5.45758,2.16391,-9.35804,1.97881,-4.13898,3.2428,-15.26363,0.54003,1.45993,0.17429,1143.0,-10.68,11.64,-26.64,216.506,73.467,-47.582,1.97,58.7763,,,,NaN,,,,0 / 0,3605,2014-12-14 13:56:42:934
-3.87681,-3.12264,-9.86291,1.89785,-9.40427,2.03163,-16.517,-10.02243,8.35292,-0.16197,0.65353,0.42143,1007.0,-13.38,12.24,-25.08,198.489,73.531,-43.05,1.97,57.2077,,,,NaN,,,,0 / 0,3656,2014-12-14 13:56:42:985
2.21404,-8.64127,-0.27653,1.51403,-9.52937,1.75211,-0.79248,-8.01594,6.22941,-0.45279,1.21066,0.11996,1007.0,-14.22,12.6,-24.18,191.648,76.24,-40.29,1.97,57.2077,,,,NaN,,,,0 / 0,3705,2014-12-14 13:56:43:034
5.51804,-6.31411,0.08021,1.58017,-9.55107,1.56566,3.93786,3.23696,-1.48545,-0.5263,-1.31828,0.39373,1007.0,-12.6,11.88,-24.42,191.648,76.24,-40.29,1.97,57.2077,,,,NaN,,,,0 / 0,3755,2014-12-14 13:56:43:084
2.5995,-6.8528,3.84389,1.75495,-9.56588,1.2592,0.84455,2.71308,2.58469,-0.77237,-0.416,-0.11866,963.0,-11.04,12.24,-25.02,214.411,77.276,-54.34,1.97,57.2077,,,,NaN,,,,0 / 0,3805,2014-12-14 13:56:43:134
3.56437,-6.41227,5.31633,1.93751,-9.53326,1.2387,1.62686,3.12099,4.07762,-0.39207,0.17522,-0.27951,963.0,-11.46,13.08,-25.68,214.411,77.276,-54.34,1.97,57.2077,,,,NaN,,,,0 / 0,3855,2014-12-14 13:56:43:184
2.24277,-6.75225,2.34273,2.11827,-9.49017,1.27282,0.1245,2.73792,1.06991,-0.19606,0.15818,-0.4425,963.0,-12.06,13.44,-25.98,219.357,75.404,-58.999,1.97,57.2077,,,,NaN,,,,0 / 0,3906,2014-12-14 13:56:43:235
-1.34135,-4.7052,2.64679,2.2902,-9.46952,1.11944,-3.63155,4.76431,1.52735,-0.75746,0.74194,-0.45209,901.0,-12.42,14.76,-25.26,219.357,75.404,-58.999,1.97,57.2077,,,,NaN,,,,0 / 0,3958,2014-12-14 13:56:43:287
-0.11313,-9.09138,10.16698,2.16571,-9.44153,1.5287,-2.27883,0.35015,8.63828,0.38451,0.65992,-0.39669,901.0,-12.06,15.24,-25.26,215.031,74.317,-54.783,1.97,57.2077,,,,NaN,,,,0 / 0,4005,2014-12-14 13:56:43:334
0.43754,-14.39214,15.38634,2.3131,-9.19673,2.4982,-1.87556,-5.19542,12.88814,1.77361,1.17764,-0.68431,901.0,-11.88,15.84,-25.26,215.031,74.317,-54.783,1.97,59.3909,,,,NaN,,,,0 / 0,4055,2014-12-14 13:56:43:384
1.17974,-13.07054,2.30202,1.86972,-8.43522,4.63921,-0.68998,-4.63532,-2.33719,2.19759,-0.69723,1.34608,901.0,-11.52,15.96,-25.2,202.975,69.686,-42.797,1.97,59.3909,,,,NaN,,,,0 / 0,4108,2014-12-14 13:56:43:437
5.01047,-8.23665,-1.4449,1.90833,-8.03359,5.29059,3.10214,-0.20306,-6.73549,1.44551,-0.88472,0.52796,963.0,-9.9,14.1,-29.7,176.557,59.333,-21.951,1.97,59.3909,,,,NaN,,,,0 / 0,4156,2014-12-14 13:56:43:485
2.57556,-6.95336,-0.59496,1.91476,-8.00142,5.33683,0.6608,1.04806,-5.93178,0.59223,0.04952,0.66857,963.0,-8.4,11.64,-31.92,189.377,54.678,-19.737,1.97,59.3909,,,,NaN,,,,0 / 0,4205,2014-12-14 13:56:43:534
2.04405,-5.4905,0.62848,1.65709,-8.09704,5.27847,0.38696,2.60654,-4.64999,-0.00538,0.21357,0.66431,963.0,-8.22,8.94,-33.9,189.377,54.678,-19.737,1.97,59.3909,,,,NaN,,,,0 / 0,4256,2014-12-14 13:56:43:585
1.05764,-1.49937,0.04908,1.61175,-8.15989,5.19512,-0.55411,6.66052,-5.14604,-0.11191,-0.35954,0.22542,1015.0,-8.22,7.2,-35.28,186.016,56.313,-17.236,1.97,59.3909,,,,NaN,,,,0 / 0,4305,2014-12-14 13:56:43:634
0.29149,-5.5336,2.96282,1.51613,-8.59459,4.47267,-2.51571,7.35095,-5.93178,-0.64347,-0.01546,0.21903,1015.0,-7.62,6.12,-36.72,186.016,56.313,-17.236,1.97,59.3909,,,,NaN,,,,0 / 0,4355,2014-12-14 13:56:43:684
1.15101,-6.44818,4.21978,1.57524,-8.74078,4.15783,-0.79113,2.62973,-0.78455,-1.32737,-1.00935,0.30638,1015.0,-6.84,6.0,-36.84,189.992,61.212,-18.725,1.97,59.3909,,,,NaN,,,,0 / 0,4405,2014-12-14 13:56:43:734
3.45663,-6.6876,13.08312,1.507,-8.79839,4.06057,1.94963,2.11079,9.02255,-0.59021,-0.23171,0.2904,901.0,-7.44,8.1,-38.46,192.272,63.79,-20.361,1.97,58.7264,,,,NaN,,,,0 / 0,4455,2014-12-14 13:56:43:784
5.89632,-13.93006,6.99945,1.53917,-8.6287,4.39845,4.35715,-5.30136,2.601,0.52086,-2.14386,0.27656,901.0,-9.24,9.84,-38.46,192.272,63.79,-20.361,1.97,58.7264,,,,NaN,,,,0 / 0,4505,2014-12-14 13:56:43:834
19.58397,-19.51813,15.34803,1.45208,-8.61943,4.44618,18.13189,-10.8987,10.90185,4.25461,4.71431,0.93595,901.0,-11.16,12.0,-38.16,182.645,61.514,-18.087,1.97,58.7264,,,,NaN,,,,0 / 0,4555,2014-12-14 13:56:43:884
-2.71802,-4.4179,-10.38485,1.58302,-8.42549,4.76177,-4.30103,4.00759,-15.14662,1.70969,0.79414,0.03154,847.0,-12.6,11.64,-38.16,182.645,61.514,-18.087,1.97,58.7264,,,,NaN,,,,0 / 0,4606,2014-12-14 13:56:43:935
1.61309,-10.00597,3.10887,1.16702,-8.44779,4.84167,0.44607,-1.55818,-1.7328,-0.02882,1.3076,0.26803,847.0,-13.08,10.74,-38.16,172.019,59.883,-13.067,1.97,58.7264,,,,NaN,,,,0 / 0,4655,2014-12-14 13:56:43:984
2.65697,-4.8704,0.72664,1.32729,-8.39602,4.89031,1.32968,3.52561,-4.16367,0.43138,-1.27886,0.51517,847.0,-12.0,9.72,-38.76,175.186,59.479,-13.552,1.97,58.7264,,,,NaN,,,,0 / 0,4707,2014-12-14 13:56:44:036
2.15179,-8.30848,6.69778,1.45373,-8.38434,4.87445,0.69806,0.07587,1.82333,-0.22056,-0.12944,-0.21773,847.0,-9.54,8.4,-39.6,183.406,58.756,-16.606,1.97,58.7264,,,,NaN,,,,0 / 0,4755,2014-12-14 13:56:44:084
-0.42437,-8.03075,3.99473,1.44685,-8.4044,4.84197,-1.87122,0.37365,-0.84725,-0.18221,0.81971,0.05818,847.0,-9.6,8.1,-39.72,183.406,58.756,-16.606,1.97,63.4767,,,,NaN,,,,0 / 0,4805,2014-12-14 13:56:44:134
0.73203,-8.08821,4.84706,1.14578,-8.43732,4.86502,-0.41375,0.3491,-0.01796,0.04682,-0.40961,-0.27845,847.0,-11.28,8.4,-39.3,179.796,59.473,-13.881,1.97,63.4767,,,,NaN,,,,0 / 0,4856,2014-12-14 13:56:44:185
1.33776,-8.76338,4.36343,1.27117,-8.42654,4.85275,0.06659,-0.33683,-0.48931,-0.09699,-0.0112,-0.17086,847.0,-11.46,8.64,-39.54,179.068,59.234,-14.679,1.97,63.4767,,,,NaN,,,,0 / 0,4906,2014-12-14 13:56:44:235
-0.65182,-8.13131,4.78721,1.26249,-8.45602,4.80337,-1.91431,0.32471,-0.01616,-0.10125,0.1699,0.07842,779.0,-11.1,8.46,-39.42,179.068,59.234,-14.679,1.97,63.4767,,,,NaN,,,,0 / 0,4956,2014-12-14 13:56:44:285
1.10073,-7.89189,5.97473,1.10852,-8.4864,4.78795,-0.00778,0.59451,1.18678,-0.15665,0.19546,0.09653,779.0,-10.74,8.04,-39.72,176.956,59.924,-13.036,1.97,63.4767,,,,NaN,,,,0 / 0,5019,2014-12-14 13:56:44:348
0.15263,-8.37791,4.89495,1.03564,-8.49553,4.78781,-0.88301,0.11762,0.10714,-0.12895,0.00158,0.09226,779.0,-11.04,8.1,-39.3,176.956,59.924,-13.036,1.97,63.4767,,,,NaN,,,,0 / 0,5056,2014-12-14 13:56:44:385
1.67295,-8.18398,4.76326,1.05599,-8.53249,4.71733,0.61696,0.34851,0.04594,-0.11723,-0.01013,-0.0132,749.0,-11.64,8.76,-39.3,175.457,60.317,-12.247,1.97,63.4767,,,,NaN,,,,0 / 0,5106,2014-12-14 13:56:44:435
1.03848,-8.2989,4.95959,1.0735,-8.54176,4.69638,-0.03502,0.24286,0.26321,-0.09167,0.05911,-0.06539,749.0,-10.92,9.36,-39.78,176.73,60.577,-12.875,1.97,63.4767,,,,NaN,,,,0 / 0,5155,2014-12-14 13:56:44:484
0.85653,-8.19356,4.96198,1.09475,-8.54042,4.69413,-0.23822,0.34686,0.26785,-0.01816,0.0687,-0.10055,749.0,-11.34,9.36,-39.72,176.73,60.577,-12.875,1.97,54.9359,,,,NaN,,,,0 / 0,5206,2014-12-14 13:56:44:535
0.60992,-8.1744,4.43765,1.08816,-8.53548,4.70446,-0.47824,0.36108,-0.2668,-0.0139,0.10491,-0.059,749.0,-11.7,9.54,-39.78,175.119,60.502,-13.024,1.97,54.9359,,,,NaN,,,,0 / 0,5256,2014-12-14 13:56:44:585
0.02813,-7.43938,3.83431,1.09206,-8.57783,4.62605,-1.06392,1.13844,-0.79173,-0.17263,-0.44689,-0.08244,749.0,-11.28,9.6,-39.3,174.296,60.662,-12.811,1.97,54.9359,,,,NaN,,,,0 / 0,5305,2014-12-14 13:56:44:634
0.62189,-9.24461,4.71299,1.13829,-8.5889,4.59417,-0.5164,-0.65571,0.11881,0.02977,-0.13264,-0.02385,749.0,-10.92,9.12,-39.48,177.613,61.142,-13.916,1.97,54.9359,,,,NaN,,,,0 / 0,5356,2014-12-14 13:56:44:685
0.01616,-8.10258,4.3371,1.09475,-8.59309,4.59687,-1.07859,0.49051,-0.25977,-0.0171,0.1944,0.05498,749.0,-10.92,9.18,-39.78,177.613,61.142,-13.916,1.97,54.9359,,,,NaN,,,,0 / 0,5406,2014-12-14 13:56:44:735
0.76315,-8.82802,3.79601,1.05195,-8.61868,4.55871,-0.2888,-0.20934,-0.7627,-0.05864,0.07189,-0.01426,749.0,-11.4,9.78,-39.72,177.395,61.193,-13.396,1.97,54.9359,,,,NaN,,,,0 / 0,5455,2014-12-14 13:56:44:784