ACCELEROMETER X (m/s²),ACCELEROMETER Y (m/s²),ACCELEROMETER Z (m/s²),GRAVITY X (m/s²),GRAVITY Y (m/s²),GRAVITY Z (m/s²),LINEAR ACCELERATION X (m/s²),LINEAR ACCELERATION Y (m/s²),LINEAR ACCELERATION Z (m/s²),GYROSCOPE X (rad/s),GYROSCOPE Y (rad/s),GYROSCOPE Z (rad/s),LIGHT (lux),MAGNETIC FIELD X (μT),MAGNETIC FIELD Y (μT),MAGNETIC FIELD Z (μT),ORIENTATION X (°),ORIENTATION Y (°),ORIENTATION Z (°),PROXIMITY (i),SOUND LEVEL (dB),LOCATION Latitude : ,LOCATION Longitude : ,LOCATION Altitude ( m),LOCATION Altitude-google ( m),LOCATION Speed ( Kmh),LOCATION Accuracy ( m),LOCATION ORIENTATION (°),Satellites in range,Time since start in ms ,YYYY-MO-DD HH-MI-SS_SSS
0.31544,-8.66043,2.33554,0.40387,-9.45725,2.56314,-0.08844,0.79682,-0.2276,-0.3207,0.10918,0.05498,1327.0,-10.26,44.28,-40.38,172.559,74.657,-8.954,1.97,41.9145,,,,NaN,,,,0 / 0,4,2014-12-14 13:59:13:937
-1.11151,-9.3715,1.55025,0.35045,-9.50558,2.38597,-1.46196,0.13408,-0.83573,-0.45279,-0.14009,0.12849,1327.0,-10.32,44.34,-40.14,172.559,74.657,-8.954,1.97,41.9145,,,,NaN,,,,0 / 0,54,2014-12-14 13:59:13:987
2.37445,-8.93097,1.84952,0.38876,-9.54553,2.21404,1.98569,0.61456,-0.36452,-0.23548,-0.16673,-0.09096,1327.0,-10.14,44.34,-39.72,170.891,76.573,-7.422,1.97,41.9145,,,,NaN,,,,0 / 0,104,2014-12-14 13:59:14:037
-0.06524,-8.82084,2.15598,0.43066,-9.56873,2.10361,-0.4959,0.74789,0.05237,-0.47516,0.35951,0.00705,1327.0,-9.42,44.82,-39.06,178.047,77.352,-11.57,1.97,41.9145,,,,NaN,,,,0 / 0,153,2014-12-14 13:59:14:086
-1.42754,-8.7538,3.50152,0.23837,-9.61332,1.92299,-1.28524,0.9912,1.33432,-0.41764,0.55233,-0.04515,1327.0,-9.9,45.3,-38.52,178.047,77.352,-11.57,1.97,41.9145,,,,NaN,,,,0 / 0,203,2014-12-14 13:59:14:136
0.79906,-8.10737,3.5087,0.23074,-9.6214,1.88349,-0.07811,1.24109,1.66592,-0.27702,0.12303,-0.14529,1299.0,-10.92,45.3,-37.56,168.015,78.604,-7.066,1.97,41.9145,,,,NaN,,,,0 / 0,253,2014-12-14 13:59:14:186
2.23319,-7.80809,2.97958,0.40986,-9.62708,1.82304,2.26073,1.87286,0.61217,-0.2962,0.49267,-0.19961,1299.0,-10.92,46.08,-36.12,174.234,79.016,-12.671,1.97,41.9145,,,,NaN,,,,0 / 0,305,2014-12-14 13:59:14:238
1.59155,-7.87273,2.45047,0.64269,-9.63442,1.71365,1.41378,1.70572,1.04776,-0.25678,0.55552,-0.41054,1299.0,-9.9,46.98,-35.94,174.234,79.016,-12.671,1.97,49.5855,,,,NaN,,,,0 / 0,353,2014-12-14 13:59:14:286
-1.54007,-7.31488,0.8248,0.71901,-9.63606,1.67355,-2.14416,2.47994,-0.95693,-0.12363,0.37975,-0.42119,1177.0,-9.0,46.26,-36.24,186.728,79.244,-20.558,1.97,49.5855,,,,NaN,,,,0 / 0,404,2014-12-14 13:59:14:337
-1.50655,-7.86076,0.8248,0.70599,-9.65581,1.56117,-1.7337,1.80702,0.0202,-0.23868,0.12516,-0.19642,1177.0,-9.12,46.62,-35.46,192.705,79.518,-23.936,1.97,49.5855,,,,NaN,,,,0 / 0,453,2014-12-14 13:59:14:386
1.04806,-7.6812,3.70263,0.74714,-9.66255,1.49937,-0.14679,2.14895,0.47465,-0.34946,0.28495,-0.2582,1177.0,-9.0,47.22,-35.1,192.705,79.518,-23.936,1.97,49.5855,,,,NaN,,,,0 / 0,504,2014-12-14 13:59:14:437
1.22044,-16.46552,18.08221,0.98641,-9.56693,1.91626,2.21883,-1.51164,14.30805,1.84392,0.9795,-0.75994,1117.0,-8.52,46.44,-35.34,199.191,79.997,-29.076,1.97,49.5855,,,,NaN,,,,0 / 0,553,2014-12-14 13:59:14:486
-0.28311,-19.51813,17.56267,1.1341,-9.36986,2.66295,-1.41722,-10.14827,14.89972,3.05619,1.07857,-0.50321,1117.0,-8.04,46.56,-35.46,197.716,72.834,-23.068,1.97,49.5855,,,,NaN,,,,0 / 0,603,2014-12-14 13:59:14:536
-3.81456,-19.51813,8.4216,0.27054,-8.69544,4.52609,-4.08511,-10.82269,3.89552,2.35631,1.66446,2.15569,1117.0,-7.86,45.48,-35.82,197.716,72.834,-23.068,1.97,49.5855,,,,NaN,,,,0 / 0,653,2014-12-14 13:59:14:586
1.90758,-8.64606,-3.90135,-0.03502,-7.83069,5.90335,1.9426,-0.81538,-9.8047,2.11982,-1.36408,0.1466,1117.0,-7.02,40.98,-40.44,155.753,62.461,-3.421,1.97,47.9824,,,,NaN,,,,0 / 0,703,2014-12-14 13:59:14:636
4.4167,-6.36439,-3.9636,0.0425,-7.63526,6.154,4.37421,1.27087,-10.1176,0.63058,0.04739,0.6281,1117.0,-4.5,36.84,-44.46,161.52,51.131,-0.396,1.97,47.9824,,,,NaN,,,,0 / 0,753,2014-12-14 13:59:14:686
3.52845,-0.53929,-3.36505,0.05956,-7.58139,6.22014,3.4689,7.0421,-9.58519,-0.03308,0.76431,0.07948,1117.0,0.0,30.48,-47.76,161.52,51.131,-0.396,1.97,47.9824,,,,NaN,,,,0 / 0,804,2014-12-14 13:59:14:737
1.1558,1.19411,-3.43688,0.48931,-7.89922,5.79083,0.66649,9.09333,-9.2277,-1.5351,-1.09031,-0.34556,1149.0,0.18,21.9,-51.12,184.178,50.632,-0.549,1.97,47.9824,,,,NaN,,,,0 / 0,853,2014-12-14 13:59:14:786
-0.38367,-2.28946,-1.13126,0.64404,-8.22453,5.30211,-1.02771,5.93508,-6.43337,-2.08265,-0.34143,-0.16766,1149.0,-0.42,20.16,-51.72,190.953,57.0,-6.926,1.97,47.9824,,,,NaN,,,,0 / 0,904,2014-12-14 13:59:14:837
-1.21206,-9.5391,4.66989,0.82091,-8.95476,3.91272,-2.29634,-2.88696,3.11186,-2.9274,-0.54383,-0.21985,1149.0,-0.54,20.46,-51.36,194.166,65.941,-11.849,1.97,47.9824,,,,NaN,,,,0 / 0,953,2014-12-14 13:59:14:886
1.31382,-16.05133,12.68328,1.02188,-9.3311,2.83848,1.53558,-2.50987,-1.66681,-1.59582,-1.68153,0.00385,1195.0,-1.98,23.76,-49.68,199.164,71.375,-17.62,1.97,47.9824,,,,NaN,,,,0 / 0,1003,2014-12-14 13:59:14:936
10.86429,-12.6348,2.52708,1.24573,-9.46443,2.24591,9.61856,-3.17037,0.28117,-1.62991,-1.0509,-0.01213,1195.0,-2.46,26.52,-48.06,199.164,71.375,-17.62,1.97,54.7875,,,,NaN,,,,0 / 0,1053,2014-12-14 13:59:14:986
-3.73316,-5.45698,-5.70658,1.55144,-9.56992,1.47707,-5.2846,4.11294,-7.18365,-1.52125,1.50467,0.09333,1195.0,-4.62,31.44,-44.28,220.406,75.011,-38.268,1.97,54.7875,,,,NaN,,,,0 / 0,1104,2014-12-14 13:59:15:037
-1.33177,-19.51813,1.63644,1.17645,-9.6018,1.61025,-2.50823,-9.91633,0.02619,1.0748,-0.22851,0.50133,1143.0,-5.88,32.82,-43.02,213.719,78.267,-36.152,1.97,54.7875,,,,NaN,,,,0 / 0,1153,2014-12-14 13:59:15:086
2.35051,-9.46248,-1.28209,1.03893,-9.69293,1.06692,1.31157,0.23044,-2.34901,0.06706,0.00904,0.59401,1143.0,-7.2,34.2,-41.82,213.719,78.267,-36.152,1.97,54.7875,,,,NaN,,,,0 / 0,1203,2014-12-14 13:59:15:136
1.09834,-12.43129,8.424,1.07141,-9.69801,0.98551,0.02693,-2.73328,7.43849,-0.3974,-0.94757,0.02835,1143.0,-5.46,33.54,-40.92,221.106,81.266,-44.239,1.97,54.7875,,,,NaN,,,,0 / 0,1253,2014-12-14 13:59:15:186
2.33135,-2.04764,1.93571,1.27401,-9.64953,1.19755,1.05734,7.60189,0.73816,0.11712,-0.75262,-0.20281,1143.0,-5.46,32.76,-41.52,225.193,80.767,-46.48,1.97,54.7875,,,,NaN,,,,0 / 0,1303,2014-12-14 13:59:15:236
-0.55605,-7.78654,4.0881,1.43458,-9.62693,1.1983,-1.99063,1.84039,2.8898,-0.15878,0.13687,-0.16553,1143.0,-5.88,33.54,-40.56,229.199,79.012,-50.128,1.97,54.7875,,,,NaN,,,,0 / 0,1354,2014-12-14 13:59:15:287
2.33854,-5.94301,-0.54947,1.49144,-9.61122,1.25366,0.8471,3.66822,-1.80313,0.11606,0.31051,-0.24009,1165.0,-7.02,33.78,-39.6,229.199,79.012,-50.128,1.97,60.2764,,,,NaN,,,,0 / 0,1403,2014-12-14 13:59:15:336
2.91793,-9.03153,5.56293,1.80283,-9.54239,1.36514,1.1151,0.51086,4.19778,0.19063,0.45965,-0.64063,1165.0,-8.76,33.0,-38.88,231.414,78.081,-54.365,1.97,60.2764,,,,NaN,,,,0 / 0,1454,2014-12-14 13:59:15:387
0.8661,-14.49749,12.49175,1.96863,-9.42672,1.85266,-1.10253,-5.07077,10.63908,1.66176,1.47804,-0.75142,1165.0,-9.12,31.62,-38.94,223.816,73.999,-46.738,1.97,60.2764,,,,NaN,,,,0 / 0,1503,2014-12-14 13:59:15:436
-1.25995,-19.51813,-2.76411,1.79401,-9.0414,3.34739,-3.05395,-10.47673,-6.1115,2.62902,0.57044,0.60679,1147.0,-9.54,31.02,-39.3,223.816,73.999,-46.738,1.97,60.2764,,,,NaN,,,,0 / 0,1554,2014-12-14 13:59:15:487
5.13018,-17.20772,-0.25977,1.50191,-8.83894,3.97363,3.62826,-8.36878,-4.2334,2.75898,-0.17525,0.80067,1147.0,-10.08,27.24,-39.48,201.471,67.215,-28.189,1.97,60.2764,,,,NaN,,,,0 / 0,1603,2014-12-14 13:59:15:536
4.91709,-7.29812,-2.79762,1.54531,-8.09749,5.31154,3.37178,0.79936,-8.10916,1.16215,0.7217,0.1434,1147.0,-8.94,23.16,-40.14,186.936,55.661,-16.222,1.97,60.2764,,,,NaN,,,,0 / 0,1653,2014-12-14 13:59:15:586
1.51733,-2.86167,-2.28766,1.3617,-8.11575,5.33398,-2.61207,2.07697,-8.12203,0.34189,1.16485,0.18601,1249.0,-7.68,20.1,-41.34,186.936,55.661,-16.222,1.97,60.8409,,,,NaN,,,,0 / 0,1704,2014-12-14 13:59:15:637
1.27791,-0.47704,-1.34913,0.94721,-8.23186,5.2451,0.36182,5.9448,-7.54952,-0.13321,1.29588,0.24247,1249.0,-7.2,15.78,-42.96,181.548,57.078,-10.237,1.97,60.8409,,,,NaN,,,,0 / 0,1753,2014-12-14 13:59:15:686
-2.03088,3.51409,-3.41772,1.42874,-8.588,4.51382,-3.45962,12.10209,-7.93154,-2.06667,-1.3268,0.10718,1249.0,-5.28,12.18,-43.08,194.639,61.132,-17.564,1.97,60.8409,,,,NaN,,,,0 / 0,1804,2014-12-14 13:59:15:737
-0.91997,-3.87681,0.09218,1.57613,-8.94968,3.68632,-2.4961,5.07286,-3.59415,-2.9828,-0.86234,-0.13357,1249.0,-4.44,12.48,-42.96,194.639,61.132,-17.564,1.97,60.8409,,,,NaN,,,,0 / 0,1853,2014-12-14 13:59:15:786
2.25713,-15.34743,18.95849,1.62267,-9.39964,2.27719,3.13057,3.44032,2.97854,-0.72017,-1.06048,0.42463,1239.0,-4.32,12.96,-42.42,211.719,72.069,-33.001,1.97,60.8409,,,,NaN,,,,0 / 0,1903,2014-12-14 13:59:15:836
9.76296,-8.07385,-12.16614,1.68133,-9.45979,1.96354,8.00621,0.05731,-12.88978,-0.99714,-2.03627,0.28828,1239.0,-8.94,15.36,-40.32,211.745,74.716,-40.573,1.97,60.8409,,,,NaN,,,,0 / 0,1954,2014-12-14 13:59:15:887
-5.31333,-18.08161,17.12692,1.94245,-9.53955,1.18154,5.71451,-10.02303,-1.89426,-0.73402,1.85302,-0.74929,1239.0,-11.04,17.46,-38.94,211.745,74.716,-40.573,1.97,60.8409,,,,NaN,,,,0 / 0,2003,2014-12-14 13:59:15:936
-3.97018,-7.95653,-7.22211,1.5088,-9.5991,1.32399,-5.67605,1.59918,-8.61868,0.63058,0.3414,0.65153,1117.0,-13.62,19.32,-36.24,225.112,76.595,-58.689,1.97,56.03,,,,NaN,,,,0 / 0,2053,2014-12-14 13:59:15:986
1.98659,-8.02117,-11.67054,1.39956,-9.63771,1.15191,0.58703,1.61654,-12.82245,-0.01071,-0.30628,0.66964,1117.0,-14.88,19.68,-35.22,209.06,78.189,-48.733,1.97,56.03,,,,NaN,,,,0 / 0,2104,2014-12-14 13:59:16:037
-0.36931,-7.68599,4.51666,1.1374,-9.71821,0.65796,-1.5067,2.03223,3.85871,-0.79155,-0.39789,0.2414,1117.0,-15.78,17.88,-34.44,221.271,81.334,-63.404,1.97,56.03,,,,NaN,,,,0 / 0,2154,2014-12-14 13:59:16:087
3.03286,-3.89836,0.93733,1.14518,-9.7251,0.53271,1.88768,5.82674,0.40462,-0.3729,-0.81015,-0.07498,1087.0,-14.64,18.0,-34.2,221.271,81.334,-63.404,1.97,56.03,,,,NaN,,,,0 / 0,2203,2014-12-14 13:59:16:136
2.5205,-6.21116,2.4768,1.40974,-9.68799,0.57296,1.11076,3.47683,1.90384,-0.31964,-0.7473,-0.21879,1087.0,-14.16,19.38,-32.94,231.871,81.782,-71.134,1.97,56.03,,,,NaN,,,,0 / 0,2254,2014-12-14 13:59:16:187
3.27946,-5.50247,1.93332,1.52765,-9.66898,0.59152,1.29975,4.44663,2.94532,-0.2227,0.38828,-0.3594,1087.0,-14.94,20.7,-31.56,228.412,80.384,-68.833,1.97,56.03,,,,NaN,,,,0 / 0,2303,2014-12-14 13:59:16:236
1.17256,-5.6964,1.18633,1.76752,-9.62723,0.60334,-2.79583,2.61552,6.28343,-0.05651,1.45993,-0.49043,1087.0,-15.9,20.88,-30.96,228.412,80.384,-68.833,1.97,56.03,,,,NaN,,,,0 / 0,2353,2014-12-14 13:59:16:286
-1.15221,-12.13202,12.81975,1.80089,-9.5994,0.88361,-2.9531,-2.53262,11.93614,1.48705,0.96991,-0.46273,1053.0,-16.74,20.82,-30.12,227.061,79.021,-71.153,1.97,53.3195,,,,NaN,,,,0 / 0,2403,2014-12-14 13:59:16:336
-1.28389,-19.51813,-5.13197,1.7979,-9.29848,2.54504,-3.08179,-10.21965,-7.67701,2.58747,0.31584,0.43635,1053.0,-16.92,20.52,-29.1,186.476,71.473,-35.239,1.97,53.3195,,,,NaN,,,,0 / 0,2453,2014-12-14 13:59:16:386
4.09827,-17.12393,-0.63566,1.48605,-9.25479,2.88322,2.61222,-7.86914,-3.51888,1.86629,1.09987,0.94874,1053.0,-16.2,19.38,-29.16,186.476,71.473,-35.239,1.97,53.3195,,,,NaN,,,,0 / 0,2503,2014-12-14 13:59:16:436
4.03124,-7.82485,-2.49117,1.1995,-8.52276,4.70057,2.83174,0.69791,-7.19173,1.17706,0.60559,0.6739,1151.0,-14.04,15.84,-30.9,164.156,64.708,-16.671,1.97,53.3195,,,,NaN,,,,0 / 0,2553,2014-12-14 13:59:16:486
0.06404,-4.55198,-2.92691,0.94511,-8.50899,4.78287,-0.88107,3.95702,-7.70978,0.70941,0.51717,0.76019,1151.0,-12.3,13.92,-32.1,165.977,60.189,-11.178,1.97,53.3195,,,,NaN,,,,0 / 0,2604,2014-12-14 13:59:16:537
1.60352,-2.08834,-2.12725,0.7235,-8.52994,4.78421,0.88002,6.4416,-6.91146,0.10647,0.57044,0.26804,1151.0,-11.28,12.66,-33.6,165.977,60.189,-11.178,1.97,53.3195,,,,NaN,,,,0 / 0,2654,2014-12-14 13:59:16:587
-2.11707,1.51014,-3.48237,1.17555,-8.90748,3.93023,-3.54881,9.8071,-7.48203,-1.51593,-1.08179,-0.13996,1219.0,-9.48,11.22,-34.68,171.928,60.436,-8.599,1.97,53.3195,,,,NaN,,,,0 / 0,2703,2014-12-14 13:59:16:636
0.38008,-4.11623,1.29885,1.33911,-9.36821,2.57167,-2.47935,-0.19243,5.10055,-2.83792,-0.23277,-0.29868,1219.0,-5.04,9.9,-35.04,195.134,68.793,-20.744,1.97,53.3195,,,,NaN,,,,0 / 0,2753,2014-12-14 13:59:16:686
-0.80266,-14.9069,17.3855,1.35676,-9.45395,2.22556,-2.15942,-5.45294,15.15994,-1.36146,0.3169,-0.29016,1219.0,-6.24,9.96,-35.1,195.134,68.793,-20.744,1.97,57.4834,,,,NaN,,,,0 / 0,2803,2014-12-14 13:59:16:736
3.6338,-12.36426,-2.94128,1.44685,-9.58623,1.47737,2.18695,-2.77802,-4.41865,-1.43603,-2.59446,0.23608,1025.0,-9.66,12.0,-33.84,203.597,75.894,-34.431,1.97,57.4834,,,,NaN,,,,0 / 0,2853,2014-12-14 13:59:16:786
8.44375,-19.51813,6.58765,1.57,-9.59506,1.28105,6.87375,-9.92307,5.3066,0.16719,1.17231,-0.34875,1025.0,-11.46,14.04,-32.4,215.252,78.075,-50.787,1.97,57.4834,,,,NaN,,,,0 / 0,2904,2014-12-14 13:59:16:837
-1.77231,-7.04434,-11.07917,1.37697,-9.61841,1.32714,-1.43652,2.45241,-12.65814,1.54564,0.60772,0.02942,1025.0,-12.42,15.48,-31.5,215.252,78.075,-50.787,1.97,57.4834,,,,NaN,,,,0 / 0,2953,2014-12-14 13:59:16:886
-3.4267,-10.13286,-8.17021,1.07964,-9.71387,0.8049,-4.50634,-0.41899,-8.97511,-1.08556,-0.43517,0.3703,1025.0,-15.9,17.28,-28.44,202.002,78.755,-46.056,1.97,57.4834,,,,NaN,,,,0 / 0,3004,2014-12-14 13:59:16:937
1.20129,-12.44087,4.91649,0.68579,-9.75473,0.73846,0.5155,-2.68614,4.17803,-0.37503,-0.7686,-0.01745,953.0,-16.14,16.92,-28.44,205.554,82.107,-53.294,1.97,57.4834,,,,NaN,,,,0 / 0,3053,2014-12-14 13:59:16:986
5.34326,-2.90237,-0.17119,1.17061,-9.72181,0.5357,3.56796,6.98583,-0.33085,-0.67224,-0.15927,-0.3658,953.0,-13.38,16.92,-29.1,224.338,82.457,-65.41,1.97,56.8411,,,,NaN,,,,0 / 0,3103,2014-12-14 13:59:17:036
-1.97103,-6.5224,5.21816,1.35497,-9.69906,0.51281,-3.74812,4.14182,7.10614,-0.70952,0.40212,-0.43078,953.0,-13.44,18.24,-29.1,224.338,82.457,-65.41,1.97,56.8411,,,,NaN,,,,0 / 0,3154,2014-12-14 13:59:17:087
0.29868,-5.88076,1.9405,1.40929,-9.68589,0.60798,-2.34078,3.21452,4.08615,-0.07036,0.08255,-0.40415,885.0,-15.0,19.02,-28.44,222.485,80.996,-66.664,1.97,56.8411,,,,NaN,,,,0 / 0,3203,2014-12-14 13:59:17:136
-0.44353,-8.05469,8.3402,1.49623,-9.66883,0.66783,-1.93975,1.61414,7.67237,-0.21311,0.81119,-0.2369,885.0,-15.9,18.84,-28.26,222.485,80.996,-66.664,1.97,56.8411,,,,NaN,,,,0 / 0,3253,2014-12-14 13:59:17:186
-2.29903,-19.51813,11.36887,1.4458,-9.52997,1.80553,-3.77835,-9.98816,9.28322,1.17919,0.58535,-0.30614,885.0,-16.56,20.28,-28.14,220.271,80.382,-65.947,1.97,56.8411,,,,NaN,,,,0 / 0,3304,2014-12-14 13:59:17:237
0.97384,-19.51813,-4.39695,0.98013,-9.31584,2.90252,-3.51843,-10.11879,-2.01188,2.07188,-0.31693,1.14262,865.0,-16.56,20.28,-28.44,173.031,73.429,-25.793,1.97,56.8411,,,,NaN,,,,0 / 0,3353,2014-12-14 13:59:17:286
4.82851,-11.40657,-1.01634,0.83154,-9.21947,3.23726,3.99697,-2.1871,-4.2536,2.25298,0.50439,0.76125,865.0,-15.54,19.92,-30.9,162.804,70.073,-14.406,1.97,56.8411,,,,NaN,,,,0 / 0,3403,2014-12-14 13:59:17:336
3.20524,-8.20074,-3.94445,0.81044,-8.8177,4.21454,2.3948,0.61696,-8.15899,2.06336,-1.28632,0.26058,865.0,-14.22,18.18,-33.42,162.804,70.073,-14.406,1.97,56.8411,,,,NaN,,,,0 / 0,3453,2014-12-14 13:59:17:386
1.54127,-5.18883,-0.90381,0.81627,-8.79076,4.26931,0.72499,3.60193,-5.17312,0.41114,-0.43411,0.14766,865.0,-12.42,15.84,-36.66,170.024,63.69,-10.824,1.97,55.8343,,,,NaN,,,,0 / 0,3504,2014-12-14 13:59:17:437
2.24277,-1.28868,-1.63644,1.15356,-8.77191,4.23026,1.08921,7.48323,-5.86669,-0.29087,-0.34676,-0.25075,971.0,-11.04,13.26,-38.94,170.024,63.69,-10.824,1.97,55.8343,,,,NaN,,,,0 / 0,3553,2014-12-14 13:59:17:486
1.50535,-1.74837,-2.67073,1.31831,-8.8364,4.04366,0.18705,7.08803,-6.71439,-1.05254,0.37762,-0.1815,971.0,-9.6,11.04,-40.92,181.592,63.441,-15.253,1.97,55.8343,,,,NaN,,,,0 / 0,3604,2014-12-14 13:59:17:537
-0.04609,-6.4841,3.50391,1.43607,-9.23668,2.96507,-1.48216,2.75258,0.53885,-1.94949,-0.29669,-0.16126,971.0,-10.32,9.78,-41.16,188.908,66.909,-21.002,1.97,55.8343,,,,NaN,,,,0 / 0,3653,2014-12-14 13:59:17:586
-0.44592,-8.08103,9.52773,1.37113,-9.36088,2.5817,-1.81705,1.27985,6.94603,-1.39449,0.30306,0.30319,881.0,-10.74,9.72,-41.4,194.61,72.657,-27.973,1.97,55.8343,,,,NaN,,,,0 / 0,3703,2014-12-14 13:59:17:636
3.74154,-8.49762,12.96341,1.20458,-9.21977,3.11725,2.53696,0.72215,9.84615,0.59117,-0.43198,-0.06859,881.0,-10.92,12.24,-39.3,186.402,70.076,-21.128,1.97,55.8343,,,,NaN,,,,0 / 0,3753,2014-12-14 13:59:17:686
-6.41227,-19.51813,19.82459,1.05584,-9.31853,2.86706,3.13581,-10.1996,16.95753,-0.9066,-0.34569,0.15512,881.0,-11.22,13.98,-39.36,186.402,70.076,-21.128,1.97,56.0093,,,,NaN,,,,0 / 0,3803,2014-12-14 13:59:17:736
2.28586,-15.30194,-8.8789,1.0937,-9.17697,3.28006,-6.20592,0.77033,-10.37527,3.81146,4.4725,1.01159,881.0,-11.28,15.12,-39.06,185.347,71.847,-20.217,1.97,56.0093,,,,NaN,,,,0 / 0,3853,2014-12-14 13:59:17:786
-6.32368,-10.11131,-6.37696,0.76719,-9.00744,3.80124,-7.09088,-1.10388,-10.1782,-0.65413,0.55872,0.40226,779.0,-10.74,14.88,-38.94,174.382,66.707,-11.411,1.97,56.0093,,,,NaN,,,,0 / 0,3903,2014-12-14 13:59:17:836
3.52127,-19.51813,4.7489,0.47929,-9.10934,3.60028,3.04198,-10.40879,1.14862,0.46014,-0.16353,-0.28164,779.0,-9.78,14.1,-38.76,174.382,66.707,-11.411,1.97,56.0093,,,,NaN,,,,0 / 0,3954,2014-12-14 13:59:17:887
0.88286,-7.52318,2.23978,0.70285,-9.14226,3.47788,0.05656,1.0111,-0.04624,-0.44108,-0.04742,0.10825,779.0,-8.16,11.88,-39.96,178.291,68.113,-9.911,1.97,56.0093,,,,NaN,,,,0 / 0,4003,2014-12-14 13:59:17:936
0.85174,-8.32763,7.11676,0.73487,-9.13986,3.47773,0.11687,0.81223,3.63904,-0.07249,-0.5939,-0.20814,803.0,-6.42,11.1,-41.16,184.313,68.749,-11.932,1.97,56.0093,,,,NaN,,,,0 / 0,4053,2014-12-14 13:59:17:986
0.27473,-5.88076,3.86783,0.89857,-9.09497,3.55584,-0.62384,3.21422,0.31199,-0.14174,-0.03144,-0.09415,803.0,-8.1,10.8,-40.32,184.313,68.749,-11.932,1.97,56.0093,,,,NaN,,,,0 / 0,4103,2014-12-14 13:59:18:036
-0.50817,-9.27095,4.20302,0.67112,-9.11921,3.54402,-1.17929,-0.15173,0.659,-0.04586,-0.04635,-0.02385,803.0,-8.58,11.34,-40.62,179.096,68.342,-11.628,1.97,63.1995,,,,NaN,,,,0 / 0,4153,2014-12-14 13:59:18:086
1.70407,-8.78492,4.08331,0.69836,-9.11921,3.53863,1.00571,0.33429,0.54468,-0.0416,0.0442,-0.03982,755.0,-8.7,11.64,-41.52,178.875,68.42,-11.164,1.97,63.1995,,,,NaN,,,,0 / 0,4203,2014-12-14 13:59:18:136
0.10714,-8.57423,3.57574,0.7009,-9.12385,3.52636,-0.59376,0.54962,0.04938,-0.05225,-0.03463,0.05498,755.0,-8.58,12.18,-40.62,178.62,68.493,-11.242,1.97,63.1995,,,,NaN,,,,0 / 0,4254,2014-12-14 13:59:18:187
2.13024,-8.75859,3.96839,0.6816,-9.13403,3.50376,1.44864,0.37544,0.46462,-0.15132,0.03887,0.14553,755.0,-8.58,12.18,-40.62,178.62,68.493,-11.242,1.97,63.1995,,,,NaN,,,,0 / 0,4304,2014-12-14 13:59:18:237
0.90202,-8.59099,4.08331,0.7015,-9.15094,3.45543,0.20051,0.55994,0.62788,-0.20778,0.32116,-0.1112,715.0,-8.22,12.6,-41.22,180.413,68.77,-11.383,1.97,63.1995,,,,NaN,,,,0 / 0,4353,2014-12-14 13:59:18:286
0.8278,-8.97885,4.12641,0.7244,-9.17129,3.39618,0.1034,0.19243,0.73023,-0.15772,-0.05807,-0.11972,715.0,-8.52,12.66,-40.98,179.034,69.151,-11.585,1.97,63.1995,,,,NaN,,,,0 / 0,4403,2014-12-14 13:59:18:336
1.30664,-8.85914,3.91572,0.78275,-9.17353,3.37702,0.52388,0.31439,0.5387,-0.13961,0.10492,-0.10268,715.0,-8.16,13.26,-41.22,182.434,69.299,-13.05,1.97,63.1995,,,,NaN,,,,0 / 0,4454,2014-12-14 13:59:18:387
0.17897,-9.31404,3.28604,0.77004,-9.21274,3.27168,-0.59107,-0.1013,0.01437,-0.2227,0.25512,-0.07604,715.0,-8.16,13.38,-41.4,182.434,69.299,-13.05,1.97,59.5248,,,,NaN,,,,0 / 0,4503,2014-12-14 13:59:18:436
1.45029,-9.01477,3.6332,0.81942,-9.23623,3.19222,0.63087,0.22146,0.44098,-0.13321,-0.03889,-0.09415,703.0,-8.16,13.92,-41.16,182.672,69.957,-13.244,1.97,59.5248,,,,NaN,,,,0 / 0,4554,2014-12-14 13:59:18:487
0.11432,-8.64606,4.51666,0.86625,-9.2506,3.1382,-0.75193,0.60454,1.37846,-0.12043,0.06337,-0.12505,703.0,-8.34,14.58,-40.74,184.085,70.362,-14.397,1.97,59.5248,,,,NaN,,,,0 / 0,4604,2014-12-14 13:59:18:537
1.7735,-8.87351,3.19985,0.9719,-9.25568,3.09166,0.80161,0.38217,0.10819,-0.13854,0.02183,-0.14848,703.0,-7.92,14.1,-40.8,186.152,70.704,-16.17,1.97,59.5248,,,,NaN,,,,0 / 0,4653,2014-12-14 13:59:18:586
0.3322,-9.13208,3.02268,1.00646,-9.26391,3.05575,-0.67427,0.13183,-0.03307,-0.20778,0.41065,-0.19216,691.0,-7.14,14.16,-40.74,186.152,70.704,-16.17,1.97,59.5248,,,,NaN,,,,0 / 0,4703,2014-12-14 13:59:18:636
1.7735,-8.41861,2.42892,0.90606,-9.28247,3.03076,0.86745,0.86386,-0.60184,-0.06823,0.27749,-0.07498,691.0,-8.46,14.58,-40.62,187.235,71.117,-17.051,1.97,59.5248,,,,NaN,,,,0 / 0,4753,2014-12-14 13:59:18:686