sep=;
ACCELEROMETER X (m/s²);ACCELEROMETER Y (m/s²);ACCELEROMETER Z (m/s²);GRAVITY X (m/s²);GRAVITY Y (m/s²);GRAVITY Z (m/s²);LINEAR ACCELERATION X (m/s²);LINEAR ACCELERATION Y (m/s²);LINEAR ACCELERATION Z (m/s²);GYROSCOPE X (rad/s);GYROSCOPE Y (rad/s);GYROSCOPE Z (rad/s);LIGHT (lux);MAGNETIC FIELD X (μT);MAGNETIC FIELD Y (μT);MAGNETIC FIELD Z (μT);ORIENTATION X (°);ORIENTATION Y (°);ORIENTATION Z (°);PROXIMITY (i);SOUND LEVEL (dB);LOCATION Latitude : ;LOCATION Longitude : ;LOCATION Altitude ( m);LOCATION Speed ( Kmh);LOCATION Accuracy ( m);Satellites in range;Temperature (F);Level (%);Voltage (Volt);Time since start in ms ;YYYY-MO-DD HH-MI-SS_SSS
1.1031;-9.0818;3.1208;0.9893;-9.3742;2.7048;0.1139;0.2924;0.416;-0.2312;-0.1503;0.0877;23.0;-32.16;44.52;-24.18;128.47;72.17;-19.11;2.0;52.293;;;;;;0 / 0;91.6;5.0;3.572;13;2014-11-21 16:45:20:591
0.6075;-9.7139;-0.1425;0.5703;-9.7863;0.2764;0.0373;0.0724;-0.4188;-0.4932;-0.145;0.06;23.0;-32.22;44.58;-24.18;157.13;84.06;-32.97;2.0;67.897;;;;;;0 / 0;91.6;5.0;3.572;518;2014-11-21 16:45:21:096
0.5932;-9.6061;0.1257;0.7003;-9.7817;0.0298;-0.1071;0.1755;0.0959;0.0192;0.051;-0.0274;17.0;-30.06;44.88;-15.84;208.27;85.9;-87.57;2.0;47.105;;;;;;0 / 0;91.6;5.0;3.572;1030;2014-11-21 16:45:21:608
0.9284;-9.5439;-0.65;0.7527;-9.7733;-0.2988;0.1757;0.2294;-0.3512;-0.2408;0.019;0.0546;17.0;-29.94;43.56;-7.8;221.1;85.26;-111.65;2.0;47.387;;;;;;0 / 0;91.6;5.0;3.572;1548;2014-11-21 16:45:22:126
0.8517;-9.7187;-1.1863;0.5707;-9.6813;-1.4561;0.281;-0.0374;0.2698;-0.0714;-0.0023;0.012;11.0;-30.54;43.38;-7.2;273.87;80.82;-158.6;2.0;69.416;;;;;;0 / 0;91.6;5.0;3.572;2060;2014-11-21 16:45:22:638
0.5142;-9.5654;-1.634;0.543;-9.6218;-1.8162;-0.0289;0.0564;0.1821;-0.0085;-0.0086;-0.0103;11.0;-29.94;41.34;-2.22;271.46;79.33;-162.78;2.0;63.973;;;;;;0 / 0;91.6;5.0;3.572;2564;2014-11-21 16:45:23:142
0.404;-9.4385;-1.8495;0.5336;-9.6043;-1.9086;-0.1296;0.1658;0.0591;-0.0213;0.0308;0.0067;11.0;-31.02;39.48;1.32;266.84;78.46;-163.77;2.0;61.281;;;;;;0 / 0;91.6;5.0;3.572;3088;2014-11-21 16:45:23:666
0.4663;-9.4601;-1.8854;0.513;-9.5876;-1.9966;-0.0467;0.1275;0.1112;-0.033;-0.064;-0.0242;11.0;-29.58;40.38;1.02;270.32;77.87;-165.59;2.0;58.121;;;;;;0 / 0;91.6;5.0;3.572;3588;2014-11-21 16:45:24:166
0.5381;-9.4553;-1.7897;0.5501;-9.5811;-2.0176;-0.012;0.1258;0.2279;0.0043;-0.0076;-0.005;11.0;-29.58;39.24;2.16;267.45;77.68;-164.76;2.0;63.452;;;;;;0 / 0;91.6;5.0;3.572;4099;2014-11-21 16:45:24:677
0.5094;-9.4314;-1.7945;0.5414;-9.5774;-2.0379;-0.032;0.146;0.2435;0.0096;0.0212;0.0312;11.0;-30.06;39.72;2.4;268.37;77.58;-165.12;2.0;60.932;;;;;;0 / 0;91.6;5.0;3.572;4603;2014-11-21 16:45:25:181
0.744;-9.3356;-2.1296;0.5125;-9.5693;-2.0827;0.2315;0.2337;-0.047;-0.0032;-0.0321;-0.005;11.0;-30.54;38.82;2.76;267.21;77.51;-166.59;2.0;62.952;;;;;;0 / 0;91.6;5.0;3.572;5105;2014-11-21 16:45:25:683
0.3442;-9.3978;-2.0411;0.4571;-9.5701;-2.0918;-0.113;0.1722;0.0507;-0.0075;-0.0523;-0.0082;11.0;-29.58;38.94;2.82;268.81;77.39;-167.67;2.0;57.223;;;;;;0 / 0;91.6;5.0;3.572;5606;2014-11-21 16:45:26:184
0.4375;-9.3619;-2.1823;0.4606;-9.5562;-2.154;-0.023;0.1942;-0.0283;-0.0107;0.0222;0.0025;11.0;-29.4;38.82;2.58;269.98;77.02;-167.93;2.0;45.98;;;;;;0 / 0;91.6;5.0;3.572;6106;2014-11-21 16:45:26:684
0.3322;-9.3739;-2.2589;0.4553;-9.5425;-2.2146;-0.1232;0.1686;-0.0443;-0.0234;-0.0182;-0.0125;11.0;-28.86;39.54;3.06;271.4;76.67;-168.38;2.0;61.235;;;;;;0 / 0;91.6;5.0;3.572;6606;2014-11-21 16:45:27:184
0.4256;-9.3667;-2.1272;0.4818;-9.534;-2.2459;-0.0563;0.1673;0.1187;-0.0128;0.0127;0.0035;11.0;-29.46;38.58;3.78;268.79;76.45;-167.89;2.0;46.611;;;;;;0 / 0;91.6;5.0;3.572;7107;2014-11-21 16:45:27:685
0.4806;-9.3093;-2.3092;0.458;-9.5122;-2.3414;0.0226;0.2029;0.0322;-0.0234;0.0095;0.0067;11.0;-28.8;38.64;3.9;270.21;75.99;-168.65;2.0;41.506;;;;;;0 / 0;91.6;5.0;3.572;7618;2014-11-21 16:45:28:196
0.4447;-9.3308;-2.4098;0.4356;-9.4812;-2.4677;0.0091;0.1504;0.0579;-0.0213;-0.0108;-0.0029;11.0;-28.8;38.46;4.08;272.11;75.2;-169.99;2.0;50.366;;;;;;0 / 0;91.6;5.0;3.572;8125;2014-11-21 16:45:28:703
0.3897;-9.3045;-2.4146;0.4438;-9.4688;-2.5133;0.0248;0.193;0.0365;0.0011;-0.015;0.0035;11.0;-29.04;37.68;5.04;270.42;74.98;-169.95;2.0;50.148;;;;;;0 / 0;91.6;5.0;3.572;8629;2014-11-21 16:45:29:207
0.3968;-9.3691;-2.3858;0.4492;-9.4646;-2.5284;0.0625;0.1529;-0.0202;-0.0192;-0.0012;-0.0029;11.0;-28.2;37.44;5.64;268.4;74.82;-169.93;2.0;53.687;;;;;;0 / 0;91.6;5.0;3.572;9136;2014-11-21 16:45:29:714
0.4184;-9.3164;-2.4696;0.4645;-9.4426;-2.6065;-0.0293;0.1333;0.0914;-0.0256;-0.0055;-0.0071;11.0;-27.66;38.22;4.86;271.5;74.44;-169.84;2.0;40.652;;;;;;0 / 0;91.6;5.0;3.572;9640;2014-11-21 16:45:30:218
0.5142;-9.2925;-2.563;0.4676;-9.4354;-2.6318;-0.0444;0.174;0.0257;-0.0181;-0.0374;-0.0146;11.0;-28.98;37.8;5.4;271.53;74.18;-169.92;2.0;43.026;;;;;;0 / 0;91.6;5.0;3.572;10140;2014-11-21 16:45:30:718
0.4375;-9.2662;-2.6181;0.4794;-9.4279;-2.6567;-0.0491;0.1857;0.0745;0.0032;9.0E-4;-0.0093;11.0;-29.58;37.68;6.06;269.31;74.02;-169.76;2.0;44.411;;;;;;0 / 0;91.6;5.0;3.572;10640;2014-11-21 16:45:31:218
0.5668;-9.2901;-2.5127;0.4995;-9.4484;-2.5789;0.0554;0.1631;0.0614;0.0074;-0.0268;-0.0157;11.0;-28.8;37.56;5.1;270.28;74.46;-169.04;2.0;40.417;;;;;;0 / 0;91.6;5.0;3.572;11141;2014-11-21 16:45:31:719
0.5142;-9.3308;-2.3451;0.5329;-9.4604;-2.5277;0.0028;0.1511;0.0628;0.0011;-0.0076;0.0014;11.0;-28.98;36.9;6.42;266.44;74.73;-168.1;2.0;51.835;;;;;;0 / 0;91.6;5.0;3.572;11648;2014-11-21 16:45:32:226
0.4016;-9.3452;-2.4146;0.5185;-9.4519;-2.5625;-0.0187;0.1689;0.0355;-0.0213;-0.0172;-0.0125;11.0;-29.04;38.04;5.7;267.42;74.62;-168.37;2.0;61.464;;;;;;0 / 0;91.6;5.0;3.572;12174;2014-11-21 16:45:32:752
0.5022;-9.2829;-2.5582;0.5236;-9.4531;-2.5567;0.0337;0.1653;0.1278;-0.0053;0.002;-0.0029;11.0;-29.46;37.5;5.7;267.55;74.57;-168.43;2.0;39.391;;;;;;0 / 0;91.6;5.0;3.572;12681;2014-11-21 16:45:33:259
0.5549;-9.2853;-2.4816;0.5278;-9.4541;-2.5519;0.0343;0.1712;0.0177;0.0021;-0.0321;-0.0039;11.0;-28.56;37.38;5.64;266.85;74.59;-168.32;2.0;61.891;;;;;;0 / 0;91.6;5.0;3.572;13187;2014-11-21 16:45:33:765
0.5573;-9.2781;-2.4792;0.5284;-9.4549;-2.5491;0.0097;0.2031;0.0507;-0.0085;-0.0055;0.0025;11.0;-28.86;37.38;5.82;266.8;74.61;-168.29;2.0;47.497;;;;;;0 / 0;91.6;5.0;3.572;13687;2014-11-21 16:45:34:265
0.5285;-9.314;-2.472;0.5282;-9.4553;-2.5477;0.0266;0.1149;0.0494;-0.0139;-0.0012;0.0014;11.0;-28.86;37.74;5.4;269.35;74.61;-168.29;2.0;41.301;;;;;;0 / 0;91.6;5.0;3.572;14196;2014-11-21 16:45:34:774
0.4351;-9.2781;-2.5774;0.5312;-9.4525;-2.5576;0.0548;0.2031;0.0114;-0.0085;-0.0172;-0.005;11.0;-29.4;37.2;5.7;266.86;74.55;-168.27;2.0;45.985;;;;;;0 / 0;91.6;5.0;3.572;14696;2014-11-21 16:45:35:274
0.5309;-9.2805;-2.551;0.5312;-9.4523;-2.5581;-0.0027;0.2173;0.0238;-0.0075;-0.0044;-7.0E-4;11.0;-27.66;37.86;5.64;267.76;74.55;-168.27;2.0;41.981;;;;;;0 / 0;91.6;5.0;3.572;15205;2014-11-21 16:45:35:783
0.5285;-9.2757;-2.5079;0.5309;-9.452;-2.5594;-0.0287;0.1763;0.0132;-0.0043;-0.0065;3.0E-4;11.0;-27.48;37.26;6.0;267.53;74.54;-168.28;2.0;41.92;;;;;;0 / 0;91.6;5.0;3.572;15705;2014-11-21 16:45:36:283
0.5285;-9.2829;-2.5319;0.5318;-9.4517;-2.5603;-0.0105;0.1927;0.0859;-0.0043;-0.0044;0.0025;11.0;-29.46;37.8;5.94;267.44;74.54;-168.27;2.0;43.309;;;;;;0 / 0;91.6;5.0;3.572;16206;2014-11-21 16:45:36:784
0.483;-9.2566;-2.5534;0.5309;-9.4516;-2.561;-0.0383;0.1567;0.0412;-0.0096;0.0073;0.0025;11.0;-28.8;37.56;5.82;267.46;74.53;-168.28;2.0;47.569;;;;;;0 / 0;91.6;5.0;3.572;16707;2014-11-21 16:45:37:285
0.5668;-9.2302;-2.5869;0.5299;-9.4514;-2.5618;-0.0109;0.1541;0.0946;-0.0085;-0.0033;-0.0039;11.0;-28.62;37.8;5.64;267.5;74.53;-168.31;2.0;42.95;;;;;;0 / 0;91.6;5.0;3.572;17217;2014-11-21 16:45:37:795
0.574;-9.3547;-2.5534;0.532;-9.4505;-2.5645;0.0612;0.1532;0.0087;-0.0011;-0.0044;-0.0039;11.0;-28.5;37.44;5.46;269.31;74.51;-168.28;2.0;41.993;;;;;;0 / 0;91.6;5.0;3.572;17734;2014-11-21 16:45:38:312
0.5716;-9.2925;-2.5941;0.5327;-9.4505;-2.5646;-0.009;0.1772;-7.0E-4;-0.0064;-0.0065;3.0E-4;11.0;-29.16;37.08;6.12;266.91;74.51;-168.26;2.0;42.355;;;;;;0 / 0;91.6;5.0;3.572;18234;2014-11-21 16:45:38:812
0.5668;-9.2422;-2.6348;0.5348;-9.4496;-2.567;0.1015;0.138;0.0352;-0.0117;-0.0108;-0.005;11.0;-29.58;36.9;5.7;266.63;74.5;-168.25;2.0;42.702;;;;;;0 / 0;91.6;5.0;3.572;18750;2014-11-21 16:45:39:328
0.5237;-9.2733;-2.5821;0.5365;-9.4492;-2.5688;-0.0127;0.1758;-0.0133;-0.0021;-0.0033;-0.0029;11.0;-28.74;37.8;6.06;267.46;74.48;-168.2;2.0;41.365;;;;;;0 / 0;91.6;5.0;3.572;19251;2014-11-21 16:45:39:829
0.5788;-9.247;-2.5414;0.5399;-9.4484;-2.5706;0.0389;0.2014;0.0292;0.0053;-0.0012;3.0E-4;11.0;-29.76;36.48;6.24;266.02;74.46;-168.14;2.0;41.792;;;;;;0 / 0;91.6;5.0;3.572;19752;2014-11-21 16:45:40:330
0.5237;-9.2446;-2.4744;0.5412;-9.4483;-2.5706;-0.0175;0.2037;0.0962;0.0;-0.0065;0.0014;11.0;-29.76;37.02;6.0;266.54;74.46;-168.11;2.0;41.854;;;;;;0 / 0;91.6;5.0;3.572;20252;2014-11-21 16:45:40:830
0.507;-9.2781;-2.46;0.5418;-9.4487;-2.5691;-0.0349;0.1706;0.1091;-0.0011;-0.0065;0.0025;11.0;-29.16;36.9;5.4;268.8;74.47;-168.09;2.0;54.39;;;;;;0 / 0;91.6;5.0;3.572;20758;2014-11-21 16:45:41:336
0.495;-9.3021;-2.5151;0.5477;-9.4486;-2.5684;-0.0527;0.1465;0.0533;-0.0043;-0.0055;-7.0E-4;11.0;-29.52;37.74;5.46;268.86;74.46;-167.96;2.0;41.765;;;;;;0 / 0;91.6;5.0;3.572;21265;2014-11-21 16:45:41:843
0.5142;-9.2302;-2.5151;0.5472;-9.4492;-2.5666;-0.0331;0.2189;0.0515;-0.0096;-0.0097;-0.0018;11.0;-28.86;38.16;4.62;269.22;74.48;-167.96;2.0;42.073;;;;;;0 / 0;91.6;5.0;3.572;21771;2014-11-21 16:45:42:349
0.5596;-9.2781;-2.4169;0.5484;-9.4492;-2.5663;0.0112;0.171;0.1493;-0.0096;-0.0044;3.0E-4;11.0;-28.5;37.62;4.92;269.61;74.48;-167.94;2.0;40.598;;;;;;0 / 0;91.6;5.0;3.572;22281;2014-11-21 16:45:42:859
0.5213;-9.3069;-2.5989;0.5481;-9.4492;-2.566;-0.0268;0.1423;-0.0329;-0.0043;-0.0023;-7.0E-4;11.0;-29.04;36.72;5.64;266.63;74.48;-167.94;2.0;54.275;;;;;;0 / 0;91.6;5.0;3.572;22785;2014-11-21 16:45:43:363
0.507;-9.2901;-2.4624;0.548;-9.4498;-2.564;-0.041;0.1597;0.1016;0.0053;-0.0012;-7.0E-4;11.0;-29.46;37.26;5.4;268.62;74.49;-167.94;2.0;54.293;;;;;;0 / 0;91.6;5.0;3.572;23294;2014-11-21 16:45:43:872
0.5764;-9.2901;-2.405;0.549;-9.4502;-2.5622;0.0274;0.1601;0.1573;0.0043;-0.0044;-7.0E-4;11.0;-29.4;37.5;6.3;267.14;74.5;-167.91;2.0;49.65;;;;;;0 / 0;91.6;5.0;3.572;23794;2014-11-21 16:45:44:372
0.4974;-9.3045;-2.4002;0.5487;-9.4517;-2.5569;-0.0513;0.1472;0.1567;0.0021;-0.0012;3.0E-4;11.0;-29.22;37.5;5.46;269.07;74.53;-167.89;2.0;49.595;;;;;;0 / 0;91.6;5.0;3.572;24295;2014-11-21 16:45:44:873
0.5836;-9.2973;-2.3188;0.5499;-9.4528;-2.5522;0.0337;0.1555;0.2334;-0.0043;9.0E-4;0.0046;11.0;-30.12;37.02;5.52;266.16;74.55;-167.86;2.0;43.738;;;;;;0 / 0;91.6;5.0;3.572;24795;2014-11-21 16:45:45:373
0.5285;-9.3428;-2.4122;0.5493;-9.4547;-2.5456;-0.0208;0.1119;0.1335;-0.0053;-0.0129;-0.0018;11.0;-29.34;38.04;5.1;268.94;74.59;-167.84;2.0;37.326;;;;;;0 / 0;91.8;5.0;3.572;25296;2014-11-21 16:45:45:874
0.5549;-9.2518;-2.4409;0.5489;-9.4559;-2.5411;0.006;0.2041;0.1003;-0.0053;-0.014;-0.0029;11.0;-29.1;37.5;4.8;268.86;74.63;-167.81;2.0;43.673;;;;;;0 / 0;91.8;5.0;3.572;25803;2014-11-21 16:45:46:381
0.5165;-9.3284;-2.4098;0.5477;-9.4574;-2.5358;-0.0311;0.129;0.126;-0.0021;0.002;-7.0E-4;11.0;-28.44;37.98;4.92;269.21;74.66;-167.81;2.0;50.082;;;;;;0 / 0;91.8;5.0;3.572;26314;2014-11-21 16:45:46:892
0.5908;-9.3116;-2.3308;0.5472;-9.459;-2.5295;0.0435;0.1474;0.1987;0.0085;-0.0118;-0.005;11.0;-28.2;38.28;4.8;269.14;74.7;-167.79;2.0;45.833;;;;;;0 / 0;91.8;5.0;3.572;26840;2014-11-21 16:45:47:418
0.5237;-9.3595;-2.2206;0.5478;-9.461;-2.5221;-0.0241;0.1015;0.3015;0.0011;-0.0108;-7.0E-4;11.0;-29.04;38.1;5.04;268.63;74.74;-167.75;2.0;39.797;;;;;;0 / 0;91.8;5.0;3.572;27353;2014-11-21 16:45:47:931
0.4902;-9.3667;-2.2853;0.5475;-9.4637;-2.5121;-0.0573;0.097;0.2269;-0.0032;-0.0023;3.0E-4;11.0;-29.58;37.8;5.7;266.22;74.79;-167.7;2.0;41.521;;;;;;0 / 0;91.8;5.0;3.572;27854;2014-11-21 16:45:48:432
0.4687;-9.2925;-2.3331;0.5478;-9.4662;-2.5027;-0.0792;0.1737;0.1695;-0.0053;-0.0161;-0.005;11.0;-28.98;37.56;4.68;268.4;74.85;-167.67;2.0;60.059;;;;;;0 / 0;91.8;5.0;3.572;28369;2014-11-21 16:45:48:947
0.4902;-9.3811;-2.1943;0.5441;-9.4797;-2.4518;-0.0539;0.0986;0.2575;0.0053;-0.0097;3.0E-4;11.0;-29.16;37.5;3.66;269.76;75.16;-167.49;2.0;59.718;;;;;;0 / 0;91.8;5.0;3.572;28880;2014-11-21 16:45:49:458
0.5549;-9.3308;-2.1799;0.5453;-9.4824;-2.4412;0.0096;0.1516;0.2613;0.0106;-0.0086;-0.0029;11.0;-30.0;37.62;4.86;267.3;75.21;-167.43;2.0;46.697;;;;;;0 / 0;91.8;5.0;3.572;29394;2014-11-21 16:45:49:972
0.6339;-9.417;-2.1656;0.5463;-9.4852;-2.43;0.0875;0.0682;0.2644;0.0032;-0.0044;-0.0039;11.0;-30.12;38.04;4.44;269.01;75.29;-167.33;2.0;49.132;;;;;;0 / 0;91.8;5.0;3.572;29894;2014-11-21 16:45:50:472
0.574;-9.4338;-1.9046;0.5493;-9.4891;-2.4138;0.0247;0.0554;0.5092;0.0043;-0.014;-0.0018;11.0;-29.34;38.34;3.36;271.19;75.35;-167.22;2.0;53.621;;;;;;0 / 0;91.8;5.0;3.572;30405;2014-11-21 16:45:50:983
0.5549;-9.4433;-2.0243;0.5502;-9.4921;-2.4021;0.0046;0.0488;0.3778;0.0;-0.0012;0.0025;11.0;-29.46;38.22;3.66;268.97;75.45;-167.1;2.0;50.661;;;;;;0 / 0;91.8;5.0;3.572;30907;2014-11-21 16:45:51:485
0.6243;-9.3883;-1.9956;0.5513;-9.4963;-2.3849;0.073;0.108;0.3894;0.0011;-0.0044;3.0E-4;11.0;-30.18;38.64;3.06;270.8;75.52;-167.02;2.0;40.845;;;;;;0 / 0;91.8;5.0;3.572;31407;2014-11-21 16:45:51:985
0.5309;-9.4242;-1.8687;0.5525;-9.5;-2.3697;-0.0215;0.0759;0.501;-0.0053;-0.0012;0.0014;11.0;-28.62;38.22;3.24;270.46;75.63;-166.88;2.0;56.879;;;;;;0 / 0;91.8;5.0;3.572;31908;2014-11-21 16:45:52:486
0.507;-9.4194;-2.0099;0.5516;-9.5042;-2.3532;-0.0446;0.0848;0.3433;-0.0107;-0.0118;3.0E-4;11.0;-29.58;38.4;3.6;267.94;75.71;-166.83;2.0;54.229;;;;;;0 / 0;91.8;5.0;3.572;32408;2014-11-21 16:45:52:986
0.5261;-9.3907;-2.1177;0.551;-9.5066;-2.3436;-0.0248;0.116;0.226;-0.0085;-0.0044;3.0E-4;11.0;-29.46;39.36;3.24;270.64;75.79;-166.77;2.0;53.699;;;;;;0 / 0;91.8;5.0;3.572;32912;2014-11-21 16:45:53:490
0.5285;-9.4601;-1.8447;0.5504;-9.5102;-2.3291;-0.0218;0.0501;0.4844;-0.0021;-0.0076;-7.0E-4;11.0;-29.46;38.4;3.6;267.97;75.87;-166.7;2.0;48.361;;;;;;0 / 0;91.8;5.0;3.572;33419;2014-11-21 16:45:53:997
0.5285;-9.3619;-2.0099;0.5502;-9.5138;-2.3146;-0.0217;0.1519;0.3047;0.0043;-0.0012;-0.0018;11.0;-28.8;38.22;3.18;269.75;75.96;-166.63;2.0;40.347;;;;;;0 / 0;91.8;5.0;3.572;33946;2014-11-21 16:45:54:524
0.5142;-9.4314;-1.9453;0.5499;-9.517;-2.3014;-0.0358;0.0856;0.3561;-0.0021;-0.0118;-0.005;11.0;-29.34;39.36;3.0;270.14;76.02;-166.59;2.0;41.057;;;;;;0 / 0;91.8;5.0;3.572;34458;2014-11-21 16:45:55:036
0.5357;-9.4026;-1.9022;0.5495;-9.5195;-2.2913;-0.0138;0.1169;0.3891;-0.0075;-0.015;-0.0039;11.0;-28.2;39.18;3.0;270.43;76.1;-166.51;2.0;41.282;;;;;;0 / 0;91.9;4.0;3.577;34958;2014-11-21 16:45:55:536
0.5908;-9.3931;-1.9501;0.5501;-9.5223;-2.2791;0.0407;0.1293;0.3291;0.0011;0.0116;0.0014;11.0;-29.64;38.64;3.48;269.36;76.15;-166.46;2.0;40.809;;;;;;0 / 0;91.9;4.0;3.577;35459;2014-11-21 16:45:56:037
0.5549;-9.3332;-2.0458;0.5501;-9.5246;-2.2696;0.0048;0.1914;0.2237;0.0011;-0.0012;-0.0029;11.0;-29.94;37.86;4.08;266.77;76.22;-166.38;2.0;40.74;;;;;;0 / 0;91.9;4.0;3.577;35963;2014-11-21 16:45:56:541
0.5788;-9.4577;-1.9118;0.5499;-9.5282;-2.2547;0.0289;0.0705;0.343;-0.0021;-0.0118;-0.0018;11.0;-29.22;38.82;3.66;267.43;76.31;-166.29;2.0;58.626;;;;;;0 / 0;91.9;4.0;3.577;36463;2014-11-21 16:45:57:041
0.5094;-9.4218;-1.9022;0.5499;-9.5307;-2.2437;-0.0406;0.1089;0.3415;-0.0032;0.0169;0.0035;11.0;-28.38;38.46;3.36;269.22;76.38;-166.23;2.0;58.606;;;;;;0 / 0;91.9;4.0;3.577;36963;2014-11-21 16:45:57:541
0.6075;-9.3883;-1.9309;0.5574;-9.5413;-2.1965;0.0501;0.1531;0.2656;-0.0043;-0.0065;-0.0039;11.0;-29.58;38.34;4.2;265.64;76.62;-165.8;2.0;54.029;;;;;;0 / 0;91.9;4.0;3.577;37463;2014-11-21 16:45:58:041
0.586;-9.4768;-1.8687;0.5587;-9.5473;-2.17;0.0272;0.0705;0.3014;-0.0032;-0.0342;-0.0039;11.0;-30.0;37.98;3.24;267.11;76.79;-165.56;2.0;53.455;;;;;;0 / 0;91.9;4.0;3.577;37963;2014-11-21 16:45:58:541
0.5668;-9.4242;-1.8232;0.5767;-9.5683;-2.0705;-0.0099;0.1441;0.2474;0.0081;0.0171;0.0041;11.0;-29.46;38.16;3.36;265.61;77.34;-164.44;2.0;56.257;;;;;;0 / 0;91.9;4.0;3.577;38463;2014-11-21 16:45:59:041
0.4902;-9.4553;-1.7226;0.5813;-9.5838;-1.9959;-0.0911;0.1285;0.2732;0.0081;0.0054;0.0052;11.0;-29.82;39.18;3.06;264.43;77.75;-163.77;2.0;49.361;;;;;;0 / 0;91.9;4.0;3.577;38968;2014-11-21 16:45:59:546
0.4998;-9.4242;-1.8304;0.5746;-9.593;-1.954;-0.0748;0.1688;0.1236;0.0092;0.0192;0.0105;11.0;-30.36;38.52;2.76;263.88;78.01;-163.61;2.0;56.735;;;;;;0 / 0;91.9;4.0;3.577;39488;2014-11-21 16:46:00:066
0.5381;-9.5247;-1.5766;0.561;-9.6057;-1.8946;-0.0229;0.081;0.318;-0.0111;-0.0106;0.0041;11.0;-29.76;39.0;1.92;265.25;78.36;-163.52;2.0;56.946;;;;;;0 / 0;92.1;4.0;3.61;39990;2014-11-21 16:46:00:568
0.5429;-9.4816;-1.7346;0.5601;-9.6069;-1.8881;-0.0172;0.1252;0.1535;-0.0132;0.0075;0.002;11.0;-29.58;39.72;1.8;265.53;78.41;-163.48;2.0;46.537;;;;;;0 / 0;92.1;4.0;3.61;40490;2014-11-21 16:46:01:068
0.5118;-9.4673;-1.7107;0.5605;-9.6082;-1.8815;-0.0488;0.141;0.1709;-0.0057;0.0139;9.0E-4;11.0;-29.34;38.82;2.28;265.45;78.44;-163.43;2.0;50.036;;;;;;0 / 0;92.1;4.0;3.61;40996;2014-11-21 16:46:01:574
0.483;-9.4338;-1.7633;0.5593;-9.6093;-1.8766;-0.0763;0.1755;0.1133;-0.0079;0.0022;-0.0012;11.0;-29.04;39.36;2.4;265.36;78.48;-163.4;2.0;41.604;;;;;;0 / 0;92.1;4.0;3.61;41496;2014-11-21 16:46:02:074
0.5596;-9.4505;-1.7466;0.5596;-9.61;-1.8729;0.0;0.1595;0.1263;-0.01;-0.0021;0.002;11.0;-28.74;39.12;1.98;265.31;78.5;-163.37;2.0;54.293;;;;;;0 / 0;92.1;4.0;3.61;41996;2014-11-21 16:46:02:574
0.5405;-9.4385;-1.7585;0.5601;-9.6103;-1.8705;-0.0196;0.1718;0.1119;-0.01;-0.0021;0.003;11.0;-29.94;39.12;2.22;264.83;78.52;-163.33;2.0;51.293;;;;;;0 / 0;92.1;4.0;3.61;42498;2014-11-21 16:46:03:076
0.5237;-9.429;-1.8064;0.5596;-9.6108;-1.8687;-0.0359;0.1818;0.0622;-0.0025;-0.0053;0.003;11.0;-29.4;38.94;2.76;263.19;78.53;-163.33;2.0;42.802;;;;;;0 / 0;92.1;4.0;3.61;43006;2014-11-21 16:46:03:584
0.483;-9.3787;-1.8064;0.5544;-9.6118;-1.8649;0.0672;0.1709;0.0443;0.0028;-0.0127;-0.0023;11.0;-28.98;38.46;3.42;262.77;78.54;-163.34;2.0;42.978;;;;;;0 / 0;92.1;4.0;3.61;43506;2014-11-21 16:46:04:084
0.5189;-9.4553;-1.7729;0.5547;-9.6124;-1.8616;-0.0096;0.1835;0.1345;-0.0068;1.0E-4;-0.0023;11.0;-29.94;38.76;2.94;262.88;78.57;-163.41;2.0;53.456;;;;;;0 / 0;92.1;4.0;3.61;44019;2014-11-21 16:46:04:597
0.5716;-9.4218;-1.8615;0.5587;-9.612;-1.863;0.0081;0.1136;0.1016;-0.0121;-0.0021;9.0E-4;11.0;-29.64;38.94;2.58;262.78;78.56;-163.3;2.0;63.603;;;;;;0 / 0;92.1;4.0;3.61;44520;2014-11-21 16:46:05:098
0.4519;-9.4146;-1.9022;0.5592;-9.612;-1.8624;0.086;0.1425;0.0747;-0.0111;0.0033;9.0E-4;11.0;-29.34;39.48;2.22;265.13;78.56;-163.29;2.0;57.397;;;;;;0 / 0;92.1;4.0;3.593;45020;2014-11-21 16:46:05:598
0.5764;-9.4338;-1.7633;0.5596;-9.612;-1.8622;-0.0452;0.1734;-0.0039;-0.0089;0.0043;0.003;11.0;-29.22;39.0;2.82;263.09;78.56;-163.28;2.0;58.763;;;;;;0 / 0;92.1;4.0;3.593;45520;2014-11-21 16:46:06:098
0.6506;-9.4338;-1.8304;0.5605;-9.6117;-1.8634;-0.0147;0.1565;-0.0076;-0.0089;0.0022;0.002;11.0;-29.22;38.94;3.06;263.09;78.56;-163.27;2.0;56.851;;;;;;0 / 0;92.1;4.0;3.593;46023;2014-11-21 16:46:06:601
0.5046;-9.4194;-1.9884;0.5601;-9.6112;-1.8666;-4.0E-4;0.1703;0.0956;-0.0079;-0.0095;-0.0034;11.0;-28.62;38.88;3.06;263.15;78.54;-163.3;2.0;54.544;;;;;;0 / 0;92.1;4.0;3.593;46524;2014-11-21 16:46:07:102
0.5644;-9.4338;-1.9142;0.5607;-9.6103;-1.8706;0.0468;0.1959;-0.0919;-0.01;-0.0021;-0.0012;11.0;-29.4;38.94;2.94;263.19;78.52;-163.32;2.0;53.601;;;;;;0 / 0;92.1;4.0;3.593;47024;2014-11-21 16:46:07:602
0.5764;-9.4266;-1.998;0.5608;-9.6093;-1.8757;0.025;0.2255;-0.1903;-0.0068;-0.001;-2.0E-4;11.0;-29.22;37.86;3.24;262.86;78.48;-163.35;2.0;53.646;;;;;;0 / 0;92.1;4.0;3.593;47524;2014-11-21 16:46:08:102
0.6746;-9.4242;-1.9094;0.5632;-9.6078;-1.8826;0.1113;0.1836;-0.0268;-0.0036;-0.001;0.002;11.0;-29.94;37.86;3.9;260.61;78.45;-163.36;2.0;55.264;;;;;;0 / 0;92.1;4.0;3.593;48024;2014-11-21 16:46:08:602
0.6291;-9.3739;-1.9668;0.5652;-9.607;-1.886;0.0639;0.2331;-0.0808;-0.0057;0.0033;0.003;11.0;-28.68;38.58;3.48;263.35;78.42;-163.32;2.0;47.929;;;;;;0 / 0;92.1;4.0;3.593;48524;2014-11-21 16:46:09:102
0.5429;-9.4314;-1.9405;0.5665;-9.6063;-1.8893;-0.0236;0.1749;-0.0512;-0.0089;0.0054;0.003;11.0;-30.0;38.58;3.48;263.0;78.4;-163.3;2.0;53.501;;;;;;0 / 0;92.1;4.0;3.593;49025;2014-11-21 16:46:09:603
0.6578;-9.3883;-2.0674;0.5686;-9.6051;-1.8947;0.0892;0.2168;-0.1727;-0.0047;-0.0085;-2.0E-4;11.0;-29.76;37.98;3.6;260.67;78.36;-163.29;2.0;51.825;;;;;;0 / 0;92.1;4.0;3.593;49529;2014-11-21 16:46:10:107
0.586;-9.4218;-1.8926;0.5688;-9.6042;-1.8992;0.0172;0.1824;0.0066;7.0E-4;0.0054;0.0052;11.0;-30.36;38.4;3.6;260.72;78.34;-163.31;2.0;47.016;;;;;;0 / 0;92.3;4.0;3.593;50029;2014-11-21 16:46:10:607
0.6075;-9.3907;-1.9812;0.5709;-9.6031;-1.9038;0.0367;0.2125;-0.0774;-0.0036;-0.001;9.0E-4;11.0;-29.58;38.16;3.84;260.76;78.31;-163.31;2.0;46.953;;;;;;0 / 0;92.3;4.0;3.593;50529;2014-11-21 16:46:11:107
0.5285;-9.4074;-2.077;0.5712;-9.6022;-1.9088;-0.0426;0.1948;-0.1682;-0.0164;1.0E-4;0.003;11.0;-28.8;38.58;3.42;263.55;78.29;-163.32;2.0;46.084;;;;;;0 / 0;92.3;4.0;3.593;51029;2014-11-21 16:46:11:607
0.5429;-9.3811;-1.986;0.5724;-9.6007;-1.916;-0.0295;0.2197;-0.07;-0.0068;-0.0031;0.003;11.0;-29.82;38.52;3.78;261.31;78.25;-163.36;2.0;53.071;;;;;;0 / 0;92.3;4.0;3.593;51531;2014-11-21 16:46:12:109
0.5573;-9.3452;-2.0363;0.5719;-9.5997;-1.9213;-0.0147;0.2545;-0.1149;-0.0057;0.0022;0.0041;11.0;-29.28;38.82;3.78;261.72;78.2;-163.42;2.0;52.052;;;;;;0 / 0;92.3;4.0;3.593;52031;2014-11-21 16:46:12:609
0.5716;-9.429;-1.9884;0.5719;-9.5982;-1.9288;-3.0E-4;0.1692;-0.0596;-0.0025;-0.001;-2.0E-4;11.0;-28.98;37.86;4.02;261.41;78.16;-163.48;2.0;48.594;;;;;;0 / 0;92.3;4.0;3.593;52535;2014-11-21 16:46:13:113
0.6051;-9.3595;-1.9453;0.5706;-9.596;-1.9401;0.0346;0.2364;-0.0052;0.0028;-0.0117;-0.0034;11.0;-28.8;38.58;4.92;260.0;78.1;-163.61;2.0;47.001;;;;;;0 / 0;92.3;4.0;3.593;53035;2014-11-21 16:46:13:613
0.5716;-9.3835;-2.0722;0.5725;-9.5948;-1.9453;-9.0E-4;0.2113;-0.1269;-0.0068;0.0065;9.0E-4;11.0;-29.04;38.76;4.08;262.1;78.07;-163.61;2.0;42.88;;;;;;0 / 0;92.3;4.0;3.593;53541;2014-11-21 16:46:14:119
0.6051;-9.3859;-2.0674;0.5737;-9.5939;-1.9498;0.0314;0.208;-0.1176;-0.01;0.0118;0.0041;11.0;-28.98;38.76;4.02;262.15;78.04;-163.61;2.0;40.839;;;;;;0 / 0;92.3;4.0;3.593;54041;2014-11-21 16:46:14:619
0.6147;-9.3859;-2.0147;0.5757;-9.5925;-1.9558;0.0391;0.2066;-0.059;-0.0027;0.0056;0.0031;11.0;-29.58;38.04;3.9;261.49;78.0;-163.6;2.0;40.879;;;;;;0 / 0;92.3;4.0;3.593;54542;2014-11-21 16:46:15:120
0.6147;-9.3787;-2.0698;0.5766;-9.591;-1.9626;0.0382;0.2123;-0.1071;0.0016;-0.0072;-0.0012;11.0;-30.0;37.86;5.1;259.58;77.96;-163.63;2.0;41.721;;;;;;0 / 0;92.3;4.0;3.596;55042;2014-11-21 16:46:15:620
0.5501;-9.3954;-2.0674;0.5766;-9.5901;-1.9673;-0.0265;0.1947;-0.1001;-0.0038;-0.004;9.0E-4;11.0;-29.34;37.8;4.5;259.84;77.94;-163.65;2.0;41.984;;;;;;0 / 0;92.3;4.0;3.596;55543;2014-11-21 16:46:16:121
0.5812;-9.3523;-2.0482;0.5778;-9.5885;-1.9751;0.0034;0.2361;-0.0732;-0.007;-0.003;9.0E-4;11.0;-29.58;38.28;3.78;261.72;77.9;-163.69;2.0;57.211;;;;;;0 / 0;92.3;4.0;3.596;56045;2014-11-21 16:46:16:623
0.574;-9.3739;-2.156;0.5789;-9.587;-1.9814;-0.0049;0.2131;-0.1746;-0.0038;0.0034;0.002;11.0;-29.16;37.98;4.2;262.1;77.85;-163.71;2.0;53.969;;;;;;0 / 0;92.3;4.0;3.596;56546;2014-11-21 16:46:17:124
0.598;-9.4002;-2.1775;0.5798;-9.5852;-1.9899;0.0181;0.185;-0.1876;-0.0048;0.0024;-0.0012;11.0;-29.64;38.34;3.6;261.93;77.8;-163.75;2.0;48.877;;;;;;0 / 0;92.3;4.0;3.596;57046;2014-11-21 16:46:17:624
0.5501;-9.3667;-2.1775;0.5809;-9.5837;-1.9969;-0.0308;0.217;-0.1806;0.0037;-0.0168;-0.0076;11.0;-29.16;37.98;3.66;262.27;77.77;-163.76;2.0;52.148;;;;;;0 / 0;92.3;4.0;3.596;57546;2014-11-21 16:46:18:124
0.6794;-9.3595;-2.1201;0.6229;-9.5802;-2.0007;0.0564;0.2207;-0.1194;0.0154;0.0045;-0.0119;11.0;-30.18;37.86;4.86;259.42;77.68;-163.09;2.0;50.389;;;;;;0 / 0;92.3;4.0;3.596;58046;2014-11-21 16:46:18:624
0.6267;-9.417;-1.9333;0.6475;-9.5805;-1.9918;-0.0208;0.1636;0.0585;-0.0112;-0.0754;-0.0236;11.0;-29.4;37.8;4.68;258.52;77.67;-161.99;2.0;50.401;;;;;;0 / 0;92.3;4.0;3.596;58553;2014-11-21 16:46:19:131
0.6387;-9.3739;-2.1703;0.6795;-9.555;-2.1009;-0.0409;0.1811;-0.0694;-0.0102;-0.0584;-0.0214;11.0;-30.18;37.8;4.26;261.37;76.99;-162.08;2.0;59.188;;;;;;0 / 0;92.3;4.0;3.596;59053;2014-11-21 16:46:19:631
0.7153;-9.4002;-2.0626;0.6892;-9.5389;-2.1693;0.026;0.1387;0.1067;0.0133;0.0567;0.0137;11.0;-30.36;38.16;4.02;262.25;76.58;-162.37;2.0;52.094;;;;;;0 / 0;92.3;4.0;3.596;59561;2014-11-21 16:46:20:139
0.7967;-9.4625;-1.8806;0.6797;-9.5702;-2.03;0.117;0.1077;0.1493;0.0207;0.1142;0.0403;11.0;-27.9;37.86;4.08;261.43;77.06;-161.59;2.0;56.405;;;;;;0 / 0;92.1;4.0;3.602;60069;2014-11-21 16:46:20:647
0.6961;-9.3787;-2.0195;0.662;-9.5752;-2.0125;0.0341;0.1965;-0.007;0.0026;-0.1351;-0.0364;11.0;-28.86;38.58;3.66;261.07;77.52;-161.79;2.0;52.885;;;;;;0 / 0;92.1;4.0;3.602;60570;2014-11-21 16:46:21:148
0.7512;-9.4098;-1.8998;0.7174;-9.5633;-2.0491;0.0338;0.1535;0.1493;0.0069;-0.0488;-0.0172;11.0;-30.12;38.16;3.0;261.64;77.21;-160.71;2.0;47.004;;;;;;0 / 0;92.1;4.0;3.602;61070;2014-11-21 16:46:21:648
0.6961;-9.4122;-1.9285;0.734;-9.566;-2.0306;-0.0379;0.1538;0.1021;0.0069;0.0088;0.0052;11.0;-29.94;37.68;4.02;258.96;77.22;-160.07;2.0;60.924;;;;;;0 / 0;92.1;4.0;3.602;61570;2014-11-21 16:46:22:148
0.6889;-9.4697;-1.986;0.7091;-9.5521;-2.1041;-0.0202;0.0825;0.1181;-0.04;-0.2426;-0.0385;11.0;-29.28;38.76;3.6;259.8;77.23;-160.13;2.0;48.728;;;;;;0 / 0;92.1;4.0;3.602;62076;2014-11-21 16:46:22:654
0.7679;-9.3452;-2.2613;0.6298;-9.5193;-2.2712;0.1381;0.1742;0.0099;-0.0155;0.1526;0.0585;11.0;-29.46;37.98;4.08;264.52;76.01;-163.44;2.0;42.918;;;;;;0 / 0;92.1;4.0;3.602;62576;2014-11-21 16:46:23:154
0.5668;-9.3547;-2.0842;0.5869;-9.5369;-2.2081;-0.0201;0.1821;0.1239;0.0048;0.0333;0.0063;11.0;-28.98;37.44;5.94;260.86;76.53;-165.12;2.0;63.41;;;;;;0 / 0;92.1;4.0;3.602;63077;2014-11-21 16:46:23:655
0.7129;-9.3452;-2.2087;0.6153;-9.5434;-2.1715;0.0976;0.1983;-0.0371;0.0101;-0.0179;-0.0065;11.0;-28.08;38.52;4.26;265.14;76.69;-164.18;2.0;58.889;;;;;;0 / 0;92.1;4.0;3.602;63577;2014-11-21 16:46:24:155
0.6219;-9.3428;-2.1368;0.6087;-9.5518;-2.1362;0.0132;0.209;-6.0E-4;-0.0091;0.0162;0.0063;11.0;-28.86;37.98;4.5;261.8;76.91;-164.09;2.0;61.119;;;;;;0 / 0;92.1;4.0;3.602;64101;2014-11-21 16:46:24:679
0.5932;-9.4481;-2.0099;0.5914;-9.5419;-2.1847;0.0018;0.0938;0.1748;-0.0133;-0.0818;-0.0108;11.0;-29.64;38.46;4.62;261.65;76.9;-164.18;2.0;59.916;;;;;;0 / 0;92.1;4.0;3.602;64601;2014-11-21 16:46:25:179
0.6171;-9.3739;-2.2613;0.5893;-9.5165;-2.2935;0.0278;0.1426;0.0322;-0.0123;0.029;0.0137;11.0;-28.62;38.7;4.62;265.13;76.03;-165.59;2.0;53.318;;;;;;0 / 0;91.9;4.0;3.602;65102;2014-11-21 16:46:25:680
0.4711;-9.326;-2.3331;0.5743;-9.5125;-2.3141;-0.1032;0.1864;-0.019;5.0E-4;-0.0157;-0.0044;11.0;-28.68;37.86;4.92;265.24;75.93;-166.06;2.0;58.1;;;;;;0 / 0;91.9;4.0;3.602;65602;2014-11-21 16:46:26:180
0.6434;-9.2901;-2.3284;0.5866;-9.5131;-2.3086;0.0569;0.223;-0.0198;0.0112;0.0077;-0.0055;11.0;-28.5;38.4;4.62;265.23;75.94;-165.74;2.0;55.214;;;;;;0 / 0;91.9;4.0;3.602;66102;2014-11-21 16:46:26:680
0.6219;-9.3069;-2.2015;0.5885;-9.5134;-2.3068;0.0334;0.2065;0.1053;0.0058;0.0013;-0.0033;11.0;-29.04;37.38;4.86;264.35;75.95;-165.71;2.0;51.433;;;;;;0 / 0;91.9;4.0;3.602;66607;2014-11-21 16:46:27:185
0.6219;-9.3093;-2.1967;0.5905;-9.5138;-2.3046;0.0314;0.2046;0.1079;5.0E-4;0.0056;-1.0E-4;11.0;-28.44;38.04;5.1;265.09;75.96;-165.63;2.0;48.108;;;;;;0 / 0;91.9;4.0;3.602;67108;2014-11-21 16:46:27:686
0.653;-9.3739;-2.1847;0.5923;-9.5146;-2.3011;0.0608;0.1407;0.1164;-6.0E-4;0.0098;-1.0E-4;11.0;-29.34;37.38;5.28;264.16;75.98;-165.57;2.0;58.453;;;;;;0 / 0;91.9;4.0;3.602;67608;2014-11-21 16:46:28:186
0.7009;-9.3787;-2.1679;0.5953;-9.5147;-2.2996;0.1056;0.136;0.1317;0.0122;-0.0157;0.002;11.0;-29.16;37.44;5.1;264.09;75.98;-165.5;2.0;55.315;;;;;;0 / 0;91.9;4.0;3.602;68116;2014-11-21 16:46:28:694
0.6482;-9.3523;-2.3355;0.6008;-9.5096;-2.3192;0.0474;0.1573;-0.0163;-0.0038;-0.0062;-1.0E-4;11.0;-29.34;38.04;4.92;264.76;75.86;-165.49;2.0;42.322;;;;;;0 / 0;91.9;4.0;3.602;68618;2014-11-21 16:46:29:196
0.6578;-9.314;-2.2733;0.6042;-9.509;-2.3207;0.0536;0.195;0.0474;-0.0048;0.0098;0.0031;11.0;-29.76;37.02;5.7;261.93;75.85;-165.43;2.0;41.173;;;;;;0 / 0;91.9;4.0;3.602;69122;2014-11-21 16:46:29:700
0.6602;-9.3883;-2.2781;0.611;-9.5083;-2.3218;0.1187;0.2301;0.0341;-0.0038;0.0066;-0.0033;11.0;-29.52;37.68;5.7;262.08;75.84;-165.35;2.0;50.162;;;;;;0 / 0;91.9;4.0;3.602;69623;2014-11-21 16:46:30:201
0.6626;-9.3188;-2.3188;0.6228;-9.5072;-2.3234;0.0374;0.1884;-0.0265;0.0143;0.0056;-0.0012;11.0;-29.82;37.26;5.1;263.54;75.8;-164.99;2.0;42.613;;;;;;0 / 0;91.9;4.0;3.585;70123;2014-11-21 16:46:30:701
0.6985;-9.3476;-2.2494;0.6364;-9.5059;-2.3252;0.0262;0.1631;-0.0367;0.003;-0.0115;-3.0E-4;11.0;-30.18;37.08;5.82;261.32;75.78;-164.73;2.0;39.801;;;;;;0 / 0;91.9;4.0;3.585;70625;2014-11-21 16:46:31:203
0.7488;-9.3164;-2.2924;0.6509;-9.5092;-2.3073;0.0883;0.1568;0.0986;0.0147;2.0E-4;0.005;11.0;-30.12;37.38;4.98;262.94;75.81;-164.42;2.0;44.717;;;;;;0 / 0;91.9;4.0;3.585;71125;2014-11-21 16:46:31:703
0.7129;-9.3356;-2.1392;0.6596;-9.5198;-2.2606;0.0533;0.1842;0.1214;0.0168;0.0066;0.0114;11.0;-30.18;38.04;5.1;262.33;76.11;-163.73;2.0;41.367;;;;;;0 / 0;91.9;4.0;3.585;71625;2014-11-21 16:46:32:203
0.7105;-9.3739;-2.2087;0.6586;-9.5268;-2.2309;0.004;0.1457;0.142;0.0083;-0.0179;0.0039;11.0;-29.82;37.44;4.68;261.39;76.28;-163.54;2.0;41.133;;;;;;0 / 0;91.9;4.0;3.585;72125;2014-11-21 16:46:32:703
0.7177;-9.3739;-2.2302;0.6607;-9.5289;-2.2217;0.057;0.155;-0.0085;-0.0077;-0.0051;0.005;11.0;-29.64;37.38;4.38;263.74;76.32;-163.47;2.0;41.253;;;;;;0 / 0;91.9;4.0;3.585;72629;2014-11-21 16:46:33:207
0.6051;-9.3236;-2.3284;0.6607;-9.5288;-2.222;-0.0555;0.2052;-0.1064;-0.014;2.0E-4;0.0061;11.0;-29.52;37.8;4.32;263.7;76.33;-163.44;2.0;45.32;;;;;;0 / 0;91.9;4.0;3.585;73130;2014-11-21 16:46:33:708
0.7225;-9.3476;-2.2661;0.6686;-9.5246;-2.2378;0.0754;0.1866;-0.0187;-0.0023;-0.003;-0.0025;11.0;-29.46;37.68;4.8;262.08;76.22;-163.37;2.0;57.12;;;;;;0 / 0;91.9;4.0;3.585;73636;2014-11-21 16:46:34:214
0.7057;-9.35;-2.1344;0.6633;-9.5244;-2.2401;-0.0702;0.22;0.0242;0.0041;-0.0115;0.0061;11.0;-30.78;37.44;4.8;261.18;76.22;-163.5;2.0;56.22;;;;;;0 / 0;91.9;4.0;3.585;74137;2014-11-21 16:46:34:715
0.6913;-9.3428;-2.0985;0.6517;-9.5268;-2.2332;0.0349;0.1817;0.0964;9.0E-4;-0.0307;-0.0025;11.0;-29.34;37.86;4.26;264.57;76.24;-163.82;2.0;43.478;;;;;;0 / 0;91.9;4.0;3.585;74637;2014-11-21 16:46:35:215
0.5692;-9.4529;-2.0578;0.6442;-9.5277;-2.2315;0.1142;0.228;0.0013;-0.0045;0.0194;0.0167;11.0;-29.4;37.32;4.74;262.01;76.3;-163.9;2.0;45.155;;;;;;0 / 0;91.8;4.0;3.604;75138;2014-11-21 16:46:35:716
0.6027;-9.3045;-2.2781;0.6333;-9.5138;-2.2935;0.0724;0.1998;-0.078;-0.0119;-0.0339;-0.0014;11.0;-29.94;37.2;5.04;262.88;75.96;-164.56;2.0;61.81;;;;;;0 / 0;91.8;4.0;3.604;75646;2014-11-21 16:46:36:224
0.641;-9.3116;-2.3212;0.6333;-9.5134;-2.2948;0.1131;0.2257;0.0718;-0.0023;-0.0051;0.0029;11.0;-29.64;37.68;4.8;263.4;75.95;-164.57;2.0;52.467;;;;;;0 / 0;91.8;4.0;3.604;76146;2014-11-21 16:46:36:724
0.6291;-9.3763;-2.0291;0.6247;-9.5153;-2.2893;-0.0196;0.23;-0.2162;-0.0162;-0.0317;-0.0025;11.0;-29.58;37.08;5.28;263.03;75.97;-164.72;2.0;53.884;;;;;;0 / 0;91.8;4.0;3.604;76648;2014-11-21 16:46:37:226
0.665;-9.2949;-2.3619;0.6253;-9.5146;-2.2924;0.0181;0.1311;0.091;0.003;0.0098;0.0029;11.0;-28.68;38.04;5.7;261.78;75.98;-164.74;2.0;41.12;;;;;;0 / 0;91.8;4.0;3.604;77148;2014-11-21 16:46:37:726
0.5884;-9.2781;-2.3308;0.6217;-9.5144;-2.2938;0.0504;0.1908;-0.0226;-0.0098;0.0162;0.005;11.0;-29.16;36.84;5.46;261.34;75.98;-164.82;2.0;58.197;;;;;;0 / 0;91.8;4.0;3.604;77653;2014-11-21 16:46:38:231
0.6841;-9.2949;-2.2877;0.6345;-9.5068;-2.3215;0.1041;0.1808;-0.0042;-0.0066;-0.0051;-0.0025;11.0;-30.42;36.54;6.0;263.22;75.86;-164.77;2.0;46.566;;;;;;0 / 0;91.8;4.0;3.604;78154;2014-11-21 16:46:38:732
0.6817;-9.3045;-2.2853;0.6472;-9.503;-2.3337;-0.0379;0.2246;-0.1441;0.0094;-0.02;0.0039;11.0;-30.0;36.72;6.06;261.47;75.74;-164.6;2.0;40.999;;;;;;0 / 0;91.8;4.0;3.604;78654;2014-11-21 16:46:39:232
0.7536;-9.3284;-2.2685;0.6511;-9.5036;-2.3299;0.0063;0.1251;0.1182;9.0E-4;-0.0083;0.0103;11.0;-29.64;37.5;5.4;263.55;75.72;-164.4;2.0;41.055;;;;;;0 / 0;91.8;4.0;3.604;79160;2014-11-21 16:46:39:738
0.7033;-9.3236;-2.381;0.6542;-9.5027;-2.333;0.0426;0.189;0.0057;0.0019;-0.0094;0.0061;11.0;-30.0;37.68;5.46;263.52;75.71;-164.35;2.0;38.73;;;;;;0 / 0;91.8;4.0;3.604;79660;2014-11-21 16:46:40:238
0.7201;-9.3045;-2.2613;0.6526;-9.5018;-2.3367;0.0034;0.1806;0.0114;0.0051;-0.0019;0.0029;11.0;-29.46;37.38;5.46;263.43;75.67;-164.4;2.0;39.677;;;;;;0 / 0;91.8;4.0;3.612;80167;2014-11-21 16:46:40:745
0.641;-9.2949;-2.2972;0.6544;-9.5003;-2.3423;-0.0013;0.1264;0.1315;0.0051;0.0066;0.0039;11.0;-29.64;37.5;5.28;263.66;75.64;-164.39;2.0;40.598;;;;;;0 / 0;91.8;4.0;3.612;80669;2014-11-21 16:46:41:247
0.6315;-9.3236;-2.4026;0.6556;-9.4999;-2.3442;-0.0239;0.1761;-0.0578;-0.0045;-0.003;0.0039;11.0;-29.16;37.26;5.28;263.46;75.63;-164.38;2.0;40.933;;;;;;0 / 0;91.8;4.0;3.612;81169;2014-11-21 16:46:41:747
0.7536;-9.3476;-2.3595;0.6571;-9.4994;-2.3456;0.0965;0.1517;-0.0136;-0.0119;-8.0E-4;0.0061;11.0;-28.8;37.62;5.52;261.92;75.62;-164.35;2.0;38.121;;;;;;0 / 0;91.8;4.0;3.612;81669;2014-11-21 16:46:42:247
0.6626;-9.3643;-2.2709;0.6578;-9.4987;-2.3484;0.0048;0.1344;0.0772;-0.0055;0.0045;0.0082;11.0;-29.28;37.62;4.86;264.0;75.61;-164.35;2.0;57.635;;;;;;0 / 0;91.8;4.0;3.612;82169;2014-11-21 16:46:42:747
0.6722;-9.2997;-2.2996;0.6532;-9.4965;-2.3584;0.0187;0.1968;0.0585;-0.0023;0.0183;0.0114;11.0;-29.7;37.2;4.86;263.37;75.55;-164.48;2.0;60.123;;;;;;0 / 0;91.8;4.0;3.612;82669;2014-11-21 16:46:43:247
0.7344;-9.3045;-2.4098;0.6533;-9.4959;-2.361;0.0805;0.1912;-0.0482;0.0019;-0.0094;0.0018;11.0;-29.34;37.26;5.22;263.76;75.53;-164.53;2.0;57.844;;;;;;0 / 0;91.8;4.0;3.612;83177;2014-11-21 16:46:43:755
0.7153;-9.314;-2.3068;0.656;-9.4951;-2.3631;0.0594;0.1811;0.0563;0.0094;0.0066;0.0071;11.0;-29.46;37.08;5.82;261.67;75.52;-164.48;2.0;40.715;;;;;;0 / 0;91.8;4.0;3.612;83678;2014-11-21 16:46:44:256
0.6482;-9.3404;-2.2039;0.6548;-9.4959;-2.3607;-0.0066;0.1556;0.1562;9.0E-4;2.0E-4;0.0018;11.0;-28.62;36.72;4.68;263.72;75.53;-164.5;2.0;58.931;;;;;;0 / 0;91.8;4.0;3.612;84178;2014-11-21 16:46:44:756
0.744;-9.3308;-2.2805;0.6626;-9.497;-2.3535;0.0817;0.1662;0.0733;0.0083;-0.004;0.0018;11.0;-28.98;37.26;5.64;261.42;75.56;-164.3;2.0;46.162;;;;;;0 / 0;91.8;4.0;3.612;84678;2014-11-21 16:46:45:256
0.7201;-9.3691;-2.1632;0.6689;-9.5156;-2.2754;0.048;0.1522;0.0877;0.0307;0.0183;0.0071;11.0;-29.16;37.8;5.04;262.66;76.0;-163.62;2.0;39.866;;;;;;0 / 0;91.8;4.0;3.607;85179;2014-11-21 16:46:45:757
0.7225;-9.3595;-2.1105;0.6823;-9.5313;-2.2049;0.0407;0.1716;0.0952;-0.0077;-8.0E-4;0.0071;11.0;-29.94;37.56;4.86;260.97;76.39;-162.8;2.0;42.653;;;;;;0 / 0;91.8;4.0;3.607;85679;2014-11-21 16:46:46:257
0.7177;-9.4146;-2.1775;0.6847;-9.5315;-2.2033;0.0334;0.1167;0.0263;-0.0077;-8.0E-4;0.0093;11.0;-28.86;37.62;4.26;263.28;76.39;-162.76;2.0;40.553;;;;;;0 / 0;91.8;4.0;3.607;86179;2014-11-21 16:46:46:757
0.6937;-9.3236;-2.1823;0.6852;-9.5309;-2.2058;0.0088;0.2074;0.0229;-0.0151;0.0034;0.0071;11.0;-29.64;37.8;5.1;261.18;76.39;-162.73;2.0;38.49;;;;;;0 / 0;91.8;4.0;3.607;86682;2014-11-21 16:46:47:260
0.5716;-9.4026;-2.2182;0.6624;-9.5105;-2.2989;-0.0483;0.1764;0.0584;-0.0204;-0.004;0.0071;11.0;-29.4;37.8;4.5;262.02;76.18;-163.54;2.0;70.51;;;;;;0 / 0;91.8;4.0;3.607;87182;2014-11-21 16:46:47:760
0.6482;-9.2973;-2.4169;0.6557;-9.5056;-2.3207;-0.0075;0.2081;-0.0953;-0.0098;-0.004;0.0029;11.0;-29.28;37.44;5.7;261.04;75.76;-164.22;2.0;65.098;;;;;;0 / 0;91.8;4.0;3.607;87684;2014-11-21 16:46:48:262
0.5549;-9.338;-2.2613;0.6556;-9.5011;-2.3391;-0.1003;0.1633;0.0777;-2.0E-4;0.0024;0.0061;11.0;-29.22;37.08;5.7;261.32;75.66;-164.34;2.0;63.635;;;;;;0 / 0;91.8;4.0;3.607;88190;2014-11-21 16:46:48:768
0.6123;-9.3045;-2.4146;0.6568;-9.4993;-2.3463;0.0057;0.2019;-0.0057;0.0062;0.0024;0.0029;11.0;-29.28;37.56;5.82;261.94;75.61;-164.36;2.0;60.121;;;;;;0 / 0;91.8;4.0;3.607;88693;2014-11-21 16:46:49:271
0.6171;-9.3643;-2.2685;0.6599;-9.4985;-2.3484;0.1169;0.2013;0.094;0.003;-0.0019;0.005;11.0;-30.0;37.26;5.46;263.14;75.6;-164.32;2.0;59.777;;;;;;0 / 0;91.8;4.0;3.607;89193;2014-11-21 16:46:49:771
0.7272;-9.3476;-2.2541;0.6642;-9.4981;-2.3489;-0.047;0.1673;0.0539;9.0E-4;0.0034;0.0093;11.0;-30.78;37.62;5.88;261.32;75.59;-164.21;2.0;62.453;;;;;;0 / 0;91.8;4.0;3.607;89694;2014-11-21 16:46:50:272
0.5237;-9.3978;-2.0171;0.6562;-9.5116;-2.2957;0.095;0.1716;0.1062;0.0041;0.0322;0.0146;11.0;-29.58;37.26;5.1;262.76;75.69;-164.08;2.0;63.909;;;;;;0 / 0;91.9;4.0;3.596;90194;2014-11-21 16:46:50:772
0.6171;-9.2901;-2.1967;0.6572;-9.5119;-2.2945;0.0696;0.114;0.1094;0.0041;-0.0051;0.0061;11.0;-29.58;37.68;5.28;262.89;75.91;-164.02;2.0;48.575;;;;;;0 / 0;91.9;4.0;3.596;90700;2014-11-21 16:46:51:278
0.5836;-9.3356;-2.2087;0.6577;-9.5123;-2.2927;-0.0816;0.1694;0.0748;-0.0045;-0.004;0.0082;11.0;-29.16;38.04;4.86;263.16;75.92;-163.98;2.0;62.522;;;;;;0 / 0;91.9;4.0;3.596;91200;2014-11-21 16:46:51:778
0.6219;-9.3619;-2.2781;0.6578;-9.5125;-2.2921;0.0308;0.2031;0.05;-0.0034;0.0045;0.0061;11.0;-29.04;37.5;4.44;265.2;75.93;-163.99;2.0;66.71;;;;;;0 / 0;91.9;4.0;3.596;91701;2014-11-21 16:46:52:279
0.6817;-9.3835;-2.4122;0.6565;-9.5093;-2.3053;-0.0406;0.1938;0.0923;-0.0034;-0.0179;0.0018;11.0;-29.34;37.02;5.52;260.56;75.93;-163.98;2.0;61.908;;;;;;0 / 0;91.9;4.0;3.596;92201;2014-11-21 16:46:52:779
0.6434;-9.3428;-2.2661;0.6568;-9.5087;-2.3076;-0.0371;0.173;-0.0491;-0.0066;-0.0125;0.0039;11.0;-29.22;37.8;5.04;263.41;75.84;-164.11;2.0;51.548;;;;;;0 / 0;91.9;4.0;3.596;92701;2014-11-21 16:46:53:279
0.6339;-9.35;-2.3044;0.6566;-9.5084;-2.3089;0.0419;0.2064;0.0115;0.0019;0.0109;0.0082;11.0;-28.68;37.68;4.86;263.43;75.83;-164.13;2.0;49.563;;;;;;0 / 0;91.9;4.0;3.596;93203;2014-11-21 16:46:53:781
0.6051;-9.2997;-2.2733;0.6565;-9.508;-2.3107;0.0275;0.1628;-0.0055;0.0041;0.0056;0.005;11.0;-29.16;37.02;5.1;262.94;75.82;-164.14;2.0;50.161;;;;;;0 / 0;91.9;4.0;3.596;93703;2014-11-21 16:46:54:281
0.5884;-9.3739;-2.1967;0.6562;-9.508;-2.3107;0.0349;0.1291;0.0618;7.0E-4;-0.0017;-0.001;11.0;-30.06;37.02;6.3;260.66;75.82;-164.15;2.0;50.947;;;;;;0 / 0;91.9;4.0;3.596;94205;2014-11-21 16:46:54:783
0.6243;-9.3811;-2.1991;0.6565;-9.5083;-2.3097;-0.0796;0.1797;-0.042;-0.0047;0.0058;0.0011;11.0;-29.76;37.08;4.5;262.63;75.83;-164.13;2.0;44.471;;;;;;0 / 0;91.9;4.0;3.596;94710;2014-11-21 16:46:55:288
0.6482;-9.2997;-2.2996;0.6569;-9.5078;-2.3113;0.056;0.1722;-6.0E-4;0.0081;0.0058;0.0022;11.0;-29.22;37.44;4.68;262.94;75.82;-164.14;2.0;41.522;;;;;;0 / 0;91.9;4.0;3.596;95210;2014-11-21 16:46:55:788
0.6961;-9.3619;-2.2206;0.6575;-9.5083;-2.3094;-0.0093;0.1226;0.124;0.0092;-0.0049;-0.001;11.0;-30.18;37.2;5.82;260.61;75.83;-164.11;2.0;39.181;;;;;;0 / 0;91.9;4.0;3.59;95710;2014-11-21 16:46:56:288
0.6698;-9.3116;-2.3667;0.6569;-9.5083;-2.3094;-0.0109;0.1585;0.0881;-0.0092;-0.0155;-0.0044;11.0;-30.36;37.2;5.28;262.62;75.83;-164.12;2.0;53.762;;;;;;0 / 0;91.9;4.0;3.59;96213;2014-11-21 16:46:56:791
0.677;-9.314;-2.1919;0.6575;-9.5086;-2.3077;-0.0284;0.173;0.006;-0.0113;0.0026;-0.0012;11.0;-29.82;37.98;4.86;263.08;75.84;-164.1;2.0;64.938;;;;;;0 / 0;91.9;4.0;3.59;96713;2014-11-21 16:46:57:291
0.7129;-9.2949;-2.4217;0.6575;-9.5081;-2.31;-0.0423;0.1966;0.0382;0.0058;0.0101;-1.0E-4;11.0;-29.82;37.44;4.98;262.6;75.83;-164.11;2.0;61.247;;;;;;0 / 0;91.9;4.0;3.59;97217;2014-11-21 16:46:57:795
0.5932;-9.3236;-2.223;0.6574;-9.508;-2.3103;0.0409;0.1963;-0.0178;0.0122;-0.0038;-0.0022;11.0;-29.4;37.2;5.46;262.92;75.82;-164.12;2.0;47.078;;;;;;0 / 0;91.9;4.0;3.59;97717;2014-11-21 16:46:58:295
0.7416;-9.3164;-2.1847;0.6627;-9.5244;-2.2402;0.0094;0.1457;0.0958;0.0122;-0.0048;-0.0022;11.0;-29.58;36.66;4.92;261.46;76.22;-163.52;2.0;41.212;;;;;;0 / 0;91.9;4.0;3.59;98218;2014-11-21 16:46:58:796
0.5908;-9.4146;-2.065;0.6641;-9.5261;-2.2326;-0.0379;0.1832;0.0967;-0.0038;0.0048;0.0063;11.0;-29.22;37.8;4.8;262.1;76.25;-163.43;2.0;36.67;;;;;;0 / 0;91.9;4.0;3.59;98722;2014-11-21 16:46:59:300
0.6387;-9.326;-2.2589;0.6663;-9.5274;-2.2263;0.0652;0.1583;0.094;-0.0017;0.0112;0.001;11.0;-29.76;38.04;4.26;263.63;76.3;-163.33;2.0;40.508;;;;;;0 / 0;91.9;4.0;3.59;99226;2014-11-21 16:46:59:804
0.6243;-9.326;-2.2182;0.6684;-9.5285;-2.2214;-0.0012;0.1426;0.0627;4.0E-4;5.0E-4;-0.0012;11.0;-29.22;37.98;4.2;263.88;76.32;-163.25;2.0;42.268;;;;;;0 / 0;91.9;4.0;3.59;99726;2014-11-21 16:47:00:304
0.6626;-9.3811;-2.2829;0.6633;-9.5324;-2.206;-0.0127;0.1133;0.2283;0.0122;0.0058;0.001;11.0;-29.94;38.04;4.8;261.4;76.41;-163.26;2.0;40.781;;;;;;0 / 0;91.9;4.0;3.59;100233;2014-11-21 16:47:00:811
0.6746;-9.3835;-2.0315;0.6639;-9.5331;-2.2024;0.0106;0.1496;0.1709;4.0E-4;0.0058;0.002;11.0;-29.22;37.44;4.02;263.2;76.43;-163.24;2.0;42.705;;;;;;0 / 0;91.9;4.0;3.612;100734;2014-11-21 16:47:01:312
0.6602;-9.3739;-2.1536;0.665;-9.5339;-2.1989;-0.0048;0.16;0.0453;-6.0E-4;-0.0144;-0.0044;11.0;-29.4;37.86;3.78;263.69;76.47;-163.29;2.0;68.317;;;;;;0 / 0;91.9;4.0;3.612;101234;2014-11-21 16:47:01:812
0.6554;-9.4026;-2.1632;0.6601;-9.5364;-2.1893;-0.0046;0.1338;0.0262;-0.006;0.0122;0.0042;11.0;-28.98;37.98;4.2;263.56;76.51;-163.22;2.0;58.711;;;;;;0 / 0;91.9;4.0;3.612;101734;2014-11-21 16:47:02:312
0.5549;-9.3763;-2.1919;0.6607;-9.5379;-2.1828;-0.1058;0.1616;-0.0091;-0.0049;0.0037;-1.0E-4;11.0;-29.76;37.62;4.68;261.1;76.55;-163.16;2.0;43.776;;;;;;0 / 0;91.9;4.0;3.612;102236;2014-11-21 16:47:02:814
0.6578;-9.3763;-2.0339;0.6629;-9.5381;-2.1814;-0.0051;0.1618;0.1475;4.0E-4;5.0E-4;-1.0E-4;11.0;-29.76;38.04;4.2;263.02;76.56;-163.1;2.0;51.442;;;;;;0 / 0;91.9;4.0;3.612;102737;2014-11-21 16:47:03:315
0.7488;-9.3356;-2.1249;0.663;-9.5382;-2.1805;0.0857;0.2026;0.0557;-0.0038;5.0E-4;-0.0022;11.0;-29.76;37.2;4.68;260.53;76.56;-163.09;2.0;48.932;;;;;;0 / 0;91.9;4.0;3.612;103237;2014-11-21 16:47:03:815
0.6339;-9.3308;-2.1129;0.6633;-9.5382;-2.1802;-0.0295;0.2074;0.0673;4.0E-4;-0.0027;-0.0022;11.0;-29.64;37.62;4.5;261.0;76.56;-163.07;2.0;49.352;;;;;;0 / 0;91.9;4.0;3.612;103737;2014-11-21 16:47:04:315
0.7392;-9.35;-2.156;0.6659;-9.5381;-2.1807;0.0733;0.1881;0.0247;-6.0E-4;0.0143;0.0063;11.0;-29.82;37.62;4.08;262.94;76.56;-163.02;2.0;45.926;;;;;;0 / 0;91.9;4.0;3.612;104239;2014-11-21 16:47:04:817
0.6626;-9.3883;-2.1608;0.6674;-9.5381;-2.1799;-0.0048;0.1498;0.0192;0.0015;-0.0027;-0.0012;11.0;-28.86;37.98;4.5;261.19;76.56;-162.98;2.0;44.39;;;;;;0 / 0;91.9;4.0;3.612;104740;2014-11-21 16:47:05:318
0.6291;-9.4122;-2.0195;0.6674;-9.5383;-2.1786;-0.0383;0.1261;0.1591;-0.0017;-0.0091;-0.0033;11.0;-29.82;38.58;3.84;263.35;76.57;-162.97;2.0;40.953;;;;;;0 / 0;91.9;4.0;3.612;105251;2014-11-21 16:47:05:829
0.665;-9.3595;-2.1512;0.6686;-9.5383;-2.1784;-0.0036;0.1788;0.0272;-0.006;0.0022;-3.0E-4;11.0;-29.04;38.34;3.84;263.2;76.56;-162.94;2.0;42.308;;;;;;0 / 0;92.1;4.0;3.596;105752;2014-11-21 16:47:06:330
0.7057;-9.314;-2.2087;0.6711;-9.5378;-2.1801;0.0346;0.2237;-0.0286;-7.0E-4;0.0022;-3.0E-4;11.0;-29.4;38.04;4.02;263.18;76.55;-162.9;2.0;43.481;;;;;;0 / 0;92.1;4.0;3.596;106252;2014-11-21 16:47:06:830
0.6961;-9.3595;-2.156;0.6722;-9.5376;-2.1805;0.0239;0.1781;0.0245;0.0089;0.0044;8.0E-4;11.0;-29.4;37.5;5.1;261.09;76.55;-162.87;2.0;41.473;;;;;;0 / 0;92.1;4.0;3.596;106753;2014-11-21 16:47:07:331
0.7464;-9.3428;-2.1823;0.6755;-9.5378;-2.1789;0.0709;0.195;-0.0034;0.0057;0.0033;0.004;11.0;-29.58;38.04;4.68;260.73;76.55;-162.79;2.0;41.175;;;;;;0 / 0;92.1;4.0;3.596;107253;2014-11-21 16:47:07:831
0.7392;-9.3476;-2.2134;0.6722;-9.5403;-2.169;0.067;0.1927;-0.0444;-0.0039;0.0108;0.0072;11.0;-29.46;37.68;4.68;260.91;76.62;-162.81;2.0;40.739;;;;;;0 / 0;92.1;4.0;3.596;107753;2014-11-21 16:47:08:331
0.6674;-9.3907;-2.1799;0.6738;-9.54;-2.1691;-0.0064;0.1493;-0.0108;-0.0017;0.0054;0.0051;11.0;-29.04;38.04;4.08;262.94;76.61;-162.75;2.0;40.755;;;;;;0 / 0;92.1;4.0;3.596;108253;2014-11-21 16:47:08:831
0.6267;-9.3667;-2.1033;0.6735;-9.5397;-2.1706;-0.0468;0.173;0.0673;0.0047;0.0054;8.0E-4;11.0;-30.36;37.62;4.2;262.62;76.6;-162.76;2.0;41.884;;;;;;0 / 0;92.1;4.0;3.596;108756;2014-11-21 16:47:09:334
0.6961;-9.3715;-2.0746;0.6753;-9.5398;-2.1699;0.0208;0.1683;0.0953;4.0E-4;0.0012;-0.0013;11.0;-30.36;37.98;4.38;262.57;76.6;-162.71;2.0;40.567;;;;;;0 / 0;92.1;4.0;3.596;109256;2014-11-21 16:47:09:834
0.6937;-9.3356;-2.1392;0.6758;-9.54;-2.1687;0.018;0.2044;0.0295;-0.0081;0.0012;8.0E-4;11.0;-30.6;37.26;4.62;259.83;76.61;-162.69;2.0;40.153;;;;;;0 / 0;92.1;4.0;3.596;109757;2014-11-21 16:47:10:335
0.6698;-9.4146;-2.0267;0.6776;-9.5397;-2.1696;-0.0078;0.1251;0.1429;0.0015;0.0044;0.004;11.0;-29.94;37.5;4.8;260.51;76.6;-162.65;2.0;40.422;;;;;;0 / 0;92.1;4.0;3.596;110257;2014-11-21 16:47:10:835
0.6363;-9.3715;-2.1608;0.6747;-9.5383;-2.1763;-0.0385;0.1668;0.0156;4.0E-4;-0.0106;-0.0024;11.0;-30.0;37.62;4.92;260.69;76.56;-162.78;2.0;42.074;;;;;;0 / 0;92.1;4.0;3.601;110757;2014-11-21 16:47:11:335
0.6626;-9.3978;-2.1775;0.6762;-9.5379;-2.178;-0.0136;0.1401;4.0E-4;-0.0103;0.0022;8.0E-4;11.0;-30.0;37.98;4.5;260.68;76.55;-162.75;2.0;40.986;;;;;;0 / 0;92.1;4.0;3.601;111257;2014-11-21 16:47:11:835
0.665;-9.338;-2.2422;0.677;-9.5372;-2.181;-0.012;0.1992;-0.0612;-0.0103;-0.0042;8.0E-4;11.0;-29.4;38.22;4.38;263.05;76.54;-162.75;2.0;40.406;;;;;;0 / 0;92.1;4.0;3.601;111760;2014-11-21 16:47:12:338
0.6937;-9.3236;-2.314;0.6776;-9.536;-2.1861;0.0162;0.2123;-0.1279;0.0013;-0.0056;-0.0027;11.0;-29.76;37.8;4.8;260.76;76.51;-162.77;2.0;41.893;;;;;;0 / 0;92.1;4.0;3.601;112260;2014-11-21 16:47:12:838
0.7608;-9.3356;-2.2589;0.6783;-9.5351;-2.1898;0.0825;0.1995;-0.0691;0.0077;0.0029;-0.0027;11.0;-29.34;37.62;4.62;261.11;76.48;-162.79;2.0;46.219;;;;;;0 / 0;92.1;4.0;3.601;112760;2014-11-21 16:47:13:338
0.6746;-9.3332;-2.1488;0.6794;-9.5342;-2.1931;-0.0048;0.201;0.0443;0.0077;-3.0E-4;-0.0016;11.0;-29.82;37.26;4.92;260.37;76.46;-162.79;2.0;44.498;;;;;;0 / 0;92.1;4.0;3.601;113260;2014-11-21 16:47:13:838
0.6937;-9.3691;-2.2158;0.6804;-9.5336;-2.1955;0.0133;0.1645;-0.0204;2.0E-4;0.0104;0.0048;11.0;-29.46;37.44;4.62;260.65;76.45;-162.78;2.0;46.706;;;;;;0 / 0;92.1;4.0;3.601;113760;2014-11-21 16:47:14:338
0.6363;-9.3954;-2.2182;0.6809;-9.5328;-2.1988;-0.0446;0.1374;-0.0195;-0.0094;0.004;0.0048;11.0;-30.06;37.44;5.1;260.42;76.43;-162.79;2.0;47.056;;;;;;0 / 0;92.1;4.0;3.601;114260;2014-11-21 16:47:14:838
0.6099;-9.3308;-2.3499;0.6795;-9.5318;-2.2034;-0.0696;0.201;-0.1465;0.0023;-0.0024;5.0E-4;11.0;-29.82;37.5;4.86;261.01;76.4;-162.86;2.0;46.79;;;;;;0 / 0;92.1;4.0;3.601;114760;2014-11-21 16:47:15:338
0.6889;-9.2997;-2.2446;0.6792;-9.5303;-2.21;0.0097;0.2306;-0.0346;0.0087;0.0051;-6.0E-4;11.0;-28.98;37.44;4.26;262.97;76.36;-162.92;2.0;43.367;;;;;;0 / 0;92.1;4.0;3.601;115260;2014-11-21 16:47:15:838
0.6602;-9.3164;-2.2446;0.6797;-9.5297;-2.2128;-0.0195;0.2132;-0.0317;0.014;-0.0013;-0.0038;11.0;-29.76;37.68;5.04;261.16;76.35;-162.93;2.0;42.639;;;;;;0 / 0;92.1;4.0;3.607;115760;2014-11-21 16:47:16:338
0.6889;-9.3452;-2.2326;0.6801;-9.5288;-2.2164;0.0088;0.1836;-0.0162;0.0109;0.0029;-6.0E-4;11.0;-29.82;37.26;5.4;260.71;76.33;-162.95;2.0;41.479;;;;;;0 / 0;92.1;4.0;3.607;116260;2014-11-21 16:47:16:838
0.6722;-9.168;-2.6564;0.6798;-9.5279;-2.22;-0.0076;0.3599;-0.4363;0.0194;0.0061;5.0E-4;11.0;-28.98;37.56;4.8;261.56;76.3;-162.97;2.0;41.061;;;;;;0 / 0;92.1;4.0;3.607;116760;2014-11-21 16:47:17:338
0.6602;-9.4433;-1.8878;0.6913;-9.533;-2.1944;-0.0311;0.0896;0.3066;-0.0041;0.069;0.0207;11.0;-29.64;37.62;4.8;261.25;76.29;-162.94;2.0;41.492;;;;;;0 / 0;92.1;4.0;3.607;117260;2014-11-21 16:47:17:838
0.8661;-9.2686;-2.551;0.7045;-9.5286;-2.2095;0.1616;0.2601;-0.3415;0.014;0.0615;0.0122;11.0;-29.4;37.68;4.44;262.93;76.32;-162.32;2.0;42.64;;;;;;0 / 0;92.1;4.0;3.607;117764;2014-11-21 16:47:18:342
0.6554;-9.3523;-2.0458;0.7021;-9.5509;-2.1115;-0.0467;0.1986;0.0657;0.0236;0.0104;0.0016;11.0;-29.04;38.16;4.86;259.28;76.89;-161.61;2.0;52.692;;;;;;0 / 0;92.1;4.0;3.607;118282;2014-11-21 16:47:18:860
0.6937;-9.3284;-1.9908;0.7118;-9.5675;-2.0316;-0.0181;0.2391;0.0409;0.013;0.0189;-6.0E-4;11.0;-29.58;37.62;3.6;259.47;77.32;-160.69;2.0;51.371;;;;;;0 / 0;92.1;4.0;3.607;118782;2014-11-21 16:47:19:360
0.7129;-9.35;-2.0554;0.7067;-9.5678;-2.0319;0.0061;0.2179;-0.0235;0.0045;0.0019;-0.0038;11.0;-30.6;37.8;4.26;259.3;77.33;-160.82;2.0;57.758;;;;;;0 / 0;92.1;4.0;3.607;119282;2014-11-21 16:47:19:860
0.6913;-9.4002;-2.0937;0.7082;-9.5681;-2.03;-0.0169;0.1679;-0.0637;-0.0136;-0.0088;-0.0027;11.0;-30.36;38.16;4.08;259.5;77.34;-160.76;2.0;51.14;;;;;;0 / 0;92.1;4.0;3.607;119784;2014-11-21 16:47:20:362
0.6458;-9.4433;-2.0554;0.7078;-9.5674;-2.0342;-0.0619;0.124;-0.0212;0.0055;-0.0013;-6.0E-4;11.0;-29.76;38.16;3.96;259.6;77.31;-160.81;2.0;42.107;;;;;;0 / 0;92.1;4.0;3.607;120284;2014-11-21 16:47:20:862
0.7057;-9.4002;-1.9668;0.7087;-9.5669;-2.0355;-0.003;0.1667;0.0687;0.0077;0.0029;-0.0016;11.0;-29.16;37.98;4.26;259.92;77.3;-160.8;2.0;41.892;;;;;;0 / 0;92.1;4.0;3.609;120785;2014-11-21 16:47:21:363
0.5764;-9.3212;-2.1703;0.6996;-9.5687;-2.03;-0.1232;0.2475;-0.1404;0.0396;0.0072;5.0E-4;11.0;-29.64;37.98;4.98;257.71;77.26;-160.87;2.0;61.928;;;;;;0 / 0;92.1;4.0;3.609;121285;2014-11-21 16:47:21:863
0.9954;-9.4529;-1.0546;0.826;-9.6621;-1.4611;0.1694;0.2092;0.4064;0.1696;-0.0077;-0.0315;11.0;-30.18;37.62;4.08;254.11;78.62;-157.36;2.0;44.917;;;;;;0 / 0;92.1;4.0;3.609;121786;2014-11-21 16:47:22:364
1.8453;-9.5798;-0.48;0.9339;-9.7576;0.2985;0.9114;0.1778;-0.7786;0.4465;0.0285;-0.0144;11.0;-29.94;37.86;3.48;153.18;84.26;-72.27;2.0;69.512;;;;;;0 / 0;92.1;4.0;3.609;122288;2014-11-21 16:47:22:866
0.6363;-9.2877;2.3116;0.9762;-9.5451;2.0274;-0.34;0.2574;0.2842;0.1419;0.0391;-0.0102;11.0;-30.96;41.64;-5.28;106.92;76.73;-25.71;2.0;70.908;;;;;;0 / 0;92.1;4.0;3.609;122788;2014-11-21 16:47:23:366
0.8182;-9.3116;2.5606;1.0051;-9.4308;2.4946;-0.1869;0.1191;0.066;0.0929;0.0466;0.0175;11.0;-30.6;44.34;-14.1;116.18;74.08;-21.95;2.0;63.001;;;;;;0 / 0;92.1;4.0;3.609;123288;2014-11-21 16:47:23:866
-0.422;-9.5008;2.6588;0.0142;-9.361;2.9226;-0.4362;-0.1398;-0.2638;-0.0935;0.2767;-0.1188;26.0;-31.32;44.28;-19.5;99.08;72.16;-0.61;2.0;72.806;;;;;;0 / 0;92.1;4.0;3.609;123853;2014-11-21 16:47:24:431
0.416;-9.2973;2.5295;0.3428;-9.44;2.6342;0.0732;0.1428;-0.1047;-0.0488;-0.0312;-0.008;23.0;-26.76;45.18;-22.56;118.86;74.28;-7.41;2.0;62.214;;;;;;0 / 0;92.1;4.0;3.609;124354;2014-11-21 16:47:24:932
0.6746;-9.3907;2.3451;0.5647;-9.481;2.4419;0.1098;0.0904;-0.0968;0.0055;0.0029;0.0058;23.0;-25.56;45.84;-22.56;127.67;75.19;-13.0;2.0;71.499;;;;;;0 / 0;92.1;4.0;3.609;124855;2014-11-21 16:47:25:433