ACCELEROMETER X (m/s²),ACCELEROMETER Y (m/s²),ACCELEROMETER Z (m/s²),GRAVITY X (m/s²),GRAVITY Y (m/s²),GRAVITY Z (m/s²),LINEAR ACCELERATION X (m/s²),LINEAR ACCELERATION Y (m/s²),LINEAR ACCELERATION Z (m/s²),MAGNETIC FIELD X (μT),MAGNETIC FIELD Y (μT),MAGNETIC FIELD Z (μT),ORIENTATION X (°),ORIENTATION Y (°),ORIENTATION Z (°),PROXIMITY (i),SOUND LEVEL (dB),LOCATION Latitude : ,LOCATION Longitude : ,LOCATION Altitude ( m),LOCATION Altitude-google ( m),LOCATION Speed ( Kmh),LOCATION Accuracy ( m),LOCATION ORIENTATION (°),Satellites in range,Time since start in ms ,YYYY-MO-DD HH-MI-SS_SSS
1.9907,-10.6319,2.2975,0.2009,-9.8041,-0.1002,1.1105,-0.452,1.2405,-16.01,55.65,-11.42,296.71,88.46,-168.24,0.0,55.321,35.178192,126.90871,,NaN,,83.87097,,0 / 22,3,2014-12-14 14:44:35:351
2.8336,-10.881,2.8531,0.5929,-9.7819,0.3663,2.3769,-1.0188,2.4261,-15.26,56.71,-15.92,224.52,88.24,-84.46,0.0,55.321,35.178192,126.90871,,NaN,,83.87097,,0 / 22,53,2014-12-14 14:44:35:401
2.4505,-11.1875,2.7764,0.8575,-9.7462,0.6678,1.6071,-1.3112,2.1933,-16.01,57.84,-20.67,199.58,83.64,-52.09,0.0,55.321,35.178192,126.90871,,NaN,,83.87097,,0 / 22,104,2014-12-14 14:44:35:452
0.9753,-11.2067,1.5312,0.9183,-9.7322,0.7823,1.0097,-1.1692,1.7655,-14.88,58.96,-24.11,199.58,83.64,-52.09,0.0,55.321,35.178192,126.90871,,NaN,,83.87097,,0 / 22,153,2014-12-14 14:44:35:501
-0.9214,-9.5974,-0.9019,0.5246,-9.7772,0.549,-1.7076,0.6004,-1.5422,-14.88,59.34,-29.67,207.55,82.93,-49.57,0.0,55.321,35.178192,126.90871,,NaN,,83.87097,,0 / 22,203,2014-12-14 14:44:35:551
0.2856,-8.0073,-1.0935,0.4149,-9.7941,0.2701,-0.4403,0.2437,-1.2687,-13.76,58.59,-36.05,206.58,86.29,-45.24,0.0,55.321,35.178192,126.90871,,NaN,,83.87097,,0 / 22,253,2014-12-14 14:44:35:601
-0.4424,-6.8003,-0.9403,0.3559,-9.7996,0.1063,-0.3076,2.2388,-1.3038,-11.57,57.84,-42.11,239.94,87.83,-73.37,0.0,63.656,35.178192,126.90871,,NaN,,83.87097,,0 / 22,303,2014-12-14 14:44:35:651
-0.4041,-6.0723,-0.8062,0.2514,-9.8033,-0.0434,-0.6853,3.1593,-0.8326,-11.95,56.71,-41.24,239.94,87.83,-73.37,0.0,63.656,35.178192,126.90871,,NaN,,83.87097,,0 / 22,353,2014-12-14 14:44:35:701
2.2397,-6.3405,0.2284,0.3147,-9.8002,-0.1643,0.9498,2.8055,-0.5022,-10.82,57.46,-42.55,267.37,88.51,-99.8,0.0,63.656,35.178192,126.90871,,NaN,,83.87097,,0 / 22,403,2014-12-14 14:44:35:751
1.6458,-5.4017,1.4354,0.4656,-9.7944,-0.1528,1.7585,2.2521,0.176,-10.45,56.4,-41.24,267.37,88.51,-99.8,0.0,63.656,35.178192,126.90871,,NaN,,83.87097,,0 / 22,453,2014-12-14 14:44:35:801
-0.5765,-7.6432,0.1134,0.6643,-9.7834,0.1155,-0.5359,2.407,0.6886,-6.01,61.15,-38.17,280.48,87.14,-108.17,0.0,63.656,35.178192,126.90871,,NaN,,83.87097,,0 / 22,503,2014-12-14 14:44:35:851
-0.0784,-8.697,-0.2697,0.3978,-9.7982,0.0819,-0.377,-0.8914,-0.2872,-5.7,62.28,-34.67,248.66,87.13,-73.69,0.0,63.656,35.178192,126.90871,,NaN,,83.87097,,0 / 22,553,2014-12-14 14:44:35:901
-1.3429,-10.7086,0.1709,0.2423,-9.8033,0.0791,-1.0501,-1.6715,0.0592,-3.82,64.84,-29.17,247.12,88.51,-71.92,0.0,63.656,35.178192,126.90871,,NaN,,83.87097,,0 / 22,603,2014-12-14 14:44:35:951
0.8412,-14.5977,-2.3197,0.0063,-9.8062,0.0903,0.073,-4.2682,-0.6015,-2.7,64.84,-26.43,247.12,88.51,-71.92,0.0,59.607,35.178192,126.90871,,NaN,,83.87097,,0 / 22,653,2014-12-14 14:44:36:001
-0.0018,-11.0151,-0.9594,-0.0725,-9.8056,0.126,-1.0085,-7.2388,3.2728,-1.26,66.34,-21.3,181.27,89.47,-3.96,0.0,59.607,35.178192,126.90871,,NaN,,83.87097,,0 / 22,703,2014-12-14 14:44:36:051
-5.9792,-11.5899,-5.021,-0.3624,-9.7985,-0.1664,-3.7802,-3.4953,-3.7252,0.24,70.03,-18.86,204.73,87.88,-21.45,0.0,59.607,35.178192,126.90871,,NaN,,83.87097,,0 / 22,753,2014-12-14 14:44:36:101
0.9561,-7.8923,-6.7452,0.3026,-9.7867,-0.5477,5.0692,0.6104,-5.8239,1.68,69.65,-21.3,204.73,87.88,-21.45,0.0,59.607,35.178192,126.90871,,NaN,,83.87097,,0 / 22,803,2014-12-14 14:44:36:151
-3.4311,-6.8961,-4.1397,0.2796,-9.7184,-1.3042,-3.5062,2.4683,-1.6543,2.43,70.78,-19.99,342.36,86.34,-151.08,0.0,59.607,35.178192,126.90871,,NaN,,83.87097,,0 / 22,853,2014-12-14 14:44:36:201
1.7033,-8.9843,0.5349,-0.2594,-9.7206,-1.2698,0.9364,1.1125,1.2873,4.99,71.84,-20.92,17.47,82.41,168.45,0.0,59.607,35.178192,126.90871,,NaN,,83.87097,,0 / 22,903,2014-12-14 14:44:36:251
2.6229,-7.5666,2.8914,0.7093,-9.7661,-0.539,3.8178,1.273,3.8504,6.12,72.96,-21.3,17.47,82.41,168.45,0.0,65.002,35.178192,126.90871,,NaN,,83.87097,,0 / 22,953,2014-12-14 14:44:36:301
0.4963,-6.9919,3.447,0.803,-9.7732,-0.0997,-0.2734,2.4229,3.1667,8.3,74.03,-23.99,329.91,84.79,-127.23,0.0,65.002,35.178192,126.90871,,NaN,,83.87097,,0 / 22,1003,2014-12-14 14:44:36:351
-2.7989,-4.4055,-4.1589,0.4497,-9.7962,-0.0558,-2.4259,4.1641,-2.0437,8.3,74.78,-25.17,291.76,85.62,-82.34,0.0,65.002,35.178192,126.90871,,NaN,,83.87097,,0 / 22,1053,2014-12-14 14:44:36:401
0.9561,-8.0647,-3.6607,0.2672,-9.7766,-0.719,0.3953,0.9246,-3.3291,9.43,77.03,-26.86,358.39,85.51,-159.62,0.0,65.002,35.178192,126.90871,,NaN,,83.87097,,0 / 22,1103,2014-12-14 14:44:36:451
6.7994,-17.8163,8.3324,1.1045,-9.7275,0.5718,5.3119,-6.1899,8.5327,10.55,78.15,-27.11,358.39,85.51,-159.62,0.0,65.002,35.178192,126.90871,,NaN,,83.87097,,0 / 22,1153,2014-12-14 14:44:36:501
3.9831,-21.2648,-1.1702,1.4852,-9.641,1.0074,2.7942,-10.3596,0.5448,10.55,76.65,-41.17,277.31,82.71,-62.63,0.0,65.002,35.178192,126.90871,,NaN,,83.87097,,0 / 22,1203,2014-12-14 14:44:36:551
2.2397,-23.3147,-6.9943,1.4851,-9.6711,0.6593,1.5823,-10.7663,-4.6202,9.43,74.09,-47.05,271.93,80.46,-66.06,0.0,65.002,35.178192,126.90871,,NaN,,83.87097,,0 / 22,1253,2014-12-14 14:44:36:601
-6.1516,-8.1988,-2.8561,1.0704,-9.7316,-0.5657,-3.1996,-1.1661,-5.9828,10.18,67.4,-53.99,314.34,82.91,-117.86,0.0,68.598,35.178192,126.90871,,NaN,,83.87097,,0 / 22,1303,2014-12-14 14:44:36:651
-5.5385,-2.2406,-3.1051,0.4005,-9.7623,-0.8409,-6.5627,4.7274,-1.5048,10.93,67.09,-55.67,314.34,82.91,-117.86,0.0,68.598,35.178192,126.90871,,NaN,,83.87097,,0 / 22,1355,2014-12-14 14:44:36:703
-4.4274,-0.8037,-2.8178,-0.586,-9.7107,-1.2368,-4.1983,8.985,-1.1385,10.55,69.28,-53.99,348.11,84.55,-154.53,0.0,68.598,35.178192,126.90871,,NaN,,83.87097,,0 / 22,1403,2014-12-14 14:44:36:751
-6.4581,-0.8229,-3.8715,-1.2815,-9.5493,-1.8274,-4.481,9.6955,-3.4656,10.55,70.78,-50.74,37.08,76.84,144.96,0.0,68.598,35.178192,126.90871,,NaN,,83.87097,,0 / 22,1453,2014-12-14 14:44:36:801
2.6612,-9.1759,1.991,-1.6383,-9.4635,-1.9821,3.3834,-0.4121,2.9959,19.37,78.09,-40.17,46.17,74.8,140.43,0.0,68.598,35.178192,126.90871,,NaN,,83.87097,,0 / 22,1503,2014-12-14 14:44:36:851
2.393,-10.7661,4.9988,-1.3215,-9.6064,-1.4635,3.5507,-2.8394,5.8983,21.24,79.96,-35.05,46.17,74.8,140.43,0.0,68.598,35.178192,126.90871,,NaN,,83.87097,,0 / 22,1553,2014-12-14 14:44:36:901
4.7878,-13.0267,9.3286,-0.2455,-9.7962,0.3791,4.754,-4.0977,8.7386,20.87,83.28,-31.17,55.02,78.4,137.92,0.0,68.598,35.178192,126.90871,,NaN,,83.87097,,0 / 22,1603,2014-12-14 14:44:36:951
6.4737,-18.2569,5.5736,0.0141,-9.7968,0.4394,6.0806,-7.5654,6.5164,20.87,88.09,-23.42,158.97,88.6,62.0,0.0,69.007,35.178192,126.90871,,NaN,,83.87097,,0 / 22,1653,2014-12-14 14:44:37:001
8.7727,-18.4868,5.1712,-0.4767,-9.7917,0.2577,-4.6413,-3.1615,0.6778,18.62,89.15,-23.86,158.97,88.6,62.0,0.0,69.007,35.178192,126.90871,,NaN,,83.87097,,0 / 22,1704,2014-12-14 14:44:37:052
11.3782,-11.5324,-3.6991,0.1622,-9.7993,0.3438,10.3641,-4.3876,1.5368,19.74,89.53,-24.17,154.19,86.83,61.6,0.0,69.007,35.178192,126.90871,,NaN,,83.87097,,0 / 22,1753,2014-12-14 14:44:37:101
-4.1974,-6.1489,-3.9481,-0.2333,-9.7398,-1.1187,-4.6349,4.7032,-4.1118,19.37,90.28,-27.36,348.19,86.49,-131.12,0.0,69.007,35.178192,126.90871,,NaN,,83.87097,,0 / 22,1803,2014-12-14 14:44:37:151
5.8798,-11.4749,5.6693,-0.2102,-9.7529,-1.0038,0.3778,1.3877,1.8729,19.74,89.53,-24.74,348.19,86.49,-131.12,0.0,69.007,35.178192,126.90871,,NaN,,83.87097,,0 / 22,1853,2014-12-14 14:44:37:201
-0.998,-5.9573,0.1518,0.6261,-9.7865,-0.0524,-1.7485,4.0978,0.1712,20.87,88.78,-24.55,41.33,84.0,168.17,0.0,69.007,35.178192,126.90871,,NaN,,83.87097,,0 / 22,1903,2014-12-14 14:44:37:251
-0.1934,-4.0032,-0.6337,0.5558,-9.7906,-0.0762,-1.2771,4.9427,-0.2981,20.49,87.71,-25.67,318.8,86.33,-94.78,0.0,67.913,35.178192,126.90871,,NaN,,83.87097,,0 / 22,1953,2014-12-14 14:44:37:301
1.2627,-9.5974,3.3703,0.4316,-9.7948,0.2164,0.6963,-0.2678,3.0109,19.74,88.78,-25.17,327.1,87.44,-104.6,0.0,67.913,35.178192,126.90871,,NaN,,83.87097,,0 / 22,2003,2014-12-14 14:44:37:351
7.6807,-15.2874,6.953,0.5876,-9.7749,0.5262,2.072,-2.1055,3.9591,17.18,86.59,-26.43,327.1,87.44,-104.6,0.0,67.913,35.178192,126.90871,,NaN,,83.87097,,0 / 22,2053,2014-12-14 14:44:37:401
-1.1704,-21.5905,-3.0094,1.3114,-9.6806,0.8582,-1.8584,-10.1053,-3.2167,12.37,81.78,-34.24,266.36,85.39,-48.16,0.0,67.913,35.178192,126.90871,,NaN,,83.87097,,0 / 22,2103,2014-12-14 14:44:37:451
-0.9405,-15.6706,-6.6686,0.8829,-9.7668,-0.0311,-1.9914,-4.7183,-7.9684,6.49,77.4,-38.99,263.93,80.8,-56.8,0.0,67.913,35.178192,126.90871,,NaN,,83.87097,,0 / 22,2153,2014-12-14 14:44:37:501
-4.7914,-4.7312,-2.3963,0.3839,-9.7912,-0.3948,-5.3698,2.1751,-2.7451,0.99,73.71,-40.61,320.83,86.78,-135.8,0.0,67.913,35.178192,126.90871,,NaN,,83.87097,,0 / 22,2203,2014-12-14 14:44:37:551
-4.1974,-1.4743,-1.6874,-0.1541,-9.784,-0.6473,-4.5247,7.58,-1.8701,1.3,73.71,-39.74,320.83,86.78,-135.8,0.0,67.913,35.178192,126.90871,,NaN,,83.87097,,0 / 22,2253,2014-12-14 14:44:37:601
-5.117,-0.2865,-3.6607,-1.3482,-9.5997,-1.483,-4.0265,8.4013,-2.2109,0.62,74.09,-38.74,31.31,83.22,143.65,0.0,67.24,35.178192,126.90871,,NaN,,83.87097,,0 / 22,2303,2014-12-14 14:44:37:651
-2.7797,-3.62,-2.9327,-1.6352,-9.5186,-1.7008,-2.8288,6.2449,-1.8965,2.43,78.15,-30.11,30.06,76.08,136.13,0.0,67.24,35.178192,126.90871,,NaN,,83.87097,,0 / 22,2353,2014-12-14 14:44:37:701
1.9907,-10.7469,4.2899,-1.3212,-9.6131,-1.4188,3.8054,1.2599,3.6568,5.37,77.4,-24.74,30.06,76.08,136.13,0.0,67.24,35.178192,126.90871,,NaN,,83.87097,,0 / 22,2403,2014-12-14 14:44:37:751
2.757,-12.0497,6.5506,-0.5378,-9.7904,-0.171,1.9019,-3.9614,5.2202,6.12,75.15,-18.61,35.64,78.6,137.04,0.0,67.24,35.178192,126.90871,,NaN,,83.87097,,0 / 22,2453,2014-12-14 14:44:37:801
-6.6306,-18.8317,-6.841,-0.5339,-9.7901,0.199,-7.1532,-8.7043,-6.1455,4.99,74.4,-17.92,198.3,85.04,3.46,0.0,67.24,35.178192,126.90871,,NaN,,83.87097,,0 / 22,2503,2014-12-14 14:44:37:851
4.0215,-15.115,0.5158,-0.5197,-9.7806,0.4895,-0.351,-10.348,4.7452,2.8,72.21,-12.67,128.19,85.83,46.71,0.0,67.24,35.178192,126.90871,,NaN,,83.87097,,0 / 22,2553,2014-12-14 14:44:37:901
7.2209,-15.4215,-0.1548,-0.7949,-9.7734,-0.1362,-2.5226,5.6651,-7.2312,1.3,71.46,-13.55,128.19,85.83,46.71,0.0,67.24,35.178192,126.90871,,NaN,,83.87097,,0 / 22,2603,2014-12-14 14:44:37:951
0.9753,-9.8273,-3.5458,0.0317,-9.8031,-0.2611,7.1167,-4.5893,-0.0666,1.3,70.4,-12.67,61.8,85.28,99.72,0.0,68.204,35.178192,126.90871,,NaN,,83.87097,,0 / 22,2653,2014-12-14 14:44:38:001
2.2014,-8.3138,1.0522,0.2761,-9.8,-0.2317,1.7885,2.2548,1.2263,2.05,71.09,-12.49,61.8,85.28,99.72,0.0,68.204,35.178192,126.90871,,NaN,,83.87097,,0 / 22,2703,2014-12-14 14:44:38:051
-0.5382,-6.9727,0.4966,0.395,-9.7966,-0.2015,1.6808,1.9681,0.486,1.3,68.15,-13.8,320.74,87.89,-130.0,0.0,68.204,35.178192,126.90871,,NaN,,83.87097,,0 / 22,2753,2014-12-14 14:44:38:101
0.7454,-6.1489,1.8377,0.3443,-9.8006,-0.0138,0.2138,3.3008,1.986,1.68,67.09,-13.61,322.39,87.56,-127.2,0.0,68.204,35.178192,126.90871,,NaN,,83.87097,,0 / 22,2803,2014-12-14 14:44:38:151
0.7645,-7.9881,0.2667,0.3075,-9.8008,0.1409,-0.5958,3.2917,2.0234,2.43,65.59,-13.17,322.39,87.56,-127.2,0.0,68.204,35.178192,126.90871,,NaN,,83.87097,,0 / 22,2853,2014-12-14 14:44:38:201
3.964,-10.881,4.4241,0.8069,-9.751,0.6609,3.2878,-3.2925,4.084,4.3,63.03,-15.43,261.27,88.02,-65.38,0.0,68.204,35.178192,126.90871,,NaN,,83.87097,,0 / 22,2903,2014-12-14 14:44:38:251
2.3738,-21.4564,0.5924,1.0677,-9.6959,1.0096,4.2307,-6.4199,5.3476,4.99,58.96,-16.24,270.15,83.89,-50.68,0.0,68.204,35.178192,126.90871,,NaN,,83.87097,,0 / 22,2953,2014-12-14 14:44:38:301
0.0557,-21.7054,-2.6645,1.0763,-9.7326,0.5378,-1.3622,-9.8747,-3.8289,4.99,58.96,-21.3,270.15,83.89,-50.68,0.0,63.818,35.178192,126.90871,,NaN,,83.87097,,0 / 22,3003,2014-12-14 14:44:38:351
-2.3199,-10.7852,-6.0364,0.9053,-9.7644,0.0885,-2.8241,-2.6192,-7.9009,-1.26,59.71,-25.74,265.36,82.95,-63.45,0.0,63.818,35.178192,126.90871,,NaN,,83.87097,,0 / 22,3053,2014-12-14 14:44:38:401
-4.504,-2.7579,-3.5841,-0.0927,-9.7742,-0.7922,-4.3804,7.7089,-2.667,-1.63,60.78,-25.67,315.74,86.4,-134.31,0.0,63.818,35.178192,126.90871,,NaN,,83.87097,,0 / 22,3103,2014-12-14 14:44:38:451
-3.5844,0.0584,-3.5458,-0.3569,-9.7514,-0.9767,-3.8933,9.0027,-2.0755,-3.82,60.78,-23.61,8.42,83.91,159.93,0.0,63.818,35.178192,126.90871,,NaN,,83.87097,,0 / 22,3153,2014-12-14 14:44:38:501
-2.3774,-4.2714,-2.2239,-1.5537,-9.5004,-1.8704,-1.7957,4.7015,-0.9227,-2.7,61.53,-20.05,8.42,83.91,159.93,0.0,63.818,35.178192,126.90871,,NaN,,83.87097,,0 / 22,3203,2014-12-14 14:44:38:551
1.1669,-8.3713,0.5158,-1.5443,-9.508,-1.8392,0.4249,1.8245,0.7453,4.3,58.59,-12.8,20.2,75.64,140.28,0.0,63.818,35.178192,126.90871,,NaN,,83.87097,,0 / 22,3253,2014-12-14 14:44:38:601
3.3509,-11.3408,7.4319,-0.4902,-9.7944,-0.0086,3.8799,-2.8852,7.3645,6.49,56.4,-8.55,41.07,80.16,137.23,0.0,63.818,35.178192,126.90871,,NaN,,83.87097,,0 / 22,3303,2014-12-14 14:44:38:651
0.8412,-10.4404,5.1329,-0.2636,-9.7887,0.5313,2.774,-2.2394,6.8807,11.24,53.84,-3.61,237.27,86.53,26.38,0.0,68.19,35.178192,126.90871,,NaN,,83.87097,,0 / 22,3353,2014-12-14 14:44:38:701
7.5466,-17.2224,2.1634,-0.3325,-9.799,0.2001,4.0761,-6.6364,0.0225,11.3,49.78,-1.61,237.27,86.53,26.38,0.0,68.19,35.178192,126.90871,,NaN,,83.87097,,0 / 22,3403,2014-12-14 14:44:38:751
-2.4157,-12.452,0.5158,0.1508,-9.7986,0.3679,7.3162,-6.0016,2.7339,13.87,46.46,2.26,224.35,87.73,58.97,0.0,68.19,35.178192,126.90871,,NaN,,83.87097,,0 / 22,3453,2014-12-14 14:44:38:801
2.4313,-7.5666,-9.2741,0.325,-9.7988,-0.2211,1.026,4.0619,-8.4619,12.37,47.53,3.95,283.72,87.23,14.98,0.0,68.19,35.178192,126.90871,,NaN,,83.87097,,0 / 22,3503,2014-12-14 14:44:38:851
-1.477,-8.1222,-1.7449,0.1323,-9.7868,-0.6095,-3.1656,5.0869,-5.9408,10.55,46.78,4.39,283.72,87.23,14.98,0.0,68.19,35.178192,126.90871,,NaN,,83.87097,,0 / 22,3553,2014-12-14 14:44:38:901
2.0865,-10.2871,3.4661,-0.0918,-9.7716,-0.8238,-1.1825,1.8238,-0.0658,10.18,46.78,5.26,88.79,86.35,-167.75,0.0,68.19,35.178192,126.90871,,NaN,,83.87097,,0 / 22,3603,2014-12-14 14:44:38:951
3.7149,-7.0493,1.4354,0.352,-9.7983,-0.1983,2.7931,3.0204,1.6556,8.68,49.4,8.7,66.07,87.64,-119.4,0.0,68.19,35.178192,126.90871,,NaN,,83.87097,,0 / 22,3653,2014-12-14 14:44:39:001
0.573,-6.3213,0.3433,0.385,-9.7986,-0.1001,-2.1853,4.2386,-0.8114,6.87,49.78,8.26,66.07,87.64,-119.4,0.0,67.298,35.178192,126.90871,,NaN,,83.87097,,0 / 22,3703,2014-12-14 14:44:39:051
0.2856,-7.1451,-0.308,0.4074,-9.7973,-0.1339,0.2058,2.1989,-0.4163,4.99,44.96,9.95,69.24,87.68,-104.57,0.0,67.298,35.178192,126.90871,,NaN,,83.87097,,0 / 22,3753,2014-12-14 14:44:39:101
1.6267,-10.6703,4.0026,0.5109,-9.7917,-0.1784,0.9672,-1.21,3.0775,4.99,43.84,9.57,85.48,86.83,-124.58,0.0,67.298,35.178192,126.90871,,NaN,,83.87097,,0 / 22,3803,2014-12-14 14:44:39:151
5.4392,-15.479,4.5965,0.6694,-9.7838,0.0205,2.2366,-3.1559,2.5332,5.74,42.4,9.26,85.48,86.83,-124.58,0.0,67.298,35.178192,126.90871,,NaN,,83.87097,,0 / 22,3853,2014-12-14 14:44:39:201
0.8987,-21.4181,-4.0631,1.2747,-9.7081,0.5463,-0.8321,-9.8077,-5.0518,0.99,42.78,6.2,40.31,86.08,-88.25,0.0,67.298,35.178192,126.90871,,NaN,,83.87097,,0 / 22,3903,2014-12-14 14:44:39:251
0.9753,-20.1345,-7.2817,1.1929,-9.7334,0.0884,-0.3218,-8.8528,-7.5108,-6.01,44.96,3.51,67.81,81.87,-66.8,0.0,67.298,35.178192,126.90871,,NaN,,83.87097,,0 / 22,3953,2014-12-14 14:44:39:301
-6.1899,-8.6203,-2.2047,0.0777,-9.7764,-0.7652,-5.155,4.2887,-1.4458,-14.51,47.15,-2.05,285.37,85.5,-174.2,0.0,67.298,35.178192,126.90871,,NaN,,83.87097,,0 / 22,4003,2014-12-14 14:44:39:351
-3.3928,-5.4592,-1.6108,-0.1314,-9.7697,-0.8406,-3.5874,5.4025,-0.8653,-15.26,47.53,-3.61,285.37,85.5,-174.2,0.0,68.13,35.178192,126.90871,,NaN,,83.87097,,0 / 22,4053,2014-12-14 14:44:39:401
-3.8143,-3.6009,-1.9365,-1.0389,-9.6864,-1.1249,-2.4974,5.9945,-0.6723,-14.88,47.9,-4.99,329.68,83.47,150.01,0.0,68.13,35.178192,126.90871,,NaN,,83.87097,,0 / 22,4103,2014-12-14 14:44:39:451
-0.5574,-6.1106,-1.7832,-1.1138,-9.6704,-1.1889,-0.6068,4.2367,-0.4217,-13.01,48.28,-2.49,335.11,81.02,137.27,0.0,68.13,35.178192,126.90871,,NaN,,83.87097,,0 / 22,4153,2014-12-14 14:44:39:501
0.8603,-10.2871,-2.6454,-0.7293,-9.6965,-1.2716,1.3367,-0.8012,-1.4004,-10.07,45.34,2.95,318.02,80.98,141.96,0.0,68.13,35.178192,126.90871,,NaN,,83.87097,,0 / 22,4203,2014-12-14 14:44:39:551
-1.4387,-10.6128,-2.5112,-0.7343,-9.6784,-1.4001,-0.1443,-0.775,-1.8938,-6.01,45.34,2.45,318.02,80.98,141.96,0.0,68.13,35.178192,126.90871,,NaN,,83.87097,,0 / 22,4253,2014-12-14 14:44:39:601
-3.4886,-13.3141,1.4354,-0.8459,-9.748,-0.6567,-2.49,-2.6044,2.521,-0.51,44.96,3.89,331.92,80.72,152.33,0.0,68.13,35.178192,126.90871,,NaN,,83.87097,,0 / 22,4303,2014-12-14 14:44:39:651
0.4963,-11.8964,3.3129,-0.8652,-9.7604,-0.3961,-0.3919,-1.3625,3.833,1.3,42.78,3.95,296.56,84.43,114.6,0.0,67.096,35.178192,126.90871,,NaN,,83.87097,,0 / 22,4353,2014-12-14 14:44:39:701
0.7645,-8.8311,-1.151,-0.6528,-9.7842,-0.1179,1.298,1.2718,-1.3323,3.18,42.4,6.51,258.04,86.12,100.24,0.0,67.096,35.178192,126.90871,,NaN,,83.87097,,0 / 22,4403,2014-12-14 14:44:39:751
0.6879,-10.3063,-0.787,-0.579,-9.7873,-0.2081,1.1194,0.4424,-1.3231,4.3,41.65,6.01,258.04,86.12,100.24,0.0,67.096,35.178192,126.90871,,NaN,,83.87097,,0 / 22,4453,2014-12-14 14:44:39:801
-0.5957,-11.1301,1.876,-0.3476,-9.7977,-0.2323,1.7778,0.5643,-0.0128,3.93,41.28,6.64,213.38,87.56,123.75,0.0,67.096,35.178192,126.90871,,NaN,,83.87097,,0 / 22,4503,2014-12-14 14:44:39:851
0.3047,-9.2909,1.3013,-0.3369,-9.8004,0.095,-0.0194,-0.2291,1.8599,6.49,41.65,6.01,250.35,87.95,74.25,0.0,67.096,35.178192,126.90871,,NaN,,83.87097,,0 / 22,4553,2014-12-14 14:44:39:901
-1.4578,-9.9806,-0.9211,-0.2957,-9.8012,0.1388,0.1285,0.8023,-0.026,6.49,43.84,3.95,249.84,88.09,64.86,0.0,67.096,35.178192,126.90871,,NaN,,83.87097,,0 / 22,4603,2014-12-14 14:44:39:951
-0.8639,-9.1568,-0.2506,-0.4198,-9.7977,-0.001,-0.5481,0.7162,-0.4702,5.74,41.65,4.89,249.84,88.09,64.86,0.0,64.101,35.178192,126.90871,,NaN,,83.87097,,0 / 22,4653,2014-12-14 14:44:40:001
-0.2125,-9.8656,-0.308,-0.4514,-9.7962,-0.0151,-0.0551,0.4647,-0.0436,6.12,41.65,3.95,223.45,87.55,90.14,0.0,64.101,35.178192,126.90871,,NaN,,83.87097,,0 / 22,4703,2014-12-14 14:44:40:051
-0.4616,-9.5016,-0.0781,-0.4411,-9.7967,-0.032,-0.2403,0.4761,-0.1208,6.12,41.28,4.45,219.54,87.53,93.17,0.0,64.101,35.178192,126.90871,,NaN,,83.87097,,0 / 22,4754,2014-12-14 14:44:40:102
-0.4807,-9.6166,-0.308,-0.4367,-9.7967,-0.0648,0.2274,0.4084,-0.1392,4.99,43.84,4.58,219.54,87.53,93.17,0.0,64.101,35.178192,126.90871,,NaN,,83.87097,,0 / 22,4803,2014-12-14 14:44:40:151
0.0748,-9.8081,-0.308,-0.3935,-9.7984,-0.0813,0.4367,0.0917,0.0578,5.37,40.53,4.89,213.62,87.42,98.44,0.0,64.101,35.178192,126.90871,,NaN,,83.87097,,0 / 22,4853,2014-12-14 14:44:40:201
-0.27,-9.8273,-0.0781,-0.3623,-9.7993,-0.1117,0.1129,0.2153,-0.1819,4.99,43.15,3.64,208.72,87.78,107.13,0.0,64.101,35.178192,126.90871,,NaN,,83.87097,,0 / 22,4903,2014-12-14 14:44:40:251
-0.4424,-9.5974,-0.3655,-0.3399,-9.8,-0.125,-0.0539,0.1951,-0.2088,6.12,42.4,4.58,208.72,87.78,107.13,0.0,54.332,35.178192,126.90871,,NaN,,83.87097,,0 / 22,4953,2014-12-14 14:44:40:301
-0.8448,-9.4633,-0.7295,-0.3428,-9.7989,-0.1851,-0.0413,0.1995,-0.377,6.12,43.84,3.14,210.38,87.88,110.19,0.0,54.332,35.178192,126.90871,,NaN,,83.87097,,0 / 22,5016,2014-12-14 14:44:40:364
-0.4807,-9.5974,-0.4422,-0.417,-9.7952,-0.2256,-0.5871,0.106,-0.1103,6.49,43.15,4.45,186.97,87.72,118.37,0.0,54.332,35.178192,126.90871,,NaN,,83.87097,,0 / 22,5053,2014-12-14 14:44:40:401
-0.3466,-9.7315,-0.2889,-0.4248,-9.7944,-0.2456,0.0984,0.0058,-0.0701,6.12,43.15,3.7,187.88,87.16,118.14,0.0,54.332,35.178192,126.90871,,NaN,,83.87097,,0 / 22,5103,2014-12-14 14:44:40:451
-0.4041,-9.6549,-0.1165,-0.4308,-9.7936,-0.2644,-0.05,0.1825,-0.2404,6.12,42.03,4.14,187.88,87.16,118.14,0.0,54.332,35.178192,126.90871,,NaN,,83.87097,,0 / 22,5153,2014-12-14 14:44:40:501
-0.4424,-9.6166,-0.3655,-0.4259,-9.7933,-0.2816,0.0344,-5.0E-4,-0.2298,6.49,43.15,3.2,177.53,87.05,121.54,0.0,54.332,35.178192,126.90871,,NaN,,83.87097,,0 / 22,5203,2014-12-14 14:44:40:551
-0.4616,-9.7315,-0.1931,-0.4371,-9.7928,-0.2818,-0.0307,-0.0016,0.0646,6.12,42.4,3.39,169.81,86.96,123.37,0.0,54.332,35.178192,126.90871,,NaN,,83.87097,,0 / 22,5253,2014-12-14 14:44:40:601
-0.6532,-9.4825,-0.7487,-0.4437,-9.7921,-0.2985,-0.085,0.2223,-0.1644,7.24,42.78,4.2,174.08,86.87,123.93,0.0,62.093,35.178192,126.90871,,NaN,,83.87097,,0 / 22,5303,2014-12-14 14:44:40:651
-0.7106,-9.5782,-0.7295,-0.4856,-9.7883,-0.3523,-0.1594,0.0343,-0.2319,5.74,42.4,2.95,174.08,86.87,123.93,0.0,62.093,35.178192,126.90871,,NaN,,83.87097,,0 / 22,5353,2014-12-14 14:44:40:701
-0.6149,-9.5208,-0.5571,-0.4976,-9.7871,-0.3677,-0.1044,0.0386,-0.1541,6.12,42.78,3.95,160.62,86.49,125.96,0.0,62.093,35.178192,126.90871,,NaN,,83.87097,,0 / 22,5403,2014-12-14 14:44:40:751
-0.3849,-9.6357,-0.423,-0.499,-9.7866,-0.379,0.1353,0.0151,0.045,6.12,43.46,2.26,147.9,86.28,126.91,0.0,62.093,35.178192,126.90871,,NaN,,83.87097,,0 / 22,5453,2014-12-14 14:44:40:801
-0.3849,-9.6932,-0.7104,-0.516,-9.786,-0.3718,-0.0985,-0.0976,0.0589,6.49,44.96,4.82,186.45,86.28,125.78,0.0,62.093,35.178192,126.90871,,NaN,,83.87097,,0 / 22,5503,2014-12-14 14:44:40:851
-0.5382,-9.5399,-0.3272,-0.5249,-9.7858,-0.3644,-0.0756,0.1101,0.1896,6.12,43.09,4.33,186.45,86.28,125.78,0.0,62.093,35.178192,126.90871,,NaN,,83.87097,,0 / 22,5553,2014-12-14 14:44:40:901
-0.4807,-9.5591,-0.7678,-0.5537,-9.7827,-0.4024,-0.1781,0.0462,-0.3047,7.24,44.59,2.26,178.17,86.26,124.77,0.0,60.936,35.178192,126.90871,,NaN,,83.87097,,0 / 22,5603,2014-12-14 14:44:40:951
-0.9405,-9.6166,-1.0361,-0.5596,-9.7761,-0.5333,-0.2123,0.0241,-0.5792,7.24,43.46,3.2,148.18,85.71,132.07,0.0,60.936,35.178192,126.90871,,NaN,,83.87097,,0 / 22,5653,2014-12-14 14:44:41:001
-1.1704,-9.31,-0.5571,-0.5774,-9.7737,-0.5578,-0.0388,0.1132,-0.3387,7.24,43.84,3.2,142.24,85.3,134.01,0.0,60.936,35.178192,126.90871,,NaN,,83.87097,,0 / 22,5703,2014-12-14 14:44:41:051
-0.3849,-10.1913,-0.4613,-0.6237,-9.7711,-0.5534,0.1897,-0.4914,0.2012,7.62,45.34,3.64,142.24,85.3,134.01,0.0,60.936,35.178192,126.90871,,NaN,,83.87097,,0 / 22,5753,2014-12-14 14:44:41:101
-0.2892,-9.8465,0.0177,-0.5719,-9.7787,-0.4693,0.2782,-0.1489,0.4554,8.3,43.46,3.95,142.77,85.12,131.59,0.0,60.936,35.178192,126.90871,,NaN,,83.87097,,0 / 22,5803,2014-12-14 14:44:41:151
0.0174,-9.9997,0.0177,-0.5234,-9.7842,-0.4064,0.4819,-0.2811,0.4328,8.3,44.59,3.51,159.49,85.67,129.37,0.0,60.936,35.178192,126.90871,,NaN,,83.87097,,0 / 22,5853,2014-12-14 14:44:41:201
0.0365,-9.9231,1.5695,-0.3886,-9.7956,-0.2567,1.1067,0.0924,1.3155,7.24,46.09,5.76,189.38,87.28,123.45,0.0,60.936,35.178192,126.90871,,NaN,,83.87097,,0 / 22,5903,2014-12-14 14:44:41:251