sep=;
ACCELEROMETER X (m/s²);ACCELEROMETER Y (m/s²);ACCELEROMETER Z (m/s²);GRAVITY X (m/s²);GRAVITY Y (m/s²);GRAVITY Z (m/s²);LINEAR ACCELERATION X (m/s²);LINEAR ACCELERATION Y (m/s²);LINEAR ACCELERATION Z (m/s²);GYROSCOPE X (rad/s);GYROSCOPE Y (rad/s);GYROSCOPE Z (rad/s);LIGHT (lux);MAGNETIC FIELD X (μT);MAGNETIC FIELD Y (μT);MAGNETIC FIELD Z (μT);ORIENTATION X (°);ORIENTATION Y (°);ORIENTATION Z (°);PROXIMITY (i);ATMOSPHERIC PRESSURE (hPa);SOUND LEVEL (dB);LOCATION Latitude : ;LOCATION Longitude : ;LOCATION Altitude ( m);LOCATION Speed ( Kmh);LOCATION Accuracy ( m);Satellites in range;Temperature (F);Level (%);Voltage (Volt);Time since start in ms ;YYYY-MO-DD HH-MI-SS_SSS
-2.72939;-8.676586;6.607997;-1.349294;-8.420402;4.842168;-1.380096;-0.256184;1.765829;2.399784;-0.329562;1.157284;498.0;-19.92;49.2;-28.38;87.8191;68.3812;12.8051;0.0;1018.05;62.6585;;;;;;0 / 0;82.8;41.0;3.665;26;2014-11-17 17:05:58:117
-2.72939;-8.676586;6.607997;-1.349294;-8.420402;4.842168;-1.380096;-0.256184;1.765829;2.164296;-0.154549;1.182024;498.0;-17.4;45.84;-32.1;87.6409;59.1645;15.5708;0.0;1018.05;62.6585;;;;;;0 / 0;82.8;41.0;3.665;76;2014-11-17 17:05:58:167
-2.978387;-6.588843;6.512229;-1.778544;-7.639561;5.885938;-1.199843;1.050719;0.62629;0.843605;-0.977079;0.599564;509.0;-13.32;37.68;-37.08;92.069;51.1708;16.8132;0.0;1018.05;62.6585;;;;;;0 / 0;82.8;41.0;3.665;134;2014-11-17 17:05:58:225
1.733402;-5.928043;2.240973;-1.239587;-7.697044;5.948892;2.97299;1.769001;-3.707919;-1.692097;-1.289842;0.227547;474.0;-13.26;34.56;-37.38;92.069;51.1708;16.8132;0.0;1018.23;62.6585;;;;;;0 / 0;82.8;41.0;3.665;201;2014-11-17 17:05:58:292
1.733402;-5.928043;2.240973;-1.239587;-7.697044;5.948892;2.97299;1.769001;-3.707919;-2.38665;-0.709825;0.160352;474.0;-15.54;32.94;-32.52;103.2892;51.7096;11.7705;0.0;1018.23;62.6585;;;;;;0 / 0;82.8;41.0;3.665;256;2014-11-17 17:05:58:347
1.264139;-2.269703;4.252103;-1.092003;-8.351669;5.022703;2.356142;6.081967;-0.770601;-0.875064;3.05E-4;0.076969;454.0;-16.2;33.72;-28.62;98.9125;58.3898;12.266;0.0;1018.23;62.6585;;;;;;0 / 0;82.8;41.0;3.665;320;2014-11-17 17:05:58:411
1.091756;0.842759;3.055001;-1.106046;-8.629242;4.525839;2.197802;9.472002;-1.470837;-1.038776;1.451416;0.073304;445.0;-16.02;34.32;-24.78;98.9125;58.3898;12.266;0.0;1017.98;65.9832;;;;;;0 / 0;82.8;41.0;3.665;370;2014-11-17 17:05:58:461
3.60088;-12.411542;-3.830723;-0.439881;-9.103642;3.619471;4.040761;-3.307898;-7.450194;0.540921;0.612392;0.006414;498.0;-14.28;33.48;-18.96;88.6073;61.6349;13.733;0.0;1017.98;65.9832;;;;;;0 / 0;82.8;41.0;3.665;428;2014-11-17 17:05:58:519
0.306458;-18.157625;-5.612008;-0.651157;-9.214132;3.293349;0.957615;-8.943492;-8.905356;-2.72171;1.243111;-1.453554;568.0;-13.2;32.16;-16.86;98.315;69.9811;11.1842;0.0;1017.98;65.9832;;;;;;0 / 0;82.8;41.0;3.665;485;2014-11-17 17:05:58:576
-2.432509;-16.021996;-9.691728;-0.01056;-9.674322;1.605536;-2.421949;-6.347674;-11.297264;-3.645949;1.406212;-1.65575;557.0;-12.78;30.48;-13.62;98.315;69.9811;11.1842;0.0;1018.17;65.9832;;;;;;0 / 0;82.8;41.0;3.665;545;2014-11-17 17:05:58:636
-9.299078;-19.546263;6.426038;1.180152;-9.69336;-0.90352;-10.47923;-9.8529;7.329558;-3.274543;-1.16156;-1.284955;393.0;-14.4;30.6;-7.14;114.1288;80.577;0.3769;0.0;1018.17;65.9832;;;;;;0 / 0;82.8;41.0;3.665;606;2014-11-17 17:05:58:697
0.871489;-10.716446;7.632715;-0.848567;-9.647468;1.541637;1.720056;-1.068978;6.091079;-3.290731;0.909273;-0.395535;263.0;-17.16;32.04;0.06;47.1675;79.6626;28.8298;0.0;1018.17;65.9832;;;;;;0 / 0;82.8;41.0;3.665;670;2014-11-17 17:05:58:761
-7.958326;-3.782838;6.646304;-1.654176;-9.386802;2.306961;-6.30415;5.603963;4.339344;-0.594372;0.713185;-0.064141;227.0;-20.4;32.7;9.06;21.6685;73.1738;35.6419;0.0;1017.88;68.20511;;;;;;0 / 0;82.8;41.0;3.665;738;2014-11-17 17:05:58:829
-4.185065;-2.72939;7.201759;-2.031462;-9.101028;3.035596;-2.153602;6.371639;4.166163;1.529301;0.969138;0.570854;231.0;-21.0;32.1;10.98;21.6685;73.1738;35.6419;0.0;1017.88;68.20511;;;;;;0 / 0;82.8;41.0;3.665;798;2014-11-17 17:05:58:889
1.302446;-3.045424;3.380613;-2.441617;-8.820896;3.521458;3.744064;5.775473;-0.140845;2.188425;-1.702787;0.584904;260.0;-21.0;30.54;11.52;17.4353;64.09;34.7357;0.0;1017.88;68.20511;;;;;;0 / 0;82.8;41.0;3.665;854;2014-11-17 17:05:58:945
-7.479486;-19.431341;-4.156334;-2.408674;-8.174811;4.851922;-5.070811;-11.25653;-9.008256;3.050356;-1.985617;1.133461;288.0;-20.04;26.1;10.62;23.4735;56.4702;26.4015;0.0;1018.06;68.20511;;;;;;0 / 0;82.8;41.0;3.665;912;2014-11-17 17:05:59:003
0.766145;-19.546263;-6.914454;-2.018937;-6.716691;6.854221;2.785082;-12.829572;-13.768674;4.21436;-0.425468;2.154216;288.0;-19.68;23.16;11.64;23.4735;56.4702;26.4015;0.0;1018.06;68.20511;;;;;;0 / 0;82.8;41.0;3.665;964;2014-11-17 17:05:59:055
-1.532289;-17.851168;-5.793968;-2.26799;-4.50202;8.411802;0.735701;-13.349148;-14.20577;3.313028;-1.371087;2.026546;368.0;-20.34;21.48;14.58;29.2375;43.2287;16.4125;0.0;1018.06;68.20511;;;;;;0 / 0;82.8;41.0;3.665;1030;2014-11-17 17:05:59:121
1.493982;-17.851168;-7.843405;-1.523554;-2.858064;9.256384;3.017536;-14.993104;-17.099789;-0.051618;-1.548849;0.591012;357.0;-20.58;23.64;15.96;32.4031;16.9443;9.3468;0.0;1018.11;68.20511;;;;;;0 / 0;82.8;41.0;3.665;1088;2014-11-17 17:05:59:179
5.947197;4.041412;-3.524265;-0.786218;-9.758212;-0.574069;6.733415;13.799624;-2.950195;-1.584279;-1.046718;-0.514348;287.0;-20.34;31.62;17.64;288.2587;84.303;126.1356;0.0;1018.11;65.91042;;;;;;0 / 0;82.8;41.0;3.665;1153;2014-11-17 17:05:59:244
0.277727;-4.3766;3.1795;-0.525001;-9.676822;-1.501296;0.802728;5.300221;4.680796;-1.279457;1.031751;0.222355;220.0;-19.74;37.38;21.42;254.7327;80.6665;160.7253;0.0;1018.11;65.91042;;;;;;0 / 0;82.8;41.0;3.665;1217;2014-11-17 17:05:59:308
-1.790863;-6.675034;9.05966;-0.891072;-9.739036;0.726318;-0.899791;3.064002;8.333342;1.632232;0.872621;1.277014;197.0;-19.5;39.12;22.2;254.7327;80.6665;160.7253;0.0;1018.11;65.91042;;;;;;0 / 0;82.8;41.0;3.665;1272;2014-11-17 17:05:59:363
15.20797;-8.408436;-18.215086;-1.533301;-9.596926;1.310882;16.74127;1.18849;-19.525969;1.732719;0.765109;0.52962;263.0;-18.12;41.58;20.7;353.1271;78.1292;49.4715;0.0;1018.11;65.91042;;;;;;0 / 0;82.8;41.0;3.665;1323;2014-11-17 17:05:59:414
-3.734954;-18.511967;-5.784391;-1.768264;-9.510028;1.613372;-1.966691;-9.001938;-7.397763;-2.885422;1.648725;-1.839621;277.0;-13.8;45.6;13.56;358.2936;75.8721;47.6225;0.0;1018.11;65.91042;;;;;;0 / 0;82.8;41.0;3.665;1385;2014-11-17 17:05:59:476
-5.746084;-18.952501;-5.324704;-0.702268;-9.760572;-0.639086;-5.043816;-9.191928;-4.685618;-4.535979;1.025643;-1.760208;249.0;-12.72;46.62;11.94;358.2936;75.8721;47.6225;0.0;1018.14;65.91042;;;;;;0 / 0;82.8;41.0;3.665;1442;2014-11-17 17:05:59:533
-4.644751;-13.627796;-0.679953;-0.25267;-9.579252;-2.084338;-4.392081;-4.048543;1.404385;-3.642284;0.729679;-2.150551;211.0;-13.14;46.14;13.74;283.666;84.4436;132.3032;0.0;1018.14;68.85889;;;;;;0 / 0;82.8;41.0;3.665;1497;2014-11-17 17:05:59:588
-4.252102;-3.256114;11.836934;-0.953713;-9.72182;-0.864321;-3.298389;6.465706;12.701254;-1.575421;1.513724;-0.140194;191.0;-17.76;41.1;22.62;276.4475;82.4583;132.1851;0.0;1018.14;68.85889;;;;;;0 / 0;82.8;41.0;3.665;1554;2014-11-17 17:05:59:645
-3.122039;-4.041412;6.33027;-1.287107;-9.72073;0.14547;-1.834932;5.679318;6.1848;0.548557;2.137723;0.390343;194.0;-19.92;34.5;26.46;319.0837;82.4099;83.5518;0.0;1018.14;68.85889;;;;;;0 / 0;82.8;41.0;3.665;1633;2014-11-17 17:05:59:724
-5.803545;-1.810016;2.269703;-1.862066;-9.608314;0.619208;-3.941479;7.798297;1.650496;1.84237;-0.110567;0.529926;222.0;-18.9;31.02;25.86;319.0837;82.4099;83.5518;0.0;1018.14;68.85889;;;;;;0 / 0;82.8;41.0;3.665;1701;2014-11-17 17:05:59:792
-5.650316;-18.05228;-3.620033;-2.170732;-9.391926;1.80278;-3.479584;-8.660354;-5.422813;2.479502;-1.711034;1.597718;235.0;-17.58;29.34;25.74;347.2314;73.2776;50.2906;0.0;1018.14;68.85889;;;;;;0 / 0;82.8;41.0;3.665;1752;2014-11-17 17:05:59:843
5.765238;-19.546263;-6.349423;-2.526329;-8.64973;3.869135;8.291567;-10.896532;-10.218558;4.505742;-1.734857;1.388497;219.0;-11.82;30.48;27.24;353.2563;61.8879;33.1423;0.0;1018.05;68.85889;;;;;;0 / 0;82.8;41.0;3.665;1812;2014-11-17 17:05:59:903
-4.34787;-19.546263;-4.338293;-2.755339;-7.105466;6.17178;-1.592531;-12.440796;-10.510072;3.192077;0.334143;2.333505;224.0;-8.46;32.7;26.04;353.2563;61.8879;33.1423;0.0;1018.05;69.33168;;;;;;0 / 0;82.8;41.0;3.665;1866;2014-11-17 17:05:59:957
3.821146;-1.206678;-8.264784;-1.176571;-9.663344;-1.185687;4.997718;8.456668;-7.079097;1.062906;-3.222925;0.497855;252.0;-4.86;37.2;21.6;354.1161;46.4319;24.058;0.0;1018.05;69.33168;;;;;;0 / 0;82.8;41.0;3.665;1925;2014-11-17 17:06:00:016
10.084378;6.732496;-4.673482;-0.020358;-9.5778;-2.106119;10.104736;16.310295;-2.567363;-0.857044;-0.312458;-0.693943;166.0;-5.64;37.92;19.68;208.6947;77.5977;179.4462;0.0;1018.09;69.33168;;;;;;0 / 0;82.8;41.0;3.665;1976;2014-11-17 17:06:00:067
-2.509123;-4.252102;5.449203;-0.147531;-9.674256;-1.599176;-2.361593;5.422154;7.048379;-1.151786;-0.954782;-0.693637;158.0;-9.18;38.88;20.4;208.6947;77.5977;179.4462;0.0;1018.09;69.33168;;;;;;0 / 0;82.8;41.0;3.665;2037;2014-11-17 17:06:00:128
-4.213795;-5.688623;7.718907;-0.783357;-9.761644;-0.516757;-3.430438;4.073021;8.235664;-0.165544;2.188425;0.362549;154.0;-11.52;39.72;21.66;224.994;80.5746;174.7291;0.0;1018.09;69.33168;;;;;;0 / 0;82.8;41.0;3.665;2093;2014-11-17 17:06:00:184
-3.974375;-16.25184;-4.290409;-1.139141;-9.70883;-0.781903;-2.835234;-6.54301;-3.508507;-0.740369;0.481056;-0.771828;172.0;-15.54;42.66;21.3;285.5807;81.9005;124.4656;0.0;1017.96;69.33168;;;;;;0 / 0;82.8;41.0;3.665;2163;2014-11-17 17:06:00:254
6.416461;-6.358999;-14.681244;-0.214969;-9.553186;-2.204722;6.63143;3.194187;-12.476522;-2.994767;1.018007;-0.015577;172.0;-18.24;46.02;19.44;252.2386;76.9451;174.4311;0.0;1017.96;69.19141;;;;;;0 / 0;82.8;41.0;3.665;2233;2014-11-17 17:06:00:324
-3.246537;-19.546263;-8.552088;0.847825;-8.832712;-4.175496;-4.094363;-10.71355;-4.376592;-4.212221;-1.530217;-2.505769;184.0;-20.28;46.08;21.66;252.2386;76.9451;174.4311;0.0;1017.96;69.19141;;;;;;0 / 0;82.8;41.0;3.665;2286;2014-11-17 17:06:00:377
1.934515;-17.650055;6.014235;1.519754;-7.160748;-6.525676;0.414761;-10.489306;12.539912;-4.247346;2.471255;-0.149051;136.0;-26.28;41.94;33.54;243.9189;64.2484;-168.5223;0.0;1018.12;69.19141;;;;;;0 / 0;82.8;41.0;3.665;2360;2014-11-17 17:06:00:451
-7.038953;-4.644751;3.792416;-1.594153;-9.676084;0.04934;-5.4448;5.031334;3.743076;-0.09896;1.933694;-0.016493;153.0;-33.24;36.3;41.4;269.7894;83.4243;133.0229;0.0;1018.12;69.19141;;;;;;0 / 0;82.8;41.0;3.665;2433;2014-11-17 17:06:00:524
-1.216254;-2.585738;3.754108;-2.041681;-9.584444;0.374638;0.825426;6.998706;3.37947;0.963945;1.674382;0.951117;172.0;-34.98;36.0;39.9;316.9178;80.64;88.2272;0.0;1017.95;69.19141;;;;;;0 / 0;82.8;41.0;3.665;2496;2014-11-17 17:06:00:587
-9.222464;-18.061857;-4.58729;-2.361201;-9.361206;1.72132;-6.861263;-8.70065;-6.30861;2.154827;-1.202488;0.750448;160.0;-33.18;39.9;33.66;329.2431;77.7798;79.6022;0.0;1017.95;69.19141;;;;;;0 / 0;82.8;41.0;3.665;2549;2014-11-17 17:06:00:640
7.805098;-19.546263;-6.052541;-2.850452;-8.636052;3.66932;10.65555;-10.91021;-9.721862;2.780659;-1.049466;1.549765;144.0;-28.5;42.24;29.64;329.2431;77.7798;79.6022;0.0;1017.95;66.04662;;;;;;0 / 0;82.8;41.0;3.665;2616;2014-11-17 17:06:00:707
-3.811569;-19.546263;-2.30801;-3.514206;-7.000454;5.900372;-0.297363;-12.545808;-8.208382;3.42726;1.165531;2.069001;142.0;-21.6;43.26;23.94;3.0991;61.7187;37.8413;0.0;1018.13;66.04662;;;;;;0 / 0;82.8;41.0;3.665;2669;2014-11-17 17:06:00:760
-3.811569;-19.546263;-2.30801;-3.514206;-7.000454;5.900372;-0.297363;-12.545808;-8.208382;2.688723;-1.820073;1.667968;142.0;-18.48;43.26;19.98;3.0991;61.7187;37.8413;0.0;1018.13;66.04662;;;;;;0 / 0;82.8;41.0;3.665;2721;2014-11-17 17:06:00:812
2.557007;-0.804452;-6.818686;-1.253577;-9.679678;-0.950121;3.810584;8.875226;-5.868565;1.153925;-2.862209;0.933097;136.0;-16.68;45.42;16.26;295.6445;80.7701;127.1595;0.0;1018.13;66.04662;;;;;;0 / 0;82.8;41.0;3.665;2781;2014-11-17 17:06:00:872
6.177041;4.194642;-4.462792;-0.4118;-9.607836;-1.921018;6.588841;13.802478;-2.541773;-0.630107;-0.50152;-0.457538;128.0;-18.06;52.32;15.54;266.6859;78.4432;167.9009;0.0;1018.13;66.04662;;;;;;0 / 0;82.8;41.0;3.665;2842;2014-11-17 17:06:00:933
-0.383072;-1.244985;-0.23942;-0.12863;-9.53254;-2.298801;-0.254443;8.287557;2.059381;-1.043052;-0.74495;-0.523512;117.0;-19.68;55.32;16.74;266.6859;78.4432;167.9009;0.0;1018.21;66.04662;;;;;;0 / 0;82.8;41.0;3.665;2892;2014-11-17 17:06:00:983
-2.825158;-9.404424;10.726024;-0.737251;-9.766382;-0.494608;-2.087907;0.361958;11.220634;0.90683;1.642311;0.574213;109.0;-23.58;61.44;17.76;296.3219;84.8059;123.8569;0.0;1018.21;68.05742;;;;;;0 / 0;82.8;41.0;3.665;2946;2014-11-17 17:06:01:037
8.264784;-18.435352;-12.057198;-0.97748;-9.75585;-0.195751;9.242264;-8.679502;-11.861448;0.964251;0.250149;0.730289;117.0;-24.54;65.22;15.66;323.5318;84.1656;101.3243;0.0;1018.21;68.05742;;;;;;0 / 0;82.8;41.0;3.665;3015;2014-11-17 17:06:01:106
0.976834;-14.39394;-8.734048;0.302136;-9.536548;-2.2657;0.674698;-4.857393;-6.468347;-3.610213;3.441615;-1.308779;122.0;-25.14;73.14;6.84;286.4729;76.5214;-172.4043;0.0;1017.91;68.05742;;;;;;0 / 0;82.8;41.0;3.665;3070;2014-11-17 17:06:01:161
-3.045424;-19.297266;-9.251194;1.482514;-8.86941;-3.912299;-4.527938;-10.427856;-5.338896;-3.435506;-0.231823;-2.01952;114.0;-27.3;75.6;6.48;286.4729;76.5214;-172.4043;0.0;1017.91;68.05742;;;;;;0 / 0;82.8;41.0;3.665;3130;2014-11-17 17:06:01:221
-6.751649;-16.242264;1.934515;-0.18376;-9.431304;-2.680879;-6.567889;-6.81096;4.615394;-3.966959;1.699427;-0.739147;111.0;-36.9;73.92;17.4;292.2414;74.0967;176.0788;0.0;1017.91;68.05742;;;;;;0 / 0;82.8;41.0;3.665;3191;2014-11-17 17:06:01:282
-3.811569;-4.625597;16.290148;-0.837623;-9.704248;-1.13857;-2.973946;5.078652;17.428719;-0.833526;0.084605;-0.410196;114.0;-42.48;70.86;24.12;288.1282;81.7128;143.6589;0.0;1018.17;68.05742;;;;;;0 / 0;82.8;41.0;3.665;3254;2014-11-17 17:06:01:345
-1.599327;-5.631162;4.74052;-0.963349;-9.758426;-0.124438;-0.635978;4.127265;4.864958;-0.025351;1.113607;-0.026267;120.0;-45.66;68.46;28.98;288.1282;81.7128;143.6589;0.0;1018.17;68.05742;;;;;;0 / 0;82.8;41.0;3.665;3305;2014-11-17 17:06:01:396
-5.123591;-0.641646;4.74052;-1.589303;-9.662724;0.525656;-3.534289;9.021078;4.214863;1.725084;0.036041;0.978912;125.0;-46.2;68.7;26.52;324.031;84.3155;97.3603;0.0;1018.17;68.49269;;;;;;0 / 0;82.8;41.0;3.665;3373;2014-11-17 17:06:01:464
-5.343858;-10.180144;-0.785298;-2.029921;-9.572548;0.645053;-3.313937;-0.607597;-1.430351;1.839926;-0.249233;1.310611;129.0;-39.18;74.46;12.42;353.5282;77.4557;72.3712;0.0;1017.91;68.49269;;;;;;0 / 0;82.8;41.0;3.665;3443;2014-11-17 17:06:01:534
3.447651;-19.546263;-5.947197;-2.649887;-9.23878;1.947668;6.097538;-10.307482;-7.894864;3.827987;-4.296215;1.515862;122.0;-33.06;77.34;3.18;18.0525;70.4061;53.6841;0.0;1017.91;68.49269;;;;;;0 / 0;82.8;41.0;3.665;3500;2014-11-17 17:06:01:591
0.02873;-19.546263;-3.677494;-2.906617;-8.18797;4.54743;2.935348;-11.358292;-8.224924;2.222939;0.19395;2.146275;81.0;-17.22;75.42;-17.46;32.4264;56.6096;32.5858;0.0;1017.91;68.49269;;;;;;0 / 0;82.8;41.0;3.665;3553;2014-11-17 17:06:01:644
4.003105;-9.730036;-4.050989;-0.879302;-9.74965;-0.584427;4.882407;0.019615;-3.466562;0.59651;-1.443169;0.847576;75.0;-10.38;70.08;-25.62;32.4264;56.6096;32.5858;0.0;1018.13;68.49269;;;;;;0 / 0;82.8;41.0;3.665;3614;2014-11-17 17:06:01:705
4.146757;3.102886;-4.79798;-0.296959;-9.716316;-1.294352;4.443716;12.819202;-3.503628;0.220522;-0.960891;-0.077274;70.0;-6.42;62.82;-30.6;1.5603;82.2173;167.0785;0.0;1018.13;68.49269;;;;;;0 / 0;82.8;41.0;3.665;3666;2014-11-17 17:06:01:757
0.019154;0.067038;0.162806;-0.21611;-9.72243;-1.264133;0.235264;9.789468;1.426938;-0.553138;-1.146594;-0.922406;55.0;-8.34;50.46;-28.56;355.2664;82.4856;170.2988;0.0;1018.13;66.7744;;;;;;0 / 0;82.8;41.0;3.665;3720;2014-11-17 17:06:01:811
-1.187524;-8.322244;11.21444;-0.349367;-9.80006;0.08456;-0.838157;1.477817;11.12988;0.592845;0.403171;0.697303;51.0;-11.76;46.26;-24.72;355.2664;82.4856;170.2988;0.0;1018.0;66.7744;;;;;;0 / 0;82.8;41.0;3.665;3779;2014-11-17 17:06:01:870
-13.263878;-14.87278;7.04853;-0.792822;-9.75734;0.579784;-12.471054;-5.11544;6.468746;0.609644;0.489303;0.638049;46.0;-14.88;39.78;-18.78;66.6416;87.8994;76.3939;0.0;1018.0;66.7744;;;;;;0 / 0;82.8;41.0;3.665;3854;2014-11-17 17:06:01:945
8.015787;3.055001;-17.171215;-0.932106;-9.676864;1.288346;8.947894;12.731866;-18.45956;-2.158187;1.392773;0.167988;52.0;-15.24;34.2;-13.56;84.9987;80.6681;35.8854;0.0;1018.0;66.7744;;;;;;0 / 0;82.8;41.0;3.665;3918;2014-11-17 17:06:02:009
-0.335188;-19.230228;-6.895301;-0.515933;-9.792956;-0.046722;0.180745;-9.43727;-6.848579;-3.354566;-1.585806;-1.560455;45.0;-17.34;32.52;-10.02;23.315;86.9719;95.1745;0.0;1018.1;66.7744;;;;;;0 / 0;82.8;41.0;3.665;3980;2014-11-17 17:06:02:071
-0.459687;-19.52711;0.794875;0.361885;-9.605618;-1.942044;-0.821571;-9.92149;2.736919;-4.626388;0.496633;-1.647809;44.0;-19.68;31.8;-5.16;23.315;86.9719;95.1745;0.0;1018.1;66.7744;;;;;;0 / 0;82.8;41.0;3.665;4030;2014-11-17 17:06:02:121
-7.383718;-7.785944;7.833828;-1.050115;-9.693184;-1.053483;-6.333603;1.90724;8.887312;-3.763846;2.263867;-0.925461;51.0;-25.38;32.28;4.56;275.8563;78.3787;-169.4444;0.0;1018.1;69.90908;;;;;;0 / 0;82.8;41.0;3.665;4080;2014-11-17 17:06:02:171
-4.539406;-2.566584;8.226477;-1.629993;-9.66834;0.191533;-2.909413;7.101757;8.034944;-0.276111;0.159741;-0.161879;59.0;-27.6;33.06;8.76;350.524;80.3658;83.2982;0.0;1017.98;69.90908;;;;;;0 / 0;82.8;41.0;3.665;4142;2014-11-17 17:06:02:233
1.752556;-5.439626;6.349423;-1.361991;-9.648206;1.107923;3.114546;4.20858;5.2415;1.380861;1.607797;0.068722;59.0;-31.68;34.14;13.5;13.3911;79.6866;50.8731;0.0;1017.98;69.90908;;;;;;0 / 0;82.8;41.0;3.665;4204;2014-11-17 17:06:02:295
-1.331176;-3.236961;3.610456;-1.523868;-9.530634;1.736436;0.192691;6.293674;1.874021;2.040901;0.614225;0.442572;62.0;-34.2;34.86;14.46;13.3911;79.6866;50.8731;0.0;1017.98;69.90908;;;;;;0 / 0;82.8;41.0;3.665;4268;2014-11-17 17:06:02:359
-13.713986;-19.412188;-4.654328;-1.938583;-9.14607;2.960011;-11.775404;-10.266116;-7.614338;2.276695;0.180205;1.145983;73.0;-39.9;37.2;13.2;23.6452;76.374;41.2697;0.0;1018.01;69.90908;;;;;;0 / 0;82.8;41.0;3.665;4320;2014-11-17 17:06:02:411
4.826711;-19.546263;-4.855441;-2.274512;-8.070607;5.0855;7.101223;-11.475656;-9.94094;4.320039;-0.586431;2.622445;53.0;-40.44;45.18;9.48;35.2167;55.3835;24.0968;0.0;1018.01;69.90908;;;;;;0 / 0;82.8;41.0;3.665;4395;2014-11-17 17:06:02:486
-0.105345;-15.485696;-6.320692;-1.847368;-9.631068;0.010715;1.742024;-5.854628;-6.331408;2.464536;-3.738495;1.988366;51.0;-36.78;50.46;6.06;352.7992;79.1416;89.6677;0.0;1018.01;67.2723;;;;;;0 / 0;82.8;41.0;3.665;4461;2014-11-17 17:06:02:552
3.351883;-1.216254;-8.082824;-1.36862;-9.671326;-0.873359;4.720503;8.455072;-7.209466;0.75167;-2.530815;1.415069;40.0;-32.34;55.14;2.64;352.7992;79.1416;89.6677;0.0;1017.93;67.2723;;;;;;0 / 0;82.8;41.0;3.665;4511;2014-11-17 17:06:02:602
4.232949;-0.344765;-2.384625;-2.14728;-9.55455;-0.519725;6.380229;9.209786;-1.8649;-0.84727;-1.805718;0.950812;37.0;-23.4;60.72;-1.38;337.2206;80.4705;122.5432;0.0;1017.93;67.2723;;;;;;0 / 0;82.8;41.0;3.665;4561;2014-11-17 17:06:02:652
1.522712;-4.31914;3.524265;-2.116397;-9.499088;-1.207717;3.639109;5.17995;4.731982;-1.951409;-3.743382;-1.324967;45.0;-21.84;61.92;1.32;340.6026;75.6125;119.7112;0.0;1017.93;67.2723;;;;;;0 / 0;82.8;41.0;3.665;4620;2014-11-17 17:06:02:711
-3.141193;-11.894394;8.868124;-0.599927;-9.788262;0.018804;-2.541266;-2.10613;8.84932;0.277638;-3.010038;0.059254;52.0;-23.88;63.06;13.44;336.5384;86.4911;88.2047;0.0;1017.97;67.2723;;;;;;0 / 0;82.8;41.0;3.665;4681;2014-11-17 17:06:02:772
7.144298;1.005565;5.085284;-0.007127;-9.76244;0.930121;7.151426;10.768004;4.155163;1.406823;-0.749837;1.2706;56.0;-24.96;63.54;17.82;336.5384;86.4911;88.2047;0.0;1017.97;67.2723;;;;;;0 / 0;82.8;41.0;3.665;4734;2014-11-17 17:06:02:825
9.816228;15.47612;-11.137826;-1.001759;-9.621382;1.611167;10.817986;25.097504;-12.748992;4.421138;-1.093754;0.680504;57.0;-20.34;66.54;17.76;42.2445;84.5574;0.439;0.0;1017.97;67.2723;;;;;;0 / 0;82.8;41.0;3.665;4798;2014-11-17 17:06:02:889
-4.635174;-19.421764;3.514688;-1.792013;-9.426276;2.025921;-2.843161;-9.995486;1.488767;0.279165;-0.716239;0.750143;62.0;-11.04;70.32;12.18;1.8865;73.9898;41.4941;0.0;1017.97;68.50843;;;;;;0 / 0;82.8;41.0;3.665;4877;2014-11-17 17:06:02:968
-0.737414;-9.193734;1.944092;0.471436;-9.7953;-0.013468;-1.20885;0.601567;1.95756;-1.169501;-0.037263;0.167072;59.0;-7.74;71.4;10.68;114.411;87.2434;-91.6364;0.0;1017.97;68.50843;;;;;;0 / 0;82.8;41.0;3.665;4942;2014-11-17 17:06:03:033
-2.576161;-7.632715;3.639187;0.176776;-9.798418;0.360743;-2.752937;2.165703;3.278443;-1.098641;-0.66401;0.049175;62.0;-6.12;71.94;12.66;114.411;87.2434;-91.6364;0.0;1017.97;68.50843;;;;;;0 / 0;82.8;41.0;3.665;4993;2014-11-17 17:06:03:084
-4.34787;-8.599972;7.096414;-0.44403;-9.721318;1.2121;-3.90384;1.121347;5.884314;-0.87873;-0.743423;-0.035125;56.0;-5.04;71.94;18.96;356.3517;82.4361;20.1194;0.0;1018.06;68.50843;;;;;;0 / 0;82.8;41.0;3.665;5059;2014-11-17 17:06:03:150
0.124498;-7.939172;4.616021;-0.352379;-9.639722;1.766912;0.476878;1.70055;2.849109;-0.179289;-0.316734;0.336281;62.0;-5.22;70.98;24.36;356.3517;82.4361;20.1194;0.0;1018.06;68.50843;;;;;;0 / 0;82.8;41.0;3.665;5115;2014-11-17 17:06:03:206
-2.346318;-10.13226;2.106898;-0.656737;-9.61305;1.824367;-1.689581;-0.51921;0.28253;-0.126755;-0.63866;0.242819;62.0;-4.86;70.86;26.64;353.7584;78.5963;19.7979;0.0;1018.06;68.50843;;;;;;0 / 0;82.8;41.0;3.665;5170;2014-11-17 17:06:03:261
-1.532289;-9.107542;1.742979;-0.756232;-9.612436;1.78874;-0.776057;0.504893;-0.045761;-0.229074;0.177456;0.172264;62.0;-3.54;70.62;29.16;352.3518;78.741;18.9705;0.0;1017.98;61.04862;;;;;;0 / 0;82.8;41.0;3.665;5256;2014-11-17 17:06:03:347
0.507571;-9.816226;4.386178;-0.589777;-9.566512;2.074702;1.097348;-0.249714;2.311476;-0.302073;-0.289856;0.122478;62.0;-2.58;70.68;30.06;348.091;78.5781;22.9173;0.0;1017.98;61.04862;;;;;;0 / 0;82.8;41.0;3.665;5310;2014-11-17 17:06:03:401
-1.426944;-8.743624;1.37906;-0.690677;-9.56547;2.048205;-0.736268;0.821845;-0.669144;-0.041539;-0.061087;0.044899;62.0;-2.16;70.5;30.66;348.091;78.5781;22.9173;0.0;1018.06;61.04862;;;;;;0 / 0;82.8;41.0;3.665;5372;2014-11-17 17:06:03:463
-1.264138;-10.400412;2.777274;-0.739326;-9.554378;2.082701;-0.524812;-0.846035;0.694573;-0.189368;-0.182954;0.026878;62.0;-0.9;70.56;32.28;348.6466;77.2667;18.6347;0.0;1018.06;61.04862;;;;;;0 / 0;82.8;41.0;3.665;5441;2014-11-17 17:06:03:532
-1.503559;-8.96389;2.154782;-0.841308;-9.54;2.109735;-0.662251;0.576109;0.045047;-0.120951;-0.036041;0.087659;62.0;-0.78;70.32;33.12;347.7232;76.9759;19.5441;0.0;1018.06;61.04862;;;;;;0 / 0;82.8;41.0;3.665;5509;2014-11-17 17:06:03:600
-0.440533;-9.030928;-1.053449;-0.804695;-9.609804;1.781714;0.364162;0.578877;-2.835163;-0.148135;-0.099266;0.078191;59.0;-0.96;70.26;33.84;346.1451;76.6083;21.7408;0.0;1018.02;59.02863;;;;;;0 / 0;82.8;41.0;3.665;5575;2014-11-17 17:06:03:666
-1.35033;-9.32781;2.585738;-0.848455;-9.588058;1.876062;-0.501874;0.260249;0.709676;0.00336;-0.057116;0.1237;62.0;-0.84;69.84;34.74;343.7248;77.88;24.335;0.0;1018.02;59.02863;;;;;;0 / 0;82.8;41.0;3.665;5641;2014-11-17 17:06:03:732