ACCELEROMETER X (m/s²),ACCELEROMETER Y (m/s²),ACCELEROMETER Z (m/s²),GRAVITY X (m/s²),GRAVITY Y (m/s²),GRAVITY Z (m/s²),LINEAR ACCELERATION X (m/s²),LINEAR ACCELERATION Y (m/s²),LINEAR ACCELERATION Z (m/s²),MAGNETIC FIELD X (μT),MAGNETIC FIELD Y (μT),MAGNETIC FIELD Z (μT),ORIENTATION X (°),ORIENTATION Y (°),ORIENTATION Z (°),PROXIMITY (i),SOUND LEVEL (dB),LOCATION Latitude : ,LOCATION Longitude : ,LOCATION Altitude ( m),LOCATION Altitude-google ( m),LOCATION Speed ( Kmh),LOCATION Accuracy ( m),LOCATION ORIENTATION (°),Satellites in range,Time since start in ms ,YYYY-MO-DD HH-MI-SS_SSS
-0.3275,-9.5974,-0.4805,0.1269,-9.8015,-0.292,-0.145,-0.0818,-0.1298,-8.32,32.34,2.26,233.47,88.19,-151.83,0.0,67.749,35.178043,126.90887,,47.4644089,,20.0,,0 / 20,3,2014-12-14 14:13:45:397
-0.3083,-9.5591,-0.308,0.1269,-9.8015,-0.292,-0.145,-0.0818,-0.1298,-8.7,34.15,3.14,233.47,88.19,-151.83,0.0,67.749,35.178043,126.90887,,47.4644089,,20.0,,0 / 20,53,2014-12-14 14:13:45:447
-0.0784,-9.6166,-0.308,0.0202,-9.8014,-0.3204,-0.1571,-0.0271,0.0259,-7.26,35.28,3.83,241.33,88.11,-173.84,0.0,67.749,35.178043,126.90887,,47.4644089,,20.0,,0 / 20,103,2014-12-14 14:13:45:497
-0.0784,-9.1759,-0.7487,0.0044,-9.8005,-0.3461,-0.1109,0.334,-0.3558,-7.26,35.28,4.01,241.33,88.11,-173.84,0.0,67.749,35.178043,126.90887,,47.4644089,,20.0,,0 / 20,153,2014-12-14 14:13:45:547
0.4197,-10.3254,0.6499,0.0014,-9.7997,-0.3689,-0.0409,0.3765,-0.2995,-6.51,34.53,4.58,240.97,87.98,-179.28,0.0,67.749,35.178043,126.90887,,47.4644089,,20.0,,0 / 20,204,2014-12-14 14:13:45:598
1.4734,-10.0189,0.4391,0.0558,-9.8034,-0.2452,0.4644,-0.7507,1.1096,-6.51,33.09,2.51,239.49,88.53,-167.19,0.0,64.583,35.178043,126.90887,,47.4644089,,20.0,,0 / 20,253,2014-12-14 14:13:45:647
1.6458,-10.1721,0.669,0.4205,-9.7976,0.019,1.3352,-0.5322,0.8784,-6.88,33.4,1.51,239.49,88.53,-167.19,0.0,64.583,35.178043,126.90887,,47.4644089,,20.0,,0 / 20,304,2014-12-14 14:13:45:698
3.7724,-11.4941,2.8531,0.7286,-9.7747,0.3083,2.5625,-1.5165,2.2563,-6.13,32.34,0.45,153.15,87.54,-87.41,0.0,64.583,35.178043,126.90887,,47.4644089,,20.0,,0 / 20,353,2014-12-14 14:13:45:747
2.6612,-11.6473,3.696,1.1535,-9.7051,0.8072,1.469,-1.3004,2.805,-6.13,32.34,-1.67,162.2,84.0,-63.16,0.0,64.583,35.178043,126.90887,,47.4644089,,20.0,,0 / 20,404,2014-12-14 14:13:45:798
-1.1704,-9.0226,-2.3771,1.0566,-9.7241,0.7045,-1.955,0.4948,-2.4494,-6.88,31.21,-3.36,157.87,82.56,-56.31,0.0,64.583,35.178043,126.90887,,47.4644089,,20.0,,0 / 20,453,2014-12-14 14:13:45:847
-1.5153,-10.8427,-1.1319,0.6265,-9.7826,0.2806,-1.9914,-0.6039,-1.2631,-8.32,30.84,-3.24,157.87,82.56,-56.31,0.0,64.583,35.178043,126.90887,,47.4644089,,20.0,,0 / 20,503,2014-12-14 14:13:45:897
-1.0746,-9.6166,0.305,0.535,-9.7887,0.2574,-1.4947,0.7006,0.0263,-9.07,30.09,-5.99,191.88,85.99,-65.87,0.0,64.583,35.178043,126.90887,,47.4644089,,20.0,,0 / 20,553,2014-12-14 14:13:45:947
-0.1742,-7.2984,0.4583,0.2124,-9.7982,0.3469,-0.7,2.6532,0.3881,-8.7,28.65,-5.92,173.11,87.43,-50.25,0.0,65.841,35.178043,126.90887,,47.4644089,,20.0,,0 / 20,603,2014-12-14 14:13:45:997
0.5538,-7.5666,0.7457,0.2247,-9.7967,0.3795,0.2223,1.9599,0.2293,-8.32,28.96,-5.55,173.11,87.43,-50.25,0.0,65.841,35.178043,126.90887,,47.4644089,,20.0,,0 / 20,653,2014-12-14 14:13:46:047
0.6879,-7.6049,2.2975,0.2519,-9.7945,0.4175,0.3235,1.8227,0.44,-9.07,29.34,-6.42,150.93,87.42,-30.63,0.0,65.841,35.178043,126.90887,,47.4644089,,20.0,,0 / 20,703,2014-12-14 14:13:46:097
1.1286,-8.4287,3.5619,0.4552,-9.7431,1.0173,0.7272,0.9376,2.2457,-7.95,27.53,-4.67,131.16,83.47,-24.11,0.0,65.841,35.178043,126.90887,,47.4644089,,20.0,,0 / 20,753,2014-12-14 14:13:46:147
1.5309,-10.0764,4.4049,0.5083,-9.7169,1.2225,0.6847,0.351,2.6478,-8.32,26.78,-5.67,131.16,83.47,-24.11,0.0,65.841,35.178043,126.90887,,47.4644089,,20.0,,0 / 20,803,2014-12-14 14:13:46:197
1.2435,-8.6012,2.7573,0.6438,-9.6456,1.6488,1.0501,-1.0419,2.8579,-8.32,26.4,-2.36,124.83,79.6,-21.33,0.0,65.841,35.178043,126.90887,,47.4644089,,20.0,,0 / 20,853,2014-12-14 14:13:46:247
0.6879,-8.8311,4.4624,0.7971,-9.5125,2.2465,-0.1854,0.2773,2.2221,-8.32,24.21,-1.92,85.05,77.35,-21.49,0.0,65.841,35.178043,126.90887,,47.4644089,,20.0,,0 / 20,903,2014-12-14 14:13:46:297
-7.3203,-17.7971,3.7918,0.6113,-9.6025,1.8942,-2.6016,1.3967,-4.8612,-6.88,24.59,-0.36,65.98,78.29,-17.89,0.0,65.037,35.178043,126.90887,,47.4644089,,20.0,,0 / 20,953,2014-12-14 14:13:46:347
1.5117,-9.7315,1.1671,0.0089,-9.5451,2.2496,-0.5249,-10.384,9.1394,-6.51,25.65,0.01,65.98,78.29,-17.89,0.0,65.037,35.178043,126.90887,,47.4644089,,20.0,,0 / 20,1003,2014-12-14 14:13:46:397
-5.9409,-3.3518,-10.7301,-0.4528,-9.7488,0.9622,-5.6732,6.8358,-12.5933,-5.38,23.09,3.14,31.5,76.74,-0.23,0.0,65.037,35.178043,126.90887,,47.4644089,,20.0,,0 / 20,1053,2014-12-14 14:13:46:447
4.8069,-13.18,-1.7641,-0.521,-9.7731,0.6204,-0.8017,1.7757,-4.7149,-4.26,23.84,6.39,31.5,76.74,-0.23,0.0,65.037,35.178043,126.90887,,47.4644089,,20.0,,0 / 20,1103,2014-12-14 14:13:46:497
-1.8793,-8.8119,-2.6454,-0.2675,-9.8019,0.1469,-1.0122,-0.4626,-3.9118,-1.7,23.84,7.51,339.65,88.22,61.23,0.0,65.037,35.178043,126.90887,,47.4644089,,20.0,,0 / 20,1153,2014-12-14 14:13:46:547
0.8412,-10.0955,-0.7487,-0.3282,-9.7941,-0.3705,-0.9263,0.5852,-2.0622,-1.7,23.84,7.51,339.65,88.22,61.23,0.0,65.037,35.178043,126.90887,,47.4644089,,20.0,,0 / 20,1204,2014-12-14 14:13:46:598
0.2281,-9.061,-2.4155,-0.404,-9.788,-0.4494,0.7637,-0.6288,-0.1571,0.18,20.84,12.2,226.62,87.11,138.47,0.0,65.037,35.178043,126.90887,,47.4644089,,20.0,,0 / 20,1253,2014-12-14 14:13:46:647
-0.155,-9.0035,-2.5112,-0.2128,-9.774,-0.7711,0.3738,0.3467,-1.7717,3.12,20.84,12.33,181.62,85.32,164.58,0.0,68.069,35.178043,126.90887,,47.4644089,,20.0,,0 / 20,1303,2014-12-14 14:13:46:697
-0.021,-9.7315,-1.4767,-0.3378,-9.7357,-1.1279,-0.4685,0.0763,-1.047,4.55,20.46,12.64,170.61,84.12,166.93,0.0,68.069,35.178043,126.90887,,47.4644089,,20.0,,0 / 20,1353,2014-12-14 14:13:46:747
0.1323,-10.1338,-0.7487,-0.2766,-9.7382,-1.1232,0.4897,-0.1626,0.1512,6.43,19.03,13.64,170.61,84.12,166.93,0.0,68.069,35.178043,126.90887,,47.4644089,,20.0,,0 / 20,1403,2014-12-14 14:13:46:797
-3.2778,-9.789,-1.5725,-0.3048,-9.7397,-1.1028,-0.8677,-0.8933,-0.0416,7.55,19.78,14.39,161.28,83.23,166.16,0.0,68.069,35.178043,126.90887,,47.4644089,,20.0,,0 / 20,1453,2014-12-14 14:13:46:847
3.7915,-11.8964,-0.5188,-0.2477,-9.7457,-1.0628,4.1295,-2.2402,0.8211,10.12,17.15,13.51,173.23,82.17,150.26,0.0,68.069,35.178043,126.90887,,47.4644089,,20.0,,0 / 20,1503,2014-12-14 14:13:46:897
3.9257,-14.4061,0.4391,0.1968,-9.764,-0.8924,3.0042,-3.6065,1.2581,10.12,17.9,12.64,173.23,82.17,150.26,0.0,68.069,35.178043,126.90887,,47.4644089,,20.0,,0 / 20,1553,2014-12-14 14:13:46:947
5.9373,-14.751,2.968,0.5477,-9.7625,-0.7507,5.4197,-4.7338,1.7159,11.62,19.4,13.7,122.17,84.65,-167.56,0.0,68.069,35.178043,126.90887,,47.4644089,,20.0,,0 / 20,1603,2014-12-14 14:13:46:997
-1.477,-11.8006,-5.3467,0.7194,-9.7762,-0.282,-0.8874,0.1185,-2.6661,11.62,23.84,11.51,60.88,85.48,-111.41,0.0,68.324,35.178043,126.90887,,47.4644089,,20.0,,0 / 20,1653,2014-12-14 14:13:47:047
-4.6764,-17.3948,-2.0323,0.2865,-9.7729,-0.7607,-3.9856,-4.1203,-3.2806,7.93,26.4,10.64,60.88,85.48,-111.41,0.0,68.324,35.178043,126.90887,,47.4644089,,20.0,,0 / 20,1703,2014-12-14 14:13:47:097
-2.0709,-14.5594,-3.1243,-0.0689,-9.7674,-0.8743,-1.7823,-2.9561,-1.4798,5.3,27.9,9.2,118.8,85.25,-159.36,0.0,68.324,35.178043,126.90887,,47.4644089,,20.0,,0 / 20,1753,2014-12-14 14:13:47:147
-2.5115,-7.8732,-3.7182,-0.5772,-9.6936,-1.3682,-2.0553,3.4974,-2.0565,-0.57,30.09,5.83,233.09,83.25,164.33,0.0,68.324,35.178043,126.90887,,47.4644089,,20.0,,0 / 20,1803,2014-12-14 14:13:47:197
-3.4886,-5.9765,-3.3159,-0.696,-9.6659,-1.5019,-1.7334,4.6202,-1.6424,-3.2,30.84,5.26,233.09,83.25,164.33,0.0,68.324,35.178043,126.90887,,47.4644089,,20.0,,0 / 20,1853,2014-12-14 14:13:47:247
-4.3124,-3.4284,-3.9098,-1.0869,-9.5812,-1.7861,-2.8906,6.0864,-1.4356,-6.88,29.71,3.08,304.75,80.28,155.14,0.0,68.324,35.178043,126.90887,,47.4644089,,20.0,,0 / 20,1903,2014-12-14 14:13:47:297
-3.3736,-1.1869,-4.0247,-2.0935,-9.1671,-2.7843,-2.172,7.3444,-2.1379,-7.95,30.46,2.64,321.63,73.9,144.56,0.0,68.324,35.178043,126.90887,,47.4644089,,20.0,,0 / 20,1953,2014-12-14 14:13:47:347
-2.8755,-6.5321,-0.1548,-2.2969,-9.0472,-3.007,-1.3877,6.6843,-1.2413,-7.57,29.71,2.2,321.63,73.9,144.56,0.0,70.282,35.178043,126.90887,,47.4644089,,20.0,,0 / 20,2003,2014-12-14 14:13:47:397
-1.8218,-13.4865,8.6964,-0.2057,-9.7473,1.0574,10.4979,-12.7362,21.4149,-6.88,31.21,2.64,321.28,67.3,142.63,0.0,70.282,35.178043,126.90887,,47.4644089,,20.0,,0 / 20,2053,2014-12-14 14:13:47:447
1.4734,-4.5588,2.7764,-0.3206,-9.6964,1.4311,-1.7206,-1.6287,5.6905,-8.32,29.71,3.51,39.12,83.69,11.01,0.0,70.282,35.178043,126.90887,,47.4644089,,20.0,,0 / 20,2103,2014-12-14 14:13:47:497
6.0714,-19.3298,0.2667,-1.0149,-9.6918,1.0995,-3.0356,-15.9443,6.0852,-8.32,30.09,5.7,31.78,82.35,9.41,0.0,70.282,35.178043,126.90887,,47.4644089,,20.0,,0 / 20,2153,2014-12-14 14:13:47:547
-9.2361,-0.4206,-15.0791,-0.5757,-9.7481,0.9022,6.497,-5.5091,-2.6128,-9.45,27.9,7.01,31.78,82.35,9.41,0.0,70.282,35.178043,126.90887,,47.4644089,,20.0,,0 / 20,2203,2014-12-14 14:13:47:597
1.9715,-12.7202,-2.1664,-1.3247,-9.6528,-1.1128,5.7334,-5.1242,0.7062,-6.88,26.4,11.76,7.79,83.73,32.55,0.0,70.282,35.178043,126.90887,,47.4644089,,20.0,,0 / 20,2253,2014-12-14 14:13:47:647
0.4963,-8.6586,-4.4845,-1.1213,-9.6678,-1.2026,2.7732,-1.5408,-1.457,-6.13,26.4,13.64,270.96,79.84,130.03,0.0,69.861,35.178043,126.90887,,47.4644089,,20.0,,0 / 20,2303,2014-12-14 14:13:47:697
-2.8564,-8.8119,-0.0015,-1.0302,-9.6342,-1.5134,-1.9362,1.2884,0.5826,-3.57,22.71,18.08,234.31,79.55,149.38,0.0,69.861,35.178043,126.90887,,47.4644089,,20.0,,0 / 20,2353,2014-12-14 14:13:47:747
1.3393,-9.5782,-1.8024,-1.1107,-9.6379,-1.431,-1.0576,0.6857,1.2778,-1.7,23.09,18.51,234.31,79.55,149.38,0.0,69.861,35.178043,126.90887,,47.4644089,,20.0,,0 / 20,2403,2014-12-14 14:13:47:797
1.186,-9.6549,-0.9977,-0.5591,-9.6801,-1.4674,2.1142,-0.2444,0.8429,-0.57,20.15,20.76,230.24,79.36,142.18,0.0,69.861,35.178043,126.90887,,47.4644089,,20.0,,0 / 20,2453,2014-12-14 14:13:47:847
-1.113,-9.4825,-0.308,-0.4707,-9.6893,-1.4377,1.2552,0.0973,0.4509,-0.57,20.53,21.14,204.84,81.13,161.87,0.0,69.861,35.178043,126.90887,,47.4644089,,20.0,,0 / 20,2503,2014-12-14 14:13:47:897
-0.749,-9.7124,-0.7678,-0.6995,-9.7065,-1.2104,-0.2238,-0.0748,0.4638,2.37,19.03,23.14,203.88,81.63,154.16,0.0,69.861,35.178043,126.90887,,47.4644089,,20.0,,0 / 20,2553,2014-12-14 14:13:47:947
1.5883,-11.0151,-0.8828,-0.6447,-9.7162,-1.1621,0.7584,-0.3222,0.657,4.24,18.28,23.57,203.88,81.63,154.16,0.0,69.861,35.178043,126.90887,,47.4644089,,20.0,,0 / 20,2603,2014-12-14 14:13:47:997
3.1402,-14.2146,1.1671,-0.0987,-9.7593,-0.957,1.7248,-3.5975,1.6117,6.8,17.53,23.57,193.5,82.21,150.98,0.0,69.313,35.178043,126.90887,,47.4644089,,20.0,,0 / 20,2653,2014-12-14 14:13:48:047
2.7379,-14.1762,6.0908,0.2808,-9.7716,-0.7793,5.7167,-3.9227,2.3288,8.99,19.78,23.57,167.95,84.37,174.11,0.0,69.313,35.178043,126.90887,,47.4644089,,20.0,,0 / 20,2703,2014-12-14 14:13:48:097
1.6075,-13.4674,2.1825,1.0104,-9.754,-0.099,-0.5936,-0.518,-2.4842,7.93,24.9,24.95,80.04,83.91,-103.47,0.0,69.313,35.178043,126.90887,,47.4644089,,20.0,,0 / 20,2753,2014-12-14 14:13:48:147
-4.7339,-17.9504,-2.2239,0.8176,-9.7656,-0.3675,-3.1386,-0.3442,-4.3967,4.93,28.28,24.08,80.04,83.91,-103.47,0.0,69.313,35.178043,126.90887,,47.4644089,,20.0,,0 / 20,2804,2014-12-14 14:13:48:198
-2.3966,-14.4061,-2.9136,0.1953,-9.7854,-0.6154,-4.9208,-5.9571,-1.6894,4.24,30.46,24.01,98.27,84.76,-114.2,0.0,69.313,35.178043,126.90887,,47.4644089,,20.0,,0 / 20,2853,2014-12-14 14:13:48:247
-2.3583,-8.7928,-4.2355,-0.3045,-9.7406,-1.0945,-1.8964,1.5035,-2.7984,-5.01,38.21,19.58,157.44,86.23,-162.39,0.0,69.313,35.178043,126.90887,,47.4644089,,20.0,,0 / 20,2903,2014-12-14 14:13:48:297
-2.3774,-6.0914,-4.1205,-0.5022,-9.6867,-1.4445,-1.4631,4.9376,-2.3842,-8.7,40.4,15.7,237.42,83.35,164.45,0.0,69.313,35.178043,126.90887,,47.4644089,,20.0,,0 / 20,2953,2014-12-14 14:13:48:347
-4.6764,-2.4705,-4.7144,-0.8944,-9.6002,-1.7907,-3.1381,6.9115,-1.7708,-14.63,42.28,12.83,281.03,78.22,153.46,0.0,71.358,35.178043,126.90887,,47.4644089,,20.0,,0 / 20,3003,2014-12-14 14:13:48:397
-4.5615,-1.2061,-5.6724,-1.9654,-9.1812,-2.8308,-2.7081,7.4863,-2.913,-15.01,42.28,11.76,281.03,78.22,153.46,0.0,71.358,35.178043,126.90887,,47.4644089,,20.0,,0 / 20,3053,2014-12-14 14:13:48:447
-4.3316,-9.3292,1.1097,-2.2166,-9.0224,-3.1389,-2.1512,7.094,-2.4063,-14.26,43.4,14.83,300.59,69.43,145.23,0.0,71.358,35.178043,126.90887,,47.4644089,,20.0,,0 / 20,3103,2014-12-14 14:13:48:497
5.6499,-18.7551,15.7274,-0.1546,-9.7535,1.0082,19.4711,-15.964,29.2267,-15.7,41.9,16.14,304.47,67.45,136.59,0.0,71.358,35.178043,126.90887,,47.4644089,,20.0,,0 / 20,3153,2014-12-14 14:13:48:547
-2.205,-6.3022,1.3204,-0.2566,-9.7021,1.4051,-1.5524,-1.9545,6.1492,-17.95,43.78,13.2,34.63,81.63,10.35,0.0,71.358,35.178043,126.90887,,47.4644089,,20.0,,0 / 20,3203,2014-12-14 14:13:48:597
0.1898,-19.9429,-3.5075,-1.1961,-9.7122,0.643,-3.9156,-8.5293,0.8545,-17.57,42.65,14.83,34.63,81.63,10.35,0.0,71.358,35.178043,126.90887,,47.4644089,,20.0,,0 / 20,3253,2014-12-14 14:13:48:647
-8.2973,-0.8037,-14.3511,-0.6594,-9.7826,0.1916,7.8482,-3.3859,-6.6865,-17.57,43.4,15.45,352.31,82.04,61.74,0.0,66.239,35.178043,126.90887,,47.4644089,,20.0,,0 / 20,3303,2014-12-14 14:13:48:697
2.1248,-11.6857,-0.6146,-1.7531,-9.506,-1.6531,1.463,-2.9549,0.6195,-16.82,42.65,17.01,291.88,77.86,133.52,0.0,66.239,35.178043,126.90887,,47.4644089,,20.0,,0 / 20,3353,2014-12-14 14:13:48:747
0.4197,-9.5208,-4.2738,-1.3332,-9.5352,-1.8637,2.3466,0.6822,-2.8612,-13.51,41.9,23.14,280.54,75.78,133.32,0.0,66.239,35.178043,126.90887,,47.4644089,,20.0,,0 / 20,3403,2014-12-14 14:13:48:797
-0.8639,-9.1951,-1.1319,-1.1518,-9.5415,-1.9503,0.8637,0.1082,0.5813,-11.63,39.71,24.33,280.54,75.78,133.32,0.0,66.239,35.178043,126.90887,,47.4644089,,20.0,,0 / 20,3453,2014-12-14 14:13:48:847
0.5155,-9.061,-2.0898,-1.1702,-9.5515,-1.8894,0.0208,0.0386,0.5083,-8.32,38.59,27.14,244.91,76.65,149.43,0.0,66.239,35.178043,126.90887,,47.4644089,,20.0,,0 / 20,3503,2014-12-14 14:13:48:897
1.3776,-10.1147,-1.0361,-0.7145,-9.6165,-1.7842,2.2166,-0.5904,0.7713,-3.88,35.65,27.7,219.76,78.7,158.18,0.0,66.239,35.178043,126.90887,,47.4644089,,20.0,,0 / 20,3553,2014-12-14 14:13:48:947
0.1132,-9.6549,-1.3043,-0.5502,-9.6347,-1.7434,2.2769,-0.263,0.5636,-2.07,35.28,29.64,219.76,78.7,158.18,0.0,66.239,35.178043,126.90887,,47.4644089,,20.0,,0 / 20,3603,2014-12-14 14:13:48:997
-2.2433,-10.3446,0.1326,-0.56,-9.6524,-1.6395,-0.8092,-0.3075,1.0087,-0.2,34.15,31.83,203.49,79.82,161.14,0.0,70.858,35.178043,126.90887,,47.4644089,,20.0,,0 / 20,3653,2014-12-14 14:13:49:047
2.1631,-11.2067,-0.8062,-0.4353,-9.7059,-1.3328,2.896,-0.88,0.2194,4.93,33.78,33.58,202.85,80.61,152.66,0.0,70.858,35.178043,126.90887,,47.4644089,,20.0,,0 / 20,3703,2014-12-14 14:13:49:097
0.9561,-13.3333,0.056,-0.217,-9.7254,-1.2411,0.7984,-0.7365,0.4811,6.43,33.4,30.95,202.85,80.61,152.66,0.0,70.858,35.178043,126.90887,,47.4644089,,20.0,,0 / 20,3753,2014-12-14 14:13:49:147
5.4008,-14.5977,4.8072,0.1104,-9.7543,-1.0056,4.2257,-3.8421,2.0352,8.99,33.78,29.64,172.05,82.62,170.08,0.0,70.858,35.178043,126.90887,,47.4644089,,20.0,,0 / 20,3803,2014-12-14 14:13:49:197
2.4122,-13.8505,5.382,0.8492,-9.7596,-0.4474,5.3713,-4.142,4.8215,9.37,35.28,29.39,172.05,82.62,170.08,0.0,70.858,35.178043,126.90887,,47.4644089,,20.0,,0 / 20,3853,2014-12-14 14:13:49:247
-4.9829,-16.686,-2.3771,0.914,-9.7586,-0.3223,-1.2591,-0.5626,-3.8871,5.3,39.71,22.45,94.95,84.38,-117.78,0.0,70.858,35.178043,126.90887,,47.4644089,,20.0,,0 / 20,3903,2014-12-14 14:13:49:297
-2.9713,-14.387,-3.2393,0.0652,-9.7837,-0.6679,-3.5996,-5.7443,-1.1968,-2.45,40.03,14.39,183.18,86.08,-174.43,0.0,70.858,35.178043,126.90887,,47.4644089,,20.0,,0 / 20,3953,2014-12-14 14:13:49:347
-1.8985,-10.3637,-4.3313,-0.1944,-9.768,-0.848,-2.5719,-0.7802,-2.4872,-6.13,41.15,11.95,183.18,86.08,-174.43,0.0,68.53,35.178043,126.90887,,47.4644089,,20.0,,0 / 20,4003,2014-12-14 14:13:49:397
-2.6839,-5.7657,-4.2163,-0.5668,-9.6637,-1.5688,-1.7227,5.405,-2.32,-12.01,40.09,5.83,256.67,84.91,167.09,0.0,68.53,35.178043,126.90887,,47.4644089,,20.0,,0 / 20,4053,2014-12-14 14:13:49:447
-4.0825,-3.1602,-4.3696,-0.7528,-9.6181,-1.7594,-2.6599,6.6064,-2.1269,-13.13,38.59,4.14,298.18,80.21,160.14,0.0,68.53,35.178043,126.90887,,47.4644089,,20.0,,0 / 20,4103,2014-12-14 14:13:49:497
-4.2932,-2.0682,-5.0401,-1.2191,-9.4744,-2.2182,-2.9216,7.5597,-2.3051,-15.01,39.34,4.39,298.18,80.21,160.14,0.0,68.53,35.178043,126.90887,,47.4644089,,20.0,,0 / 20,4153,2014-12-14 14:13:49:547
-4.8871,-4.7695,-0.2314,-2.0326,-9.0739,-3.1151,-2.6341,7.3678,-2.647,-13.51,40.03,5.26,309.48,75.04,151.21,0.0,68.53,35.178043,126.90887,,47.4644089,,20.0,,0 / 20,4203,2014-12-14 14:13:49:597
17.4131,-24.8857,31.533,-1.9094,-9.4881,-1.5812,6.234,-9.4153,15.4749,-14.63,37.84,6.14,317.6,67.71,146.88,0.0,68.53,35.178043,126.90887,,47.4644089,,20.0,,0 / 20,4253,2014-12-14 14:13:49:647
2.3547,-15.2108,10.7271,0.3649,-9.6282,1.8264,6.018,-7.3457,14.0354,-15.01,37.46,7.14,317.6,67.71,146.88,0.0,65.523,35.178043,126.90887,,47.4644089,,20.0,,0 / 20,4303,2014-12-14 14:13:49:697
-13.221,-18.8125,-0.4422,-1.022,-9.6916,1.0945,-10.7517,-9.0272,1.2731,-15.01,36.03,5.7,60.81,79.05,-11.3,0.0,65.523,35.178043,126.90887,,47.4644089,,20.0,,0 / 20,4353,2014-12-14 14:13:49:747
3.5808,-21.2265,-5.9406,-0.8536,-9.707,1.1028,1.4736,-12.216,1.4857,-13.51,35.28,7.01,15.37,81.22,43.04,0.0,65.523,35.178043,126.90887,,47.4644089,,20.0,,0 / 20,4403,2014-12-14 14:13:49:797
-1.8793,-10.4404,-5.7107,-1.954,-9.5618,-0.9611,-10.7258,10.7635,-14.6037,-13.13,34.15,7.45,15.37,81.22,43.04,0.0,65.523,35.178043,126.90887,,47.4644089,,20.0,,0 / 20,4457,2014-12-14 14:13:49:851
3.849,-11.4557,-1.266,-1.5656,-9.6095,-1.1732,4.5289,-4.2766,0.5773,-10.2,33.78,12.83,303.65,77.17,116.19,0.0,65.523,35.178043,126.90887,,47.4644089,,20.0,,0 / 20,4503,2014-12-14 14:13:49:897
-2.0709,-8.5437,-0.6529,-1.2091,-9.6005,-1.5935,0.0054,0.884,-1.188,-8.32,31.59,15.7,266.26,78.67,141.34,0.0,65.523,35.178043,126.90887,,47.4644089,,20.0,,0 / 20,4553,2014-12-14 14:13:49:947
-0.2317,-9.8273,-1.0552,-1.3242,-9.5889,-1.5719,-0.6052,1.1226,-0.0397,-5.38,29.71,15.26,266.26,78.67,141.34,0.0,65.523,35.178043,126.90887,,47.4644089,,20.0,,0 / 20,4603,2014-12-14 14:13:49:997
1.2244,-10.0764,-1.4575,-1.1842,-9.6126,-1.5381,1.6233,-0.2823,0.2459,-3.88,29.71,20.7,247.43,77.9,139.89,0.0,70.793,35.178043,126.90887,,47.4644089,,20.0,,0 / 20,4653,2014-12-14 14:13:50:047
0.2856,-9.9614,-1.3234,-0.5971,-9.6906,-1.3803,3.5262,-0.4393,0.9506,-1.32,28.59,19.64,223.43,80.16,149.72,0.0,70.793,35.178043,126.90887,,47.4644089,,20.0,,0 / 20,4703,2014-12-14 14:13:50:097
-1.9751,-9.5399,-0.0015,-0.5559,-9.723,-1.1507,-1.1706,0.2617,1.7252,-0.2,26.4,21.83,223.43,80.16,149.72,0.0,70.793,35.178043,126.90887,,47.4644089,,20.0,,0 / 20,4754,2014-12-14 14:13:50:148
-0.9405,-9.7507,-0.8828,-0.6522,-9.7248,-1.0832,-0.3517,0.0024,0.219,1.24,26.4,21.83,207.46,82.51,154.22,0.0,70.793,35.178043,126.90887,,47.4644089,,20.0,,0 / 20,4803,2014-12-14 14:13:50:197
1.665,-10.0764,-2.3388,-0.5017,-9.7415,-1.0106,1.7289,0.102,0.3539,2.74,25.65,22.01,207.46,82.51,154.22,0.0,70.793,35.178043,126.90887,,47.4644089,,20.0,,0 / 20,4853,2014-12-14 14:13:50:247
5.6308,-15.3832,0.3433,-0.3061,-9.7396,-1.1027,0.192,-1.0262,-1.003,4.55,24.53,22.14,195.67,83.39,153.6,0.0,70.793,35.178043,126.90887,,47.4644089,,20.0,,0 / 20,4903,2014-12-14 14:13:50:297
5.3434,-14.4828,4.4624,0.5161,-9.7818,-0.4693,4.9305,-3.7245,4.5927,6.8,25.28,20.83,170.46,84.5,170.04,0.0,66.053,35.178043,126.90887,,47.4644089,,20.0,,0 / 20,4953,2014-12-14 14:13:50:347
-3.8143,-13.7739,-5.634,0.3445,-9.7925,-0.3994,-2.7803,-0.1016,-5.061,3.87,28.96,17.45,66.1,86.57,-84.52,0.0,66.053,35.178043,126.90887,,47.4644089,,20.0,,0 / 20,5035,2014-12-14 14:13:50:429
-3.8143,-13.7739,-5.634,0.3445,-9.7925,-0.3994,-2.7803,-0.1016,-5.061,2.74,30.46,16.51,66.1,86.57,-84.52,0.0,66.053,35.178043,126.90887,,47.4644089,,20.0,,0 / 20,5053,2014-12-14 14:13:50:447
-2.1667,-15.9005,-2.3963,-0.1635,-9.7756,-0.762,-2.0392,-3.9954,-1.2613,0.49,31.59,13.76,134.12,86.92,-139.22,0.0,66.053,35.178043,126.90887,,47.4644089,,20.0,,0 / 20,5103,2014-12-14 14:13:50:497
-2.2242,-8.7736,-3.6607,-0.4336,-9.7456,-1.0029,-2.5521,0.7928,-2.1912,-4.63,32.71,13.7,234.93,83.6,156.62,0.0,66.053,35.178043,126.90887,,47.4644089,,20.0,,0 / 20,5153,2014-12-14 14:13:50:547
-2.7606,-6.3788,-3.2584,-0.7611,-9.6764,-1.3992,-1.6877,4.7676,-1.5927,-7.57,33.03,11.07,234.93,83.6,156.62,0.0,66.053,35.178043,126.90887,,47.4644089,,20.0,,0 / 20,5203,2014-12-14 14:13:50:597
-4.2358,-3.1411,-3.6607,-1.1647,-9.5898,-1.6882,-2.815,6.2358,-1.4544,-11.63,33.03,7.89,274.95,80.65,151.46,0.0,66.053,35.178043,126.90887,,47.4644089,,20.0,,0 / 20,5253,2014-12-14 14:13:50:647
-4.8488,-2.5663,-4.4079,-1.6409,-9.4459,-2.0624,-2.7833,6.7386,-1.8506,-12.38,34.53,10.39,300.14,74.41,141.49,0.0,69.203,35.178043,126.90887,,47.4644089,,20.0,,0 / 20,5303,2014-12-14 14:13:50:697
-2.1858,-11.3025,2.3358,-2.6327,-9.0282,-2.7804,-1.6344,2.8967,1.3718,-11.32,32.28,10.89,298.68,72.15,140.18,0.0,69.203,35.178043,126.90887,,47.4644089,,20.0,,0 / 20,5353,2014-12-14 14:13:50:747
28.1034,-30.9014,38.5833,-1.1977,-9.7232,-0.4418,15.7119,-14.3608,23.4757,-12.01,33.03,10.45,298.68,72.15,140.18,0.0,69.203,35.178043,126.90887,,47.4644089,,20.0,,0 / 20,5403,2014-12-14 14:13:50:797
-3.7568,-6.0914,2.8531,0.2292,-9.625,1.8646,-1.7307,-1.0344,5.7218,-12.76,33.03,10.58,42.62,78.96,-7.01,0.0,69.203,35.178043,126.90887,,47.4644089,,20.0,,0 / 20,5453,2014-12-14 14:13:50:847
-12.1098,-15.9005,-3.6033,-0.1167,-9.7702,0.8362,-2.5603,6.1897,-14.588,-13.51,30.09,13.26,39.17,79.36,-2.19,0.0,69.203,35.178043,126.90887,,47.4644089,,20.0,,0 / 20,5503,2014-12-14 14:13:50:897
10.1521,-16.9733,-3.2009,-0.5027,-9.7721,0.6511,3.6995,-12.5013,2.4306,-13.51,32.28,12.2,39.17,79.36,-2.19,0.0,69.203,35.178043,126.90887,,47.4644089,,20.0,,0 / 20,5553,2014-12-14 14:13:50:947
-2.5115,-7.6432,-3.45,-1.8146,-9.5428,-1.3466,-14.1536,11.5978,-12.5117,-12.76,30.84,13.89,8.32,85.19,37.67,0.0,67.144,35.178043,126.90887,,47.4644089,,20.0,,0 / 20,5603,2014-12-14 14:13:50:997
0.6496,-8.5629,-4.0822,-1.4105,-9.5974,-1.4391,6.4429,-5.6688,1.0185,-10.95,30.84,17.58,284.16,76.68,126.58,0.0,67.144,35.178043,126.90887,,47.4644089,,20.0,,0 / 20,5653,2014-12-14 14:13:51:047
-1.0746,-8.6778,-0.8445,-0.8015,-9.6168,-1.7452,0.5678,0.9326,-0.5444,-8.32,31.21,18.08,247.13,78.88,153.73,0.0,67.144,35.178043,126.90887,,47.4644089,,20.0,,0 / 20,5703,2014-12-14 14:13:51:097
1.2818,-10.0955,-0.6912,-0.9323,-9.6252,-1.6297,-0.9446,0.2253,0.9442,-8.7,28.59,22.58,247.13,78.88,153.73,0.0,67.144,35.178043,126.90887,,47.4644089,,20.0,,0 / 20,5753,2014-12-14 14:13:51:147
0.7837,-9.5782,-1.515,-0.5778,-9.6614,-1.5793,1.7608,0.107,-0.7681,-6.13,27.15,25.2,236.23,78.96,150.23,0.0,67.144,35.178043,126.90887,,47.4644089,,20.0,,0 / 20,5803,2014-12-14 14:13:51:197
0.3622,-9.31,-1.4575,-0.3531,-9.6756,-1.5585,1.7135,-0.1063,0.2897,-5.76,24.9,24.33,212.2,80.62,167.23,0.0,67.144,35.178043,126.90887,,47.4644089,,20.0,,0 / 20,5853,2014-12-14 14:13:51:247
-0.8448,-9.5782,-0.8636,-0.6142,-9.6848,-1.4132,-1.4526,0.3823,0.6226,-3.88,26.4,26.2,213.17,80.96,160.79,0.0,67.144,35.178043,126.90887,,47.4644089,,20.0,,0 / 20,5903,2014-12-14 14:13:51:297
-0.155,-9.061,-2.4155,-0.5424,-9.6972,-1.3569,0.7172,0.3277,0.2367,-2.07,23.84,27.51,213.17,80.96,160.79,0.0,69.568,35.178043,126.90887,,47.4644089,,20.0,,0 / 20,5953,2014-12-14 14:13:51:347
-2.3391,-8.6012,-0.7295,-0.4835,-9.6827,-1.4772,0.2012,0.3489,-0.9047,0.87,22.71,27.95,202.68,81.43,158.21,0.0,69.568,35.178043,126.90887,,47.4644089,,20.0,,0 / 20,6003,2014-12-14 14:13:51:397
7.4316,-14.8659,-1.7641,-0.2216,-9.6909,-1.4861,5.6236,-3.7436,-0.7017,5.68,23.46,29.95,176.76,81.19,171.52,0.0,69.568,35.178043,126.90887,,47.4644089,,20.0,,0 / 20,6053,2014-12-14 14:13:51:447
-0.8831,-14.6552,-2.6645,0.3882,-9.7286,-1.1726,2.3064,-2.934,2.0607,6.05,24.21,27.08,176.76,81.19,171.52,0.0,69.568,35.178043,126.90887,,47.4644089,,20.0,,0 / 20,6103,2014-12-14 14:13:51:497
-5.0596,-11.7814,-3.5266,0.1244,-9.7211,-1.2864,-3.4693,-3.2075,-2.741,4.55,27.15,26.64,147.12,82.76,-161.68,0.0,69.568,35.178043,126.90887,,47.4644089,,20.0,,0 / 20,6153,2014-12-14 14:13:51:547
-4.5423,-11.0534,-3.814,-0.4085,-9.6784,-1.5273,-3.7931,-0.1075,-2.0334,2.37,28.59,25.64,147.12,82.76,-161.68,0.0,69.568,35.178043,126.90887,,47.4644089,,20.0,,0 / 20,6203,2014-12-14 14:13:51:597
-1.6494,-11.1875,-4.8677,-1.0773,-9.5527,-1.9377,-0.6262,-0.5242,-2.1867,-2.07,32.28,23.14,196.1,80.72,165.03,0.0,69.146,35.178043,126.90887,,47.4644089,,20.0,,0 / 20,6253,2014-12-14 14:13:51:647
-3.0671,-9.8848,-3.3542,-1.0773,-9.5527,-1.9377,-0.6262,-0.5242,-2.1867,-5.01,32.65,21.89,239.41,76.93,150.93,0.0,69.146,35.178043,126.90887,,47.4644089,,20.0,,0 / 20,6303,2014-12-14 14:13:51:697
-2.8564,-7.3176,-4.3504,-1.4909,-9.4163,-2.2981,-2.072,2.4436,-1.1531,-10.2,35.28,20.51,264.49,73.78,147.03,0.0,69.146,35.178043,126.90887,,47.4644089,,20.0,,0 / 20,6353,2014-12-14 14:13:51:747
-1.8027,-6.4938,-4.6187,-1.645,-9.3149,-2.5878,-0.3788,3.2718,-1.6289,-11.63,34.15,18.26,264.49,73.78,147.03,0.0,69.146,35.178043,126.90887,,47.4644089,,20.0,,0 / 20,6403,2014-12-14 14:13:51:797
-3.3545,-6.2255,-3.1626,-1.6825,-9.2641,-2.7416,-0.0908,3.4271,-1.5647,-11.26,33.4,19.01,272.04,71.78,147.56,0.0,69.146,35.178043,126.90887,,47.4644089,,20.0,,0 / 20,6453,2014-12-14 14:13:51:847
-2.2433,-9.0801,0.9947,-2.0635,-9.2177,-2.6355,-0.1101,0.9945,2.5777,-14.26,36.03,17.45,288.81,69.19,145.17,0.0,69.146,35.178043,126.90887,,47.4644089,,20.0,,0 / 20,6503,2014-12-14 14:13:51:897
-3.8526,-9.6166,-2.3771,-1.8748,-9.4519,-1.8214,2.246,-3.6609,6.5726,-15.01,33.4,18.01,288.81,69.19,145.17,0.0,69.146,35.178043,126.90887,,47.4644089,,20.0,,0 / 20,6553,2014-12-14 14:13:51:947
-1.841,-9.5399,2.1059,-1.9076,-9.4982,-1.5217,-1.8804,0.8838,1.235,-14.63,33.03,18.7,284.89,74.54,134.17,0.0,66.639,35.178043,126.90887,,47.4644089,,20.0,,0 / 20,6603,2014-12-14 14:13:51:997
0.209,-9.9039,0.3433,-1.8913,-9.524,-1.3735,0.319,0.0867,2.1516,-15.32,33.78,17.83,292.36,76.21,125.99,0.0,66.639,35.178043,126.90887,,47.4644089,,20.0,,0 / 20,6653,2014-12-14 14:13:52:047
1.0711,-9.9997,0.8606,-1.5411,-9.6368,-0.9632,1.2589,-0.9895,2.494,-14.26,33.4,19.14,285.26,77.49,128.15,0.0,66.639,35.178043,126.90887,,47.4644089,,20.0,,0 / 20,6703,2014-12-14 14:13:52:097
0.5538,-9.5016,0.1709,-1.2139,-9.696,-0.8269,2.1246,0.3519,0.796,-12.38,34.53,19.14,285.26,77.49,128.15,0.0,66.639,35.178043,126.90887,,47.4644089,,20.0,,0 / 20,6753,2014-12-14 14:13:52:147
0.3814,-9.9231,0.7074,-0.985,-9.7383,-0.605,1.5931,-0.505,1.7687,-14.63,32.28,19.14,285.01,81.39,124.26,0.0,66.639,35.178043,126.90887,,47.4644089,,20.0,,0 / 20,6803,2014-12-14 14:13:52:197
-0.1742,-9.9039,-0.1739,-0.7472,-9.7706,-0.3849,0.7002,-0.2283,0.3943,-14.26,33.78,18.26,286.43,83.92,120.12,0.0,66.639,35.178043,126.90887,,47.4644089,,20.0,,0 / 20,6853,2014-12-14 14:13:52:247
-0.5765,-9.2525,-0.3272,-0.7088,-9.774,-0.3697,0.159,0.147,0.1066,-15.01,34.9,19.45,286.43,83.92,120.12,0.0,60.269,35.178043,126.90887,,47.4644089,,20.0,,0 / 20,6903,2014-12-14 14:13:52:297
-0.3275,-9.9039,0.0751,-0.6664,-9.7774,-0.3577,0.3961,0.0919,0.1547,-14.63,35.28,19.58,285.6,85.32,117.55,0.0,60.269,35.178043,126.90887,,47.4644089,,20.0,,0 / 20,6953,2014-12-14 14:13:52:347
0.1515,-9.674,0.1901,-0.6142,-9.7827,-0.3038,0.3232,-0.237,0.3983,-13.13,33.4,19.64,285.6,85.32,117.55,0.0,60.269,35.178043,126.90887,,47.4644089,,20.0,,0 / 20,7003,2014-12-14 14:13:52:397
0.5155,-9.789,0.4008,-0.4602,-9.794,-0.189,0.7552,0.1174,0.5517,-14.26,33.4,20.14,283.92,85.99,116.32,0.0,60.269,35.178043,126.90887,,47.4644089,,20.0,,0 / 20,7053,2014-12-14 14:13:52:447
0.2664,-9.8273,0.6499,-0.3976,-9.7975,-0.1455,0.8609,-0.1177,0.5988,-13.13,33.03,19.26,286.05,87.09,112.33,0.0,60.269,35.178043,126.90887,,47.4644089,,20.0,,0 / 20,7103,2014-12-14 14:13:52:497
-0.021,-9.674,0.4774,-0.2757,-9.8028,0.0131,0.2193,0.0506,0.4198,-14.26,34.15,22.07,295.27,88.12,99.4,0.0,60.269,35.178043,126.90887,,47.4644089,,20.0,,0 / 20,7153,2014-12-14 14:13:52:547
0.0557,-9.7315,0.0943,-0.236,-9.8037,0.0482,0.2901,-0.0083,0.1233,-14.26,33.78,19.01,295.27,88.12,99.4,0.0,60.269,35.178043,126.90887,,47.4644089,,20.0,,0 / 20,7203,2014-12-14 14:13:52:597
-0.1167,-9.7507,0.2667,-0.208,-9.8043,0.0588,0.0695,-0.0768,0.0898,-12.76,33.03,19.45,318.28,88.67,77.36,0.0,53.427,35.178043,126.90887,,47.4644089,,20.0,,0 / 20,7253,2014-12-14 14:13:52:647
0.2664,-9.674,-0.1356,-0.1551,-9.8053,0.0444,0.4202,-0.1085,0.0346,-13.51,34.15,19.2,323.18,89.06,74.02,0.0,53.427,35.178043,126.90887,,47.4644089,,20.0,,0 / 20,7303,2014-12-14 14:13:52:697
0.2281,-9.6932,0.1134,-0.1316,-9.8057,0.038,0.3255,0.0157,-0.0896,-13.51,33.78,18.7,323.18,89.06,74.02,0.0,53.427,35.178043,126.90887,,47.4644089,,20.0,,0 / 20,7353,2014-12-14 14:13:52:747
0.094,-9.789,0.0177,-0.0902,-9.8061,0.0596,0.0576,0.0631,0.1316,-13.51,34.15,21.7,319.24,89.2,73.91,0.0,53.427,35.178043,126.90887,,47.4644089,,20.0,,0 / 20,7403,2014-12-14 14:13:52:797
0.2473,-9.5208,-0.9977,-0.0448,-9.8064,-0.0455,0.2434,0.1434,-0.8351,-13.51,36.03,19.7,329.35,89.56,65.98,0.0,53.427,35.178043,126.90887,,47.4644089,,20.0,,0 / 20,7453,2014-12-14 14:13:52:847
-0.0018,-9.4825,-0.1739,-0.0503,-9.806,-0.1044,-0.1891,0.2148,-0.2453,-13.13,32.71,22.01,329.35,89.56,65.98,0.0,53.427,35.178043,126.90887,,47.4644089,,20.0,,0 / 20,7503,2014-12-14 14:13:52:897
0.3239,-10.4212,0.0943,-0.059,-9.8052,-0.1591,-0.0934,0.1515,-0.5908,-10.95,33.4,22.58,231.99,89.32,154.26,0.0,53.427,35.178043,126.90887,,47.4644089,,20.0,,0 / 20,7553,2014-12-14 14:13:52:947
0.1132,-9.5591,-0.1739,-0.0224,-9.805,-0.1812,0.7384,-0.6331,0.0093,-9.07,33.4,24.33,208.24,88.93,172.97,0.0,69.364,35.178043,126.90887,,47.4644089,,20.0,,0 / 20,7603,2014-12-14 14:13:52:997
0.6113,-9.9997,0.305,0.0474,-9.8054,-0.1484,0.2709,-0.2327,0.2303,-8.32,32.28,23.83,193.6,88.91,-174.84,0.0,69.364,35.178043,126.90887,,47.4644089,,20.0,,0 / 20,7653,2014-12-14 14:13:53:047
1.0328,-9.8656,0.8989,0.1421,-9.8054,-0.0715,0.8477,-0.1684,0.6709,-10.2,34.15,23.2,193.6,88.91,-174.84,0.0,69.364,35.178043,126.90887,,47.4644089,,20.0,,0 / 20,7703,2014-12-14 14:13:53:097
0.5347,-9.2525,-1.2468,0.1862,-9.8049,-0.0069,0.6171,-0.0931,0.9014,-11.32,33.4,22.33,142.51,89.07,-116.71,0.0,69.364,35.178043,126.90887,,47.4644089,,20.0,,0 / 20,7753,2014-12-14 14:13:53:147