ACCELEROMETER X (m/s²),ACCELEROMETER Y (m/s²),ACCELEROMETER Z (m/s²),GRAVITY X (m/s²),GRAVITY Y (m/s²),GRAVITY Z (m/s²),LINEAR ACCELERATION X (m/s²),LINEAR ACCELERATION Y (m/s²),LINEAR ACCELERATION Z (m/s²),MAGNETIC FIELD X (μT),MAGNETIC FIELD Y (μT),MAGNETIC FIELD Z (μT),ORIENTATION X (°),ORIENTATION Y (°),ORIENTATION Z (°),PROXIMITY (i),SOUND LEVEL (dB),LOCATION Latitude : ,LOCATION Longitude : ,LOCATION Altitude ( m),LOCATION Altitude-google ( m),LOCATION Speed ( Kmh),LOCATION Accuracy ( m),LOCATION ORIENTATION (°),Satellites in range,Time since start in ms ,YYYY-MO-DD HH-MI-SS_SSS
-0.5191,-9.9806,0.8415,-0.2575,-9.8011,0.2041,-0.3263,0.0334,0.1471,-7.57,38.59,2.45,27.03,88.29,45.27,0.0,61.443,35.178047,126.90883,,156.17492018489244,,64.51613,,0 / 20,5,2014-12-14 14:11:52:686
-0.1359,-9.7315,1.5695,-0.2655,-9.7948,0.4025,0.2047,-0.0679,1.181,-7.57,38.96,5.14,27.03,88.29,45.27,0.0,61.443,35.178047,126.90883,,156.17492018489244,,64.51613,,0 / 20,55,2014-12-14 14:11:52:736
1.3393,-9.789,1.9143,-0.0987,-9.7889,0.5823,1.3943,-0.0427,1.2544,-5.38,40.46,0.95,33.13,87.18,33.41,0.0,61.443,35.178047,126.90883,,156.17492018489244,,64.51613,,0 / 20,105,2014-12-14 14:11:52:786
4.6537,-11.7431,2.719,0.5649,-9.7438,0.9535,4.3089,-1.8144,1.866,-7.57,37.84,2.01,65.42,85.54,-8.47,0.0,61.443,35.178047,126.90883,,156.17492018489244,,64.51613,,0 / 20,155,2014-12-14 14:11:52:836
-1.3046,-9.4825,2.1825,0.934,-9.7055,1.0491,5.4757,-1.3425,1.575,-5.76,39.34,0.89,65.42,85.54,-8.47,0.0,61.443,35.178047,126.90883,,156.17492018489244,,64.51613,,0 / 20,205,2014-12-14 14:11:52:886
-2.205,-9.9231,3.2746,0.6621,-9.6863,1.3812,-3.0297,-0.016,1.4523,-7.95,40.03,-1.05,63.91,81.77,-41.68,0.0,61.443,35.178047,126.90883,,156.17492018489244,,64.51613,,0 / 20,255,2014-12-14 14:11:52:936
-0.021,-11.0343,-0.1739,0.5207,-9.7013,1.3357,0.5054,-0.832,-1.5298,-9.45,37.09,-2.36,87.52,81.59,-21.3,0.0,68.242,35.178047,126.90883,,156.17492018489244,,64.51613,,0 / 20,305,2014-12-14 14:11:52:986
1.1094,-8.6395,0.4391,0.7491,-9.7297,0.9709,1.0539,0.5335,-1.2676,-8.7,37.46,-4.11,87.52,81.59,-21.3,0.0,68.242,35.178047,126.90883,,156.17492018489244,,64.51613,,0 / 20,355,2014-12-14 14:11:53:036
0.2664,-8.1414,0.7648,0.7334,-9.732,0.9592,-0.3517,1.6418,-0.3334,-11.32,36.03,-5.3,129.9,82.82,-37.65,0.0,68.242,35.178047,126.90883,,156.17492018489244,,64.51613,,0 / 20,405,2014-12-14 14:11:53:086
0.6688,-9.31,2.7764,0.6818,-9.7119,1.1768,0.0466,0.2941,1.6522,-9.82,35.28,-5.49,135.85,82.87,-35.27,0.0,68.242,35.178047,126.90883,,156.17492018489244,,64.51613,,0 / 20,455,2014-12-14 14:11:53:136
0.7262,-9.061,3.3703,0.692,-9.6935,1.3141,0.1353,0.3349,1.8805,-11.26,35.65,-2.36,98.81,81.29,-27.77,0.0,68.242,35.178047,126.90883,,156.17492018489244,,64.51613,,0 / 20,505,2014-12-14 14:11:53:186
0.7262,-7.5475,2.0101,0.6452,-9.6359,1.7041,0.1426,1.6369,0.3897,-10.95,33.03,-3.55,98.81,81.29,-27.77,0.0,68.242,35.178047,126.90883,,156.17492018489244,,64.51613,,0 / 20,556,2014-12-14 14:11:53:237
0.8987,-7.4517,1.876,0.6765,-9.6271,1.7414,0.318,1.5252,0.2426,-12.01,28.21,-5.36,125.07,79.29,-20.74,0.0,66.722,35.178047,126.90883,,156.17492018489244,,64.51613,,0 / 20,605,2014-12-14 14:11:53:286
1.3776,-8.7928,2.5465,0.7905,-9.5983,1.8486,1.0587,0.8178,0.7716,-12.38,29.34,-4.55,109.28,78.17,-23.15,0.0,66.722,35.178047,126.90883,,156.17492018489244,,64.51613,,0 / 20,655,2014-12-14 14:11:53:336
1.4159,-8.6778,1.8568,0.9833,-9.5429,2.0339,0.5387,0.0385,0.637,-10.95,28.59,-5.92,113.92,76.68,-25.8,0.0,66.722,35.178047,126.90883,,156.17492018489244,,64.51613,,0 / 20,705,2014-12-14 14:11:53:386
-5.5194,-6.4938,-6.5728,0.326,-9.7308,1.1729,-7.0029,-2.2737,-5.099,-9.45,27.9,-3.74,113.92,76.68,-25.8,0.0,66.722,35.178047,126.90883,,156.17492018489244,,64.51613,,0 / 20,756,2014-12-14 14:11:53:437
8.3895,-23.3722,16.8386,0.1825,-9.653,1.7193,-1.5197,-14.7198,9.7165,-8.7,26.78,-1.99,103.63,82.87,-15.53,0.0,66.722,35.178047,126.90883,,156.17492018489244,,64.51613,,0 / 20,805,2014-12-14 14:11:53:486
-14.3705,2.0125,-14.0637,-0.4519,-9.7491,0.9596,-5.9944,6.1639,-9.2246,-8.7,26.78,0.01,67.37,75.74,-21.18,0.0,66.722,35.178047,126.90883,,156.17492018489244,,64.51613,,0 / 20,855,2014-12-14 14:11:53:536
6.4546,-16.6285,-1.266,0.4223,-9.7424,1.0377,11.7926,-7.6437,1.8463,-7.26,25.28,2.01,74.0,83.44,-22.15,0.0,66.722,35.178047,126.90883,,156.17492018489244,,64.51613,,0 / 20,905,2014-12-14 14:11:53:586
-3.4311,-7.9498,-1.1893,0.1346,-9.7951,0.4562,-4.2069,1.595,-3.106,-6.88,26.03,3.51,74.0,83.44,-22.15,0.0,65.902,35.178047,126.90883,,156.17492018489244,,64.51613,,0 / 20,955,2014-12-14 14:11:53:636
-0.634,-8.1222,-2.5879,0.0854,-9.804,0.2102,-1.2754,1.3618,-2.7783,-6.51,23.09,5.26,73.19,88.67,-22.12,0.0,65.902,35.178047,126.90883,,156.17492018489244,,64.51613,,0 / 20,1005,2014-12-14 14:11:53:686
-1.3046,-9.1376,-2.4538,-0.0202,-9.8026,-0.281,-0.8917,0.2699,-1.9543,-4.63,22.71,6.14,156.03,89.61,-116.68,0.0,65.902,35.178047,126.90883,,156.17492018489244,,64.51613,,0 / 20,1055,2014-12-14 14:11:53:736
-0.8831,-9.2717,-2.5496,-0.1727,-9.788,-0.5789,-0.8441,0.3036,-2.031,-3.88,23.09,7.7,156.03,89.61,-116.68,0.0,65.902,35.178047,126.90883,,156.17492018489244,,64.51613,,0 / 20,1105,2014-12-14 14:11:53:786
-0.7298,-9.1376,-2.1472,-0.2694,-9.7722,-0.776,-0.5692,0.3989,-1.2871,-2.82,21.21,8.89,220.15,86.47,163.38,0.0,65.902,35.178047,126.90883,,156.17492018489244,,64.51613,,0 / 20,1155,2014-12-14 14:11:53:836
-1.8793,-9.2525,-0.9977,-0.3657,-9.757,-0.9152,-1.3077,0.1514,-0.1525,0.55,19.78,10.64,189.45,84.6,167.0,0.0,65.902,35.178047,126.90883,,156.17492018489244,,64.51613,,0 / 20,1205,2014-12-14 14:11:53:886
-0.9789,-11.6282,-2.0131,-0.5071,-9.7392,-1.0304,-0.4955,-1.8085,-0.9649,0.18,17.9,11.2,189.45,84.6,167.0,0.0,65.902,35.178047,126.90883,,156.17492018489244,,64.51613,,0 / 20,1255,2014-12-14 14:11:53:936
2.9294,-11.7431,-1.1319,-0.2089,-9.7539,-0.9944,2.9627,-1.7153,-0.1113,2.37,17.53,11.33,199.67,83.28,153.8,0.0,69.506,35.178047,126.90883,,156.17492018489244,,64.51613,,0 / 20,1305,2014-12-14 14:11:53:986
1.8566,-13.295,0.056,0.1189,-9.7609,-0.9384,1.8177,-2.8286,0.8445,4.93,16.78,12.89,199.67,83.28,153.8,0.0,69.506,35.178047,126.90883,,156.17492018489244,,64.51613,,0 / 20,1356,2014-12-14 14:11:54:037
2.5271,-12.1071,-0.423,0.711,-9.7757,-0.3174,2.2172,-2.4852,4.8565,6.8,16.78,12.08,144.26,84.46,-172.78,0.0,69.506,35.178047,126.90883,,156.17492018489244,,64.51613,,0 / 20,1405,2014-12-14 14:11:54:086
-2.3774,-13.3333,-5.7682,0.7397,-9.755,-0.6808,-2.0455,-0.2618,-3.5359,7.55,19.4,11.76,74.61,85.45,-114.06,0.0,69.506,35.178047,126.90883,,156.17492018489244,,64.51613,,0 / 20,1455,2014-12-14 14:11:54:136
-5.0021,-14.2146,-0.7104,0.1257,-9.7733,-0.798,-5.5768,-3.5571,0.0367,6.8,24.21,11.2,74.61,85.45,-114.06,0.0,69.506,35.178047,126.90883,,156.17492018489244,,64.51613,,0 / 20,1505,2014-12-14 14:11:54:186
-3.0863,-12.5286,-2.8178,-0.4809,-9.7497,-0.9389,-2.3526,-0.6416,-1.7128,4.93,26.4,8.33,128.72,85.27,-171.05,0.0,69.506,35.178047,126.90883,,156.17492018489244,,64.51613,,0 / 20,1555,2014-12-14 14:11:54:236
-2.3008,-7.8157,-3.2393,-0.6045,-9.7195,-1.1561,-0.7872,2.0012,-1.7546,0.49,28.59,6.39,243.07,82.36,152.4,0.0,69.021,35.178047,126.90883,,156.17492018489244,,64.51613,,0 / 20,1605,2014-12-14 14:11:54:286
-3.5652,-5.7849,-3.5266,-1.1756,-9.5804,-1.7332,-2.4266,5.5131,-1.9281,-2.45,30.09,5.45,243.07,82.36,152.4,0.0,69.021,35.178047,126.90883,,156.17492018489244,,64.51613,,0 / 20,1655,2014-12-14 14:11:54:336
-3.9675,-3.6009,-4.4845,-1.3858,-9.5096,-1.9538,-2.4625,6.4487,-2.3027,-3.2,31.21,2.45,331.53,77.67,145.85,0.0,69.021,35.178047,126.90883,,156.17492018489244,,64.51613,,0 / 20,1705,2014-12-14 14:11:54:386
-1.0363,-3.1411,-3.2201,-2.0009,-9.1976,-2.7515,0.7902,4.7749,0.1163,-4.26,30.46,2.89,329.38,73.61,143.36,0.0,69.021,35.178047,126.90883,,156.17492018489244,,64.51613,,0 / 20,1755,2014-12-14 14:11:54:436
3.1976,-12.701,7.681,-1.8936,-9.3155,-2.4097,1.7234,0.3716,4.7692,-5.01,30.46,3.39,329.38,73.61,143.36,0.0,69.021,35.178047,126.90883,,156.17492018489244,,64.51613,,0 / 20,1805,2014-12-14 14:11:54:486
7.5274,-16.1112,16.8003,-0.494,-9.7927,0.1719,9.9037,-7.3657,18.6596,-5.01,30.09,4.14,325.52,71.79,141.84,0.0,69.021,35.178047,126.90883,,156.17492018489244,,64.51613,,0 / 20,1855,2014-12-14 14:11:54:536
1.7416,-10.1338,5.3053,0.2443,-9.6463,1.749,1.4917,0.6007,2.4072,-7.26,28.96,4.01,325.52,71.79,141.84,0.0,69.021,35.178047,126.90883,,156.17492018489244,,64.51613,,0 / 20,1905,2014-12-14 14:11:54:586
-2.9905,-2.2215,-12.2437,-0.0727,-9.7723,0.8165,-5.2915,5.8789,-14.0223,-6.88,30.09,2.95,44.9,79.63,-7.95,0.0,67.522,35.178047,126.90883,,156.17492018489244,,64.51613,,0 / 20,1955,2014-12-14 14:11:54:636
-10.7879,1.3611,-14.217,-0.4156,-9.7375,1.086,3.5248,-3.3977,-1.1685,-7.95,28.59,5.08,8.17,84.09,47.29,0.0,67.522,35.178047,126.90883,,156.17492018489244,,64.51613,,0 / 20,2005,2014-12-14 14:11:54:686
-3.7377,-4.712,-6.9943,-1.9748,-9.5714,-0.812,-10.8846,11.8099,-13.8187,-8.7,27.53,7.45,8.17,84.09,47.29,0.0,67.522,35.178047,126.90883,,156.17492018489244,,64.51613,,0 / 20,2055,2014-12-14 14:11:54:736
-0.9789,-8.6012,-4.4079,-1.1086,-9.6802,-1.1117,2.5173,-0.9496,-2.1864,-5.76,25.65,12.08,310.23,77.42,112.35,0.0,67.522,35.178047,126.90883,,156.17492018489244,,64.51613,,0 / 20,2105,2014-12-14 14:11:54:786
-0.5382,-9.0993,-0.308,-0.9714,-9.6806,-1.23,1.2691,0.1635,1.0527,-5.01,28.21,11.51,268.0,80.79,135.08,0.0,67.522,35.178047,126.90883,,156.17492018489244,,64.51613,,0 / 20,2155,2014-12-14 14:11:54:836
-0.3083,-9.4825,-0.8062,-0.9773,-9.6868,-1.1753,1.6428,-0.0593,0.4683,-3.2,25.65,13.76,268.0,80.79,135.08,0.0,67.522,35.178047,126.90883,,156.17492018489244,,64.51613,,0 / 20,2205,2014-12-14 14:11:54:886
0.8795,-9.6549,-1.266,-0.5494,-9.7057,-1.2913,2.5804,0.1674,-1.1219,-1.32,23.46,14.64,235.29,81.03,140.26,0.0,67.522,35.178047,126.90883,,156.17492018489244,,64.51613,,0 / 20,2255,2014-12-14 14:11:54:936
0.0174,-9.4058,-1.6108,-0.3335,-9.7121,-1.3167,0.4546,0.3784,-0.0472,0.87,21.96,17.26,194.99,82.03,164.43,0.0,69.581,35.178047,126.90883,,156.17492018489244,,64.51613,,0 / 20,2305,2014-12-14 14:11:54:986
-0.8448,-9.9039,-0.9403,-0.5391,-9.7072,-1.2843,-1.4294,0.0387,0.3551,0.87,22.71,15.45,194.99,82.03,164.43,0.0,69.581,35.178047,126.90883,,156.17492018489244,,64.51613,,0 / 20,2355,2014-12-14 14:11:55:036
-0.5957,-9.9422,-1.4958,-0.5707,-9.708,-1.2646,0.2316,-0.3225,-0.182,4.93,18.65,17.64,199.51,81.83,157.23,0.0,69.581,35.178047,126.90883,,156.17492018489244,,64.51613,,0 / 20,2405,2014-12-14 14:11:55:086
1.1286,-10.7661,-0.0781,-0.3518,-9.7397,-1.0883,0.6937,-1.3261,1.0089,4.55,17.9,18.7,191.08,81.87,155.71,0.0,69.581,35.178047,126.90883,,156.17492018489244,,64.51613,,0 / 20,2455,2014-12-14 14:11:55:136
4.9985,-13.8697,1.5503,0.0896,-9.7659,-0.889,3.9373,-3.1821,1.6907,6.05,16.78,20.51,182.18,83.3,162.09,0.0,69.581,35.178047,126.90883,,156.17492018489244,,64.51613,,0 / 20,2505,2014-12-14 14:11:55:186
6.3013,-14.8468,4.0409,0.8029,-9.7665,-0.3761,5.7798,-4.3779,4.2503,7.55,17.53,18.76,182.18,83.3,162.09,0.0,69.581,35.178047,126.90883,,156.17492018489244,,64.51613,,0 / 20,2555,2014-12-14 14:11:55:236
0.3431,-13.0842,-8.412,1.1421,-9.7236,-0.5636,0.5251,0.1558,-6.0691,5.3,19.78,18.95,88.71,84.81,-115.1,0.0,69.581,35.178047,126.90883,,156.17492018489244,,64.51613,,0 / 20,2605,2014-12-14 14:11:55:286
-6.1708,-18.8509,-3.7948,0.5442,-9.7492,-0.9098,-6.2837,-6.5226,-1.9535,4.93,24.15,22.01,95.44,82.54,-116.27,0.0,67.458,35.178047,126.90883,,156.17492018489244,,64.51613,,0 / 20,2655,2014-12-14 14:11:55:336
-4.6764,-13.9272,-2.722,-0.1675,-9.7526,-1.0146,-4.3078,-0.7334,-1.7213,-0.2,28.59,19.89,143.6,83.79,-149.11,0.0,67.458,35.178047,126.90883,,156.17492018489244,,64.51613,,0 / 20,2705,2014-12-14 14:11:55:386
-2.09,-6.6279,-4.0631,-0.3975,-9.7086,-1.3247,-0.8417,3.468,-2.8486,-4.63,33.4,18.51,143.6,83.79,-149.11,0.0,67.458,35.178047,126.90883,,156.17492018489244,,64.51613,,0 / 20,2755,2014-12-14 14:11:55:436
-3.6035,-4.8461,-4.2163,-0.8072,-9.5939,-1.8644,-2.9129,6.7073,-2.1939,-10.95,36.34,13.51,233.43,81.89,163.3,0.0,67.458,35.178047,126.90883,,156.17492018489244,,64.51613,,0 / 20,2806,2014-12-14 14:11:55:487
-4.1591,-2.6621,-5.1934,-1.2585,-9.4369,-2.352,-2.8366,7.376,-2.5775,-12.38,36.34,14.2,268.46,78.04,156.59,0.0,67.458,35.178047,126.90883,,156.17492018489244,,64.51613,,0 / 20,2855,2014-12-14 14:11:55:536
-3.8909,-1.9532,-2.8369,-1.9656,-9.0566,-3.2069,-1.9737,7.2422,-1.475,-12.01,37.84,12.2,268.46,78.04,156.59,0.0,67.458,35.178047,126.90883,,156.17492018489244,,64.51613,,0 / 20,2905,2014-12-14 14:11:55:586
-1.4961,-12.1838,6.4357,-2.2462,-9.1826,-2.6087,-0.4,-2.6182,7.5767,-13.13,37.09,14.76,294.58,67.45,148.49,0.0,67.458,35.178047,126.90883,,156.17492018489244,,64.51613,,0 / 20,2955,2014-12-14 14:11:55:636
14.7884,-19.6363,23.18,-1.565,-9.5969,-1.2733,8.3602,-7.1469,16.7391,-15.32,37.46,15.01,298.55,69.45,139.27,0.0,68.977,35.178047,126.90883,,156.17492018489244,,64.51613,,0 / 20,3005,2014-12-14 14:11:55:686
0.6496,-1.5892,-7.8756,0.2749,-9.7059,1.3745,-0.1624,7.3373,-8.1199,-16.45,40.4,13.76,45.52,81.41,-8.02,0.0,68.977,35.178047,126.90883,,156.17492018489244,,64.51613,,0 / 20,3055,2014-12-14 14:11:55:736
-10.2131,-26.7057,14.9803,-1.1214,-9.7225,0.6218,-9.9366,-13.4703,6.6082,-16.07,40.03,16.83,45.52,81.41,-8.02,0.0,68.977,35.178047,126.90883,,156.17492018489244,,64.51613,,0 / 20,3105,2014-12-14 14:11:55:786
-3.9867,-6.2064,-9.255,-0.4525,-9.7788,0.5843,2.0491,0.3801,-6.6666,-16.45,40.78,16.95,345.46,82.49,60.99,0.0,68.977,35.178047,126.90883,,156.17492018489244,,64.51613,,0 / 20,3155,2014-12-14 14:11:55:836
4.4238,-15.0767,-1.7832,-1.607,-9.6078,-1.1302,3.5298,-1.0577,-2.6285,-16.45,40.4,18.76,345.46,82.49,60.99,0.0,68.977,35.178047,126.90883,,156.17492018489244,,64.51613,,0 / 20,3205,2014-12-14 14:11:55:886
-1.6494,-8.6203,-2.1664,-0.9376,-9.6906,-1.176,3.589,-0.2911,-1.8331,-11.63,39.34,24.95,281.33,78.44,125.12,0.0,68.977,35.178047,126.90883,,156.17492018489244,,64.51613,,0 / 20,3255,2014-12-14 14:11:55:936
-1.8793,-8.7353,-0.1356,-1.0424,-9.6721,-1.2386,-0.7338,1.0504,1.245,-10.2,36.71,26.7,249.14,80.36,143.21,0.0,68.977,35.178047,126.90883,,156.17492018489244,,64.51613,,0 / 20,3305,2014-12-14 14:11:55:986
2.1823,-10.153,-1.5533,-0.9866,-9.6793,-1.2278,1.5203,-0.0726,0.1353,-5.76,33.78,31.39,238.65,80.76,141.22,0.0,69.164,35.178047,126.90883,,156.17492018489244,,64.51613,,0 / 20,3355,2014-12-14 14:11:56:036
0.937,-9.6166,-1.8982,-0.6857,-9.6958,-1.3004,1.5233,0.2838,-0.3819,-4.26,33.4,31.14,238.65,80.76,141.22,0.0,69.164,35.178047,126.90883,,156.17492018489244,,64.51613,,0 / 20,3405,2014-12-14 14:11:56:086
1.2052,-9.8465,-0.9977,-0.4859,-9.7061,-1.3135,1.6742,-0.0241,0.1101,-3.51,31.96,33.83,220.03,81.38,152.2,0.0,69.164,35.178047,126.90883,,156.17492018489244,,64.51613,,0 / 20,3455,2014-12-14 14:11:56:136
-1.4578,-9.9614,-0.4805,-0.5116,-9.7099,-1.2752,-1.1505,0.5207,0.4569,-1.7,32.28,32.89,220.03,81.38,152.2,0.0,69.164,35.178047,126.90883,,156.17492018489244,,64.51613,,0 / 20,3506,2014-12-14 14:11:56:187
1.7225,-10.996,-2.2239,-0.403,-9.7253,-1.194,2.0606,-1.087,-0.9044,3.87,31.21,35.08,213.45,82.26,151.06,0.0,69.164,35.178047,126.90883,,156.17492018489244,,64.51613,,0 / 20,3555,2014-12-14 14:11:56:236
-0.9405,-10.4212,-0.423,-0.4161,-9.7338,-1.1179,-0.346,-0.8218,0.5627,5.68,30.84,33.76,189.86,82.62,161.35,0.0,69.164,35.178047,126.90883,,156.17492018489244,,64.51613,,0 / 20,3605,2014-12-14 14:11:56:286
2.9103,-13.544,0.42,-0.3247,-9.7427,-1.0696,1.2317,-2.4881,0.4324,7.93,31.96,33.07,189.86,82.62,161.35,0.0,69.164,35.178047,126.90883,,156.17492018489244,,64.51613,,0 / 20,3655,2014-12-14 14:11:56:336
3.4467,-13.2183,3.1021,0.9404,-9.7605,-0.1346,4.2047,-2.4852,4.4821,9.37,36.34,30.51,138.43,85.56,-158.19,0.0,67.302,35.178047,126.90883,,156.17492018489244,,64.51613,,0 / 20,3705,2014-12-14 14:11:56:386
1.4542,-10.7852,-3.5841,1.0178,-9.7483,-0.324,-0.445,0.3415,-4.1679,9.37,36.34,30.51,138.43,85.56,-158.19,0.0,67.302,35.178047,126.90883,,156.17492018489244,,64.51613,,0 / 20,3755,2014-12-14 14:11:56:436
-3.2204,-17.663,-2.7411,0.3688,-9.7835,-0.5642,-6.3467,-3.9406,-1.1191,5.68,41.15,22.58,82.29,83.75,-107.66,0.0,67.302,35.178047,126.90883,,156.17492018489244,,64.51613,,0 / 20,3805,2014-12-14 14:11:56:486
-2.3391,-12.701,-3.5458,-0.1562,-9.772,-0.8081,-2.6654,-1.3521,-2.1555,-3.51,43.03,14.39,168.15,86.02,-169.89,0.0,67.302,35.178047,126.90883,,156.17492018489244,,64.51613,,0 / 20,3855,2014-12-14 14:11:56:536
-1.726,-9.3292,-4.1205,-0.3561,-9.7353,-1.126,-1.4634,2.3771,-2.7598,-6.88,43.4,12.83,230.19,85.19,169.06,0.0,67.302,35.178047,126.90883,,156.17492018489244,,64.51613,,0 / 20,3905,2014-12-14 14:11:56:586
-3.1821,-5.076,-4.1014,-0.6929,-9.6401,-1.661,-1.9438,5.6029,-2.1191,-12.01,43.4,6.58,283.8,81.96,160.94,0.0,67.302,35.178047,126.90883,,156.17492018489244,,64.51613,,0 / 20,3955,2014-12-14 14:11:56:636
-3.9101,-2.6813,-5.1934,-1.2883,-9.433,-2.3514,-2.5728,6.6095,-2.5579,-15.7,40.03,6.01,304.05,76.12,152.94,0.0,69.286,35.178047,126.90883,,156.17492018489244,,64.51613,,0 / 20,4005,2014-12-14 14:11:56:686
-3.7377,-1.4551,-5.3658,-1.7635,-9.1859,-2.9461,-2.1988,7.256,-2.5046,-15.32,40.78,4.7,304.05,76.12,152.94,0.0,69.286,35.178047,126.90883,,156.17492018489244,,64.51613,,0 / 20,4055,2014-12-14 14:11:56:736
5.8415,-15.5556,13.3135,-1.9862,-9.4031,-1.9509,2.7837,-4.7018,9.7065,-15.01,40.4,5.95,318.09,69.5,149.1,0.0,69.286,35.178047,126.90883,,156.17492018489244,,64.51613,,0 / 20,4105,2014-12-14 14:11:56:786
5.3434,-15.3257,12.2598,-0.1252,-9.7478,1.0654,11.456,-8.7422,19.3488,-16.45,39.34,4.2,323.96,73.51,134.49,0.0,69.286,35.178047,126.90883,,156.17492018489244,,64.51613,,0 / 20,4155,2014-12-14 14:11:56:836
1.2627,-5.7657,3.7344,0.2237,-9.6451,1.7585,1.1403,3.9062,0.6354,-17.95,37.84,4.2,63.56,80.88,-2.99,0.0,69.286,35.178047,126.90883,,156.17492018489244,,64.51613,,0 / 20,4205,2014-12-14 14:11:56:886
-13.7383,-7.7774,-13.853,-1.0684,-9.74,0.4015,-14.2203,-2.2105,-8.5686,-16.45,37.46,6.83,63.56,80.88,-2.99,0.0,69.286,35.178047,126.90883,,156.17492018489244,,64.51613,,0 / 20,4255,2014-12-14 14:11:56:936
-6.3049,-1.4168,-11.3624,-0.4849,-9.7598,0.826,11.0677,-4.4411,-3.5857,-14.26,38.21,5.95,357.97,83.32,69.4,0.0,69.286,35.178047,126.90883,,156.17492018489244,,64.51613,,0 / 20,4305,2014-12-14 14:11:56:986
3.7532,-11.724,-2.1089,-1.9607,-9.5368,-1.1729,-2.066,4.2102,-4.7932,-12.38,36.34,11.2,309.61,76.53,120.89,0.0,66.489,35.178047,126.90883,,156.17492018489244,,64.51613,,0 / 20,4355,2014-12-14 14:11:57:036
1.8374,-10.153,-4.6187,-1.1792,-9.6436,-1.3344,3.6551,-2.0927,-2.402,-10.95,34.53,14.2,309.61,76.53,120.89,0.0,66.489,35.178047,126.90883,,156.17492018489244,,64.51613,,0 / 20,4405,2014-12-14 14:11:57:086
-0.0593,-9.5974,-2.9136,-1.0205,-9.625,-1.5776,2.2335,0.3363,-3.3979,-10.95,34.53,15.45,277.72,79.54,138.53,0.0,66.489,35.178047,126.90883,,156.17492018489244,,64.51613,,0 / 20,4455,2014-12-14 14:11:57:136
1.2627,-9.674,-1.9557,-1.0943,-9.6054,-1.6461,-1.4394,0.853,0.4501,-5.38,31.96,18.14,248.66,78.37,146.38,0.0,66.489,35.178047,126.90883,,156.17492018489244,,64.51613,,0 / 20,4505,2014-12-14 14:11:57:186
1.7799,-10.2679,-1.2276,-0.6087,-9.6615,-1.567,2.4009,-0.6571,0.4835,-4.63,31.21,20.08,248.66,78.37,146.38,0.0,66.489,35.178047,126.90883,,156.17492018489244,,64.51613,,0 / 20,4555,2014-12-14 14:11:57:236
-2.3199,-9.0226,-1.3234,-0.4522,-9.681,-1.4978,0.0229,0.1021,0.0634,-3.51,30.84,20.76,224.73,80.13,158.77,0.0,66.489,35.178047,126.90883,,156.17492018489244,,64.51613,,0 / 20,4605,2014-12-14 14:11:57:286
-1.2854,-9.6166,-1.1702,-0.6894,-9.6746,-1.4481,-0.5086,-0.261,0.1537,-2.82,30.09,22.51,215.54,80.59,159.34,0.0,66.489,35.178047,126.90883,,156.17492018489244,,64.51613,,0 / 20,4655,2014-12-14 14:11:57:336
-0.5765,-9.7507,-0.5379,-0.6916,-9.687,-1.3615,0.1103,-0.2938,0.7982,0.87,28.21,22.95,210.24,81.04,153.07,0.0,69.192,35.178047,126.90883,,156.17492018489244,,64.51613,,0 / 20,4705,2014-12-14 14:11:57:386
0.4389,-10.7277,-1.879,-0.5181,-9.7009,-1.3398,1.413,-0.961,-0.2296,3.49,28.59,20.33,210.24,81.04,153.07,0.0,69.192,35.178047,126.90883,,156.17492018489244,,64.51613,,0 / 20,4756,2014-12-14 14:11:57:437
4.1939,-13.1608,-0.5762,-0.5181,-9.7009,-1.3398,1.413,-0.961,-0.2296,5.3,24.21,21.83,193.21,81.58,158.86,0.0,69.192,35.178047,126.90883,,156.17492018489244,,64.51613,,0 / 20,4805,2014-12-14 14:11:57:486
1.914,-14.2337,5.0754,0.6624,-9.7535,-0.7757,4.3936,-3.8329,4.4916,6.43,27.15,21.83,162.77,82.76,179.31,0.0,69.192,35.178047,126.90883,,156.17492018489244,,64.51613,,0 / 20,4855,2014-12-14 14:11:57:536
-0.3658,-9.9039,-3.0285,0.6958,-9.7763,-0.3334,-0.4776,-0.9195,1.3971,6.43,26.78,20.01,162.77,82.76,179.31,0.0,69.192,35.178047,126.90883,,156.17492018489244,,64.51613,,0 / 20,4905,2014-12-14 14:11:57:586
-4.6189,-15.6706,-0.6146,0.1311,-9.7702,-0.834,-4.3993,-3.9599,-0.442,4.24,29.34,17.01,94.41,85.49,-115.61,0.0,69.192,35.178047,126.90883,,156.17492018489244,,64.51613,,0 / 20,4957,2014-12-14 14:11:57:638
-4.1783,-13.3333,-2.3388,-0.5171,-9.7484,-0.9335,-3.231,-0.8817,-1.5325,0.18,34.53,12.89,158.83,85.06,-171.07,0.0,69.192,35.178047,126.90883,,156.17492018489244,,64.51613,,0 / 20,5009,2014-12-14 14:11:57:690
-2.4349,-11.3791,-3.6799,-0.6756,-9.7084,-1.2086,-0.7117,1.2152,-2.3614,-3.2,35.28,12.58,235.86,83.75,151.02,0.0,68.548,35.178047,126.90883,,156.17492018489244,,64.51613,,0 / 20,5055,2014-12-14 14:11:57:736
-1.7643,-7.2601,-4.2355,-0.7556,-9.6562,-1.5353,-0.6081,3.8399,-2.3955,-5.01,34.9,10.76,235.86,83.75,151.02,0.0,68.548,35.178047,126.90883,,156.17492018489244,,64.51613,,0 / 20,5105,2014-12-14 14:11:57:786
-3.9675,-4.9228,-3.9481,-0.9146,-9.6145,-1.7015,-2.2117,5.046,-1.974,-8.7,33.4,9.45,283.41,78.64,151.74,0.0,68.548,35.178047,126.90883,,156.17492018489244,,64.51613,,0 / 20,5155,2014-12-14 14:11:57:836
-3.5652,-2.164,-4.3887,-1.5278,-9.4063,-2.3146,-2.3306,6.3995,-2.2358,-12.38,34.9,9.2,301.11,73.57,146.57,0.0,68.548,35.178047,126.90883,,156.17492018489244,,64.51613,,0 / 20,5205,2014-12-14 14:11:57:886
-0.0401,-11.7431,5.9567,-2.284,-9.1255,-2.7711,-1.8164,6.6408,-1.7706,-11.32,33.78,9.64,301.11,73.57,146.57,0.0,68.548,35.178047,126.90883,,156.17492018489244,,64.51613,,0 / 20,5255,2014-12-14 14:11:57:936
12.1446,-17.2224,21.4175,-1.3101,-9.6898,-0.7492,1.8937,-2.9649,7.9993,-12.01,33.78,9.95,309.28,68.52,140.5,0.0,68.548,35.178047,126.90883,,156.17492018489244,,64.51613,,0 / 20,5305,2014-12-14 14:11:57:986
0.7645,-7.3367,1.9718,-0.3186,-9.6924,1.458,0.2014,0.3769,2.8869,-13.13,33.03,8.14,22.29,85.11,32.17,0.0,68.548,35.178047,126.90883,,156.17492018489244,,64.51613,,0 / 20,5355,2014-12-14 14:11:58:036
1.665,-6.8578,4.8839,-0.2267,-9.6713,1.6077,1.3552,2.5235,1.7512,-13.13,31.21,9.89,22.29,85.11,32.17,0.0,64.843,35.178047,126.90883,,156.17492018489244,,64.51613,,0 / 20,5405,2014-12-14 14:11:58:086
12.0105,-21.4755,0.9947,-0.3886,-9.7346,1.121,10.312,-12.9952,1.0919,-13.88,30.09,12.58,31.81,80.47,8.02,0.0,64.843,35.178047,126.90883,,156.17492018489244,,64.51613,,0 / 20,5455,2014-12-14 14:11:58:136
-13.949,2.1658,-13.8913,-1.208,-9.7287,-0.2513,-14.1048,12.9913,-14.2326,-14.63,30.46,13.26,25.59,83.05,19.12,0.0,64.843,35.178047,126.90883,,156.17492018489244,,64.51613,,0 / 20,5505,2014-12-14 14:11:58:186
3.0444,-13.9846,-3.5075,-0.9513,-9.7175,-0.9141,4.9526,-4.6692,-1.8874,-9.82,28.96,16.14,293.94,78.25,114.54,0.0,64.843,35.178047,126.90883,,156.17492018489244,,64.51613,,0 / 20,5555,2014-12-14 14:11:58:236
1.5309,-9.5016,-4.4654,-0.7693,-9.7113,-1.1268,2.6747,-0.2215,-3.1908,-10.2,30.09,18.58,293.94,78.25,114.54,0.0,64.843,35.178047,126.90883,,156.17492018489244,,64.51613,,0 / 20,5605,2014-12-14 14:11:58:286
-0.6149,-10.1338,0.3625,-0.7654,-9.7121,-1.1227,-0.126,0.0453,1.7913,-7.95,26.03,22.07,250.24,82.0,145.68,0.0,64.843,35.178047,126.90883,,156.17492018489244,,64.51613,,0 / 20,5657,2014-12-14 14:11:58:338
1.5117,-9.7698,-2.7986,-0.542,-9.7141,-1.2301,2.0065,0.3344,-1.549,-5.38,25.65,18.33,239.71,82.04,145.72,0.0,64.843,35.178047,126.90883,,156.17492018489244,,64.51613,,0 / 20,5705,2014-12-14 14:11:58:386
1.1286,-9.4825,-1.266,-0.4123,-9.7098,-1.3113,1.8829,0.3355,-1.1358,-5.01,23.09,20.01,239.71,82.04,145.72,0.0,68.617,35.178047,126.90883,,156.17492018489244,,64.51613,,0 / 20,5755,2014-12-14 14:11:58:436
-2.1284,-8.7161,-0.9019,-0.3029,-9.7142,-1.3085,-1.7665,1.0976,0.2799,-2.07,24.9,20.33,210.68,81.94,162.54,0.0,68.617,35.178047,126.90883,,156.17492018489244,,64.51613,,0 / 20,5805,2014-12-14 14:11:58:486
-0.634,-9.0418,-2.1855,-0.3528,-9.7064,-1.3534,0.2249,0.3269,-0.7203,0.49,22.34,22.26,195.23,82.13,166.97,0.0,68.617,35.178047,126.90883,,156.17492018489244,,64.51613,,0 / 20,5855,2014-12-14 14:11:58:536
-1.6877,-8.7736,-2.0131,-0.4982,-9.6789,-1.4973,-1.1991,0.873,-0.4596,2.74,22.71,23.26,193.23,80.74,161.6,0.0,68.617,35.178047,126.90883,,156.17492018489244,,64.51613,,0 / 20,5905,2014-12-14 14:11:58:586
-0.5957,-9.1759,-2.243,-0.5445,-9.6697,-1.5397,-0.6198,0.5212,-0.5255,4.24,20.46,23.83,193.23,80.74,161.6,0.0,68.617,35.178047,126.90883,,156.17492018489244,,64.51613,,0 / 20,5955,2014-12-14 14:11:58:636
-0.5765,-11.0534,1.9335,-0.6326,-9.689,-1.3759,-0.3214,-1.3364,2.6891,6.43,21.96,22.39,184.53,79.86,161.05,0.0,68.617,35.178047,126.90883,,156.17492018489244,,64.51613,,0 / 20,6006,2014-12-14 14:11:58:687
8.6578,-14.0038,-0.8253,0.1876,-9.74,-1.1258,8.5695,-4.2237,0.2017,9.74,21.96,21.14,140.89,83.32,-170.54,0.0,68.617,35.178047,126.90883,,156.17492018489244,,64.51613,,0 / 20,6055,2014-12-14 14:11:58:736
-0.2317,-13.659,-5.4041,0.5895,-9.7082,-1.2541,0.9958,-2.6859,-2.4188,8.99,24.9,22.01,140.89,83.32,-170.54,0.0,66.998,35.178047,126.90883,,156.17492018489244,,64.51613,,0 / 20,6105,2014-12-14 14:11:58:786
-8.1249,-13.659,-2.8369,0.057,-9.6267,-1.8692,-4.7491,-1.6263,-4.5756,4.24,27.15,22.07,137.59,81.88,-154.82,0.0,66.998,35.178047,126.90883,,156.17492018489244,,64.51613,,0 / 20,6155,2014-12-14 14:11:58:836
-3.1246,-11.5132,-3.814,-0.791,-9.5853,-1.9147,-7.3452,-2.6305,-0.5275,-0.2,32.65,18.95,215.44,77.8,157.55,0.0,66.998,35.178047,126.90883,,156.17492018489244,,64.51613,,0 / 20,6205,2014-12-14 14:11:58:886
-4.2358,-10.2105,-3.2776,-1.3626,-9.5083,-1.9763,-1.6053,-0.3377,-1.2658,-0.2,31.96,17.7,215.44,77.8,157.55,0.0,66.998,35.178047,126.90883,,156.17492018489244,,64.51613,,0 / 20,6255,2014-12-14 14:11:58:936
-1.726,-7.6049,-4.9252,-1.8162,-9.3225,-2.4418,-0.0316,2.9521,-2.1785,-5.38,35.96,17.26,248.5,75.83,145.41,0.0,66.998,35.178047,126.90883,,156.17492018489244,,64.51613,,0 / 20,6306,2014-12-14 14:11:58:987
-0.6915,-7.49,-3.9673,-1.7603,-9.2915,-2.5961,1.3349,2.8329,-1.8108,-5.01,38.96,16.83,277.93,71.92,143.36,0.0,66.998,35.178047,126.90883,,156.17492018489244,,64.51613,,0 / 20,6355,2014-12-14 14:11:59:036
-0.0976,-8.5054,-0.2122,-1.5978,-9.3173,-2.6086,1.4756,1.3272,2.37,-9.82,37.84,16.58,279.91,71.82,148.51,0.0,68.596,35.178047,126.90883,,156.17492018489244,,64.51613,,0 / 20,6405,2014-12-14 14:11:59:086
-4.4465,-6.762,-2.1855,-1.6451,-9.3194,-2.5715,-0.3418,1.9846,1.1031,-12.01,35.96,15.95,279.91,71.82,148.51,0.0,68.596,35.178047,126.90883,,156.17492018489244,,64.51613,,0 / 20,6455,2014-12-14 14:11:59:136
-2.6073,-6.6853,-1.4192,-2.1362,-9.2198,-2.5695,-1.2139,2.4699,0.4529,-10.2,38.96,15.89,284.64,71.86,147.39,0.0,68.596,35.178047,126.90883,,156.17492018489244,,64.51613,,0 / 20,6505,2014-12-14 14:11:59:186
-2.454,-15.2491,2.4124,-2.0092,-9.4054,-1.9165,0.5402,-5.1129,3.7167,-11.63,37.84,18.08,290.68,70.29,137.57,0.0,68.596,35.178047,126.90883,,156.17492018489244,,64.51613,,0 / 20,6555,2014-12-14 14:11:59:236
-0.5957,-11.1301,5.018,-1.9536,-9.5757,-0.8126,0.6306,-2.4676,7.2576,-11.63,37.09,18.51,290.68,70.29,137.57,0.0,68.596,35.178047,126.90883,,156.17492018489244,,64.51613,,0 / 20,6605,2014-12-14 14:11:59:286
1.5309,-8.4096,-1.3426,-1.8177,-9.6061,-0.7674,1.5917,2.5541,-0.7178,-10.95,35.28,18.51,295.42,77.54,112.59,0.0,68.596,35.178047,126.90883,,156.17492018489244,,64.51613,,0 / 20,6655,2014-12-14 14:11:59:336
1.2435,-11.3983,2.4124,-1.1526,-9.7255,-0.5062,2.6989,-1.6097,2.9105,-9.82,34.53,15.45,295.42,77.54,112.59,0.0,68.596,35.178047,126.90883,,156.17492018489244,,64.51613,,0 / 20,6705,2014-12-14 14:11:59:386
-0.5191,-8.8885,0.305,-0.8619,-9.7673,-0.1632,1.2736,-0.4383,1.9047,-10.57,35.96,15.45,295.42,82.62,113.71,0.0,62.952,35.178047,126.90883,,156.17492018489244,,64.51613,,0 / 20,6755,2014-12-14 14:11:59:436
-0.0784,-10.5745,0.7457,-0.7174,-9.7797,-0.1132,0.6051,-0.6022,0.7266,-9.82,36.71,15.89,300.51,85.23,99.51,0.0,62.952,35.178047,126.90883,,156.17492018489244,,64.51613,,0 / 20,6805,2014-12-14 14:11:59:486
-0.8064,-9.9231,-0.2122,-0.7092,-9.7804,-0.1086,0.0854,-0.4198,0.0596,-9.45,35.96,14.58,300.51,85.23,99.51,0.0,62.952,35.178047,126.90883,,156.17492018489244,,64.51613,,0 / 20,6855,2014-12-14 14:11:59:536
-0.1359,-9.8848,0.5158,-0.6822,-9.7824,-0.0981,0.386,-5.0E-4,0.4856,-11.26,34.53,15.01,304.18,85.8,98.71,0.0,62.952,35.178047,126.90883,,156.17492018489244,,64.51613,,0 / 20,6905,2014-12-14 14:11:59:586
0.3239,-9.5782,0.0751,-0.5561,-9.7908,-0.0477,0.9162,0.0982,0.1796,-12.01,33.4,15.95,306.27,86.74,94.9,0.0,62.952,35.178047,126.90883,,156.17492018489244,,64.51613,,0 / 20,6955,2014-12-14 14:11:59:636
-0.0018,-9.7124,0.1709,-0.4576,-9.796,-0.007,0.621,0.0337,0.3448,-11.26,34.53,14.58,306.27,86.74,94.9,0.0,62.952,35.178047,126.90883,,156.17492018489244,,64.51613,,0 / 20,7005,2014-12-14 14:11:59:686
-0.6149,-9.8848,0.1134,-0.4316,-9.7971,0.0082,0.1636,0.1709,0.0217,-10.95,33.03,16.58,311.17,87.48,88.91,0.0,60.217,35.178047,126.90883,,156.17492018489244,,64.51613,,0 / 20,7055,2014-12-14 14:11:59:736
0.0748,-9.5016,-0.4805,-0.4202,-9.7976,-0.027,0.2894,0.2391,-0.2878,-10.2,32.65,18.08,303.55,87.42,88.92,0.0,60.217,35.178047,126.90883,,156.17492018489244,,64.51613,,0 / 20,7105,2014-12-14 14:11:59:786
0.3814,-9.674,-0.3272,-0.3871,-9.8021,-0.0688,0.7393,-0.2013,0.0682,-11.32,33.78,20.51,303.55,87.42,88.92,0.0,60.217,35.178047,126.90883,,156.17492018489244,,64.51613,,0 / 20,7155,2014-12-14 14:11:59:836
0.6304,-9.6932,0.3433,-0.1905,-9.8048,-0.0083,0.7429,-0.1228,0.4451,-10.2,34.15,21.14,284.59,88.26,103.34,0.0,60.217,35.178047,126.90883,,156.17492018489244,,64.51613,,0 / 20,7205,2014-12-14 14:11:59:886
0.7454,-9.6549,0.056,-0.1339,-9.8057,0.0117,0.7895,0.0646,0.2781,-10.2,31.59,19.45,303.74,89.21,84.99,0.0,60.217,35.178047,126.90883,,156.17492018489244,,64.51613,,0 / 20,7256,2014-12-14 14:11:59:937
0.3431,-9.6932,-0.4613,-0.0455,-9.8065,-0.0293,0.4829,0.0901,-0.4048,-10.2,33.78,21.2,303.74,89.21,84.99,0.0,60.217,35.178047,126.90883,,156.17492018489244,,64.51613,,0 / 20,7305,2014-12-14 14:11:59:986
-0.3466,-9.6549,-0.4038,-0.0652,-9.806,-0.0872,-0.2542,0.078,-0.3862,-10.2,33.4,20.33,263.15,89.68,122.76,0.0,60.217,35.178047,126.90883,,156.17492018489244,,64.51613,,0 / 20,7355,2014-12-14 14:12:00:036
0.094,-9.4825,-0.787,-0.0933,-9.8045,-0.1806,-0.0317,0.3315,-0.5573,-10.57,32.65,21.2,245.27,89.36,143.18,0.0,58.67,35.178047,126.90883,,156.17492018489244,,64.51613,,0 / 20,7405,2014-12-14 14:12:00:086
0.1132,-9.7507,-0.4996,-0.0499,-9.8032,-0.2539,0.2232,-0.1532,-0.2875,-10.2,34.53,22.14,216.88,88.49,168.89,0.0,58.67,35.178047,126.90883,,156.17492018489244,,64.51613,,0 / 20,7455,2014-12-14 14:12:00:136
0.0174,-9.5399,-0.8445,-0.0391,-9.8001,-0.3553,0.1046,0.0665,-0.4541,-8.32,33.4,20.7,216.88,88.49,168.89,0.0,58.67,35.178047,126.90883,,156.17492018489244,,64.51613,,0 / 20,7505,2014-12-14 14:12:00:186
-0.155,-9.7315,-0.8445,-0.0327,-9.7995,-0.3733,0.0888,-0.1518,-0.2553,-8.32,30.46,23.7,205.81,87.91,173.72,0.0,58.67,35.178047,126.90883,,156.17492018489244,,64.51613,,0 / 20,7556,2014-12-14 14:12:00:237
-0.7873,-9.8273,-0.1548,-0.1693,-9.7961,-0.4217,-0.4558,-0.1665,0.2951,-5.38,32.65,24.33,199.3,87.55,173.58,0.0,58.67,35.178047,126.90883,,156.17492018489244,,64.51613,,0 / 20,7605,2014-12-14 14:12:00:286
0.3239,-9.6932,-0.2697,-0.1429,-9.7975,-0.3982,0.3615,-0.3126,0.3139,-6.51,30.84,25.14,199.3,87.55,173.58,0.0,58.67,35.178047,126.90883,,156.17492018489244,,64.51613,,0 / 20,7655,2014-12-14 14:12:00:336
0.8603,-9.8465,-0.4038,-0.0623,-9.799,-0.3812,0.6314,0.0094,0.0491,-5.76,31.21,24.7,214.97,87.53,160.26,0.0,72.86,35.178047,126.90883,,156.17492018489244,,64.51613,,0 / 20,7705,2014-12-14 14:12:00:386
-0.0018,-10.1338,-0.6912,0.074,-9.8021,-0.289,0.2186,-0.2264,0.7342,-7.57,33.4,22.01,190.85,87.97,-170.32,0.0,72.86,35.178047,126.90883,,156.17492018489244,,64.51613,,0 / 20,7755,2014-12-14 14:12:00:436
-0.0976,-9.3292,-2.0131,0.064,-9.8006,-0.3375,-0.1169,0.0852,-0.5247,-8.7,34.15,21.83,190.85,87.97,-170.32,0.0,72.86,35.178047,126.90883,,156.17492018489244,,64.51613,,0 / 20,7805,2014-12-14 14:12:00:486