ACCELEROMETER X (m/s²),ACCELEROMETER Y (m/s²),ACCELEROMETER Z (m/s²),GRAVITY X (m/s²),GRAVITY Y (m/s²),GRAVITY Z (m/s²),LINEAR ACCELERATION X (m/s²),LINEAR ACCELERATION Y (m/s²),LINEAR ACCELERATION Z (m/s²),MAGNETIC FIELD X (μT),MAGNETIC FIELD Y (μT),MAGNETIC FIELD Z (μT),ORIENTATION X (°),ORIENTATION Y (°),ORIENTATION Z (°),PROXIMITY (i),SOUND LEVEL (dB),LOCATION Latitude : ,LOCATION Longitude : ,LOCATION Altitude ( m),LOCATION Altitude-google ( m),LOCATION Speed ( Kmh),LOCATION Accuracy ( m),LOCATION ORIENTATION (°),Satellites in range,Time since start in ms ,YYYY-MO-DD HH-MI-SS_SSS
2.0482,-10.6703,2.24,0.1676,-9.7846,0.6361,2.0474,-0.8935,1.6077,-6.51,28.65,1.89,58.59,87.41,6.64,0.0,63.21,35.178036,126.90889,,155.43597300529157,,65.232254,,0 / 20,3,2014-12-14 14:13:05:004
2.1248,-9.6549,1.5695,0.4288,-9.7676,0.762,3.7375,-1.2417,1.8865,-7.26,28.28,1.45,58.59,87.41,6.64,0.0,63.21,35.178036,126.90889,,155.43597300529157,,65.232254,,0 / 20,53,2014-12-14 14:13:05:054
-0.0976,-8.8502,0.7648,0.7276,-9.7388,0.8926,1.331,0.3698,0.6646,-6.88,27.9,1.45,90.47,84.88,-29.37,0.0,63.21,35.178036,126.90889,,155.43597300529157,,65.232254,,0 / 20,103,2014-12-14 14:13:05:104
0.2281,-10.6703,0.9181,0.5958,-9.7421,0.9523,-0.9175,-0.2408,0.6108,-7.63,26.84,0.76,92.19,83.42,-32.03,0.0,63.21,35.178036,126.90889,,155.43597300529157,,65.232254,,0 / 20,153,2014-12-14 14:13:05:154
0.9178,-10.6894,0.5349,0.4617,-9.7511,0.9345,0.4578,-0.6483,-0.2826,-7.26,27.21,0.14,92.19,83.42,-32.03,0.0,63.21,35.178036,126.90889,,155.43597300529157,,65.232254,,0 / 20,203,2014-12-14 14:13:05:204
0.4389,-9.31,0.9373,0.4825,-9.748,0.9558,0.14,0.6187,0.1854,-7.26,24.59,-2.93,122.07,83.9,-26.29,0.0,63.21,35.178036,126.90889,,155.43597300529157,,65.232254,,0 / 20,253,2014-12-14 14:13:05:254
0.5538,-8.5245,1.6653,0.516,-9.74,1.0179,-0.0231,1.2206,0.5473,-7.63,24.59,-2.55,120.03,83.32,-26.88,0.0,68.067,35.178036,126.90889,,155.43597300529157,,65.232254,,0 / 20,303,2014-12-14 14:13:05:304
1.2052,-8.9843,2.2017,0.5326,-9.7277,1.1217,0.6171,0.6094,1.0174,-7.63,24.21,-3.86,120.03,83.32,-26.88,0.0,68.067,35.178036,126.90889,,155.43597300529157,,65.232254,,0 / 20,353,2014-12-14 14:13:05:354
1.2627,-9.0801,2.9297,0.7208,-9.6622,1.514,0.5677,0.3642,1.41,-8.38,24.96,-3.36,116.23,82.73,-25.4,0.0,68.067,35.178036,126.90889,,155.43597300529157,,65.232254,,0 / 20,403,2014-12-14 14:13:05:404
0.9944,-7.8923,2.2209,0.776,-9.6317,1.6727,0.2298,1.3482,0.7986,-7.26,24.96,-3.42,116.23,82.73,-25.4,0.0,68.067,35.178036,126.90889,,155.43597300529157,,65.232254,,0 / 20,453,2014-12-14 14:13:05:454
0.9753,-7.9881,1.8952,0.7986,-9.6258,1.6958,0.1955,1.4296,0.0766,-6.13,23.53,-1.17,91.69,79.16,-24.89,0.0,68.067,35.178036,126.90889,,155.43597300529157,,65.232254,,0 / 20,503,2014-12-14 14:13:05:504
1.0902,-8.6203,1.9718,0.827,-9.6061,1.7916,-0.0743,1.1896,0.1856,-8.38,23.46,-1.74,93.87,78.39,-24.78,0.0,68.067,35.178036,126.90889,,155.43597300529157,,65.232254,,0 / 20,553,2014-12-14 14:13:05:554
1.3393,-8.8694,2.2017,0.8606,-9.5947,1.8363,0.2461,0.3924,0.2157,-6.88,22.78,-0.55,93.87,78.39,-24.78,0.0,68.067,35.178036,126.90889,,155.43597300529157,,65.232254,,0 / 20,603,2014-12-14 14:13:05:604
-0.749,-6.9727,-1.4958,0.9481,-9.5693,1.9234,0.7252,-0.4957,0.8369,-6.13,22.78,1.39,80.74,78.07,-25.11,0.0,60.572,35.178036,126.90889,,155.43597300529157,,65.232254,,0 / 20,653,2014-12-14 14:13:05:654
-6.9754,-10.1338,-5.2509,0.9001,-9.5872,1.8561,-1.3117,1.6377,-2.6349,-4.32,24.21,0.95,43.71,77.86,-25.87,0.0,60.572,35.178036,126.90889,,155.43597300529157,,65.232254,,0 / 20,703,2014-12-14 14:13:05:704
-0.0018,-7.0302,-12.1862,-0.0375,-9.7118,1.3598,-7.6984,-6.2463,-0.1109,-4.32,22.78,3.58,28.17,82.03,1.58,0.0,60.572,35.178036,126.90889,,155.43597300529157,,65.232254,,0 / 20,753,2014-12-14 14:13:05:754
3.1402,-8.5629,-2.2813,0.0484,-9.7255,1.258,-0.1654,1.9066,-11.3319,-3.2,22.4,4.45,28.17,82.03,1.58,0.0,60.572,35.178036,126.90889,,155.43597300529157,,65.232254,,0 / 20,803,2014-12-14 14:13:05:804
-1.2662,-8.9077,-2.4921,0.0659,-9.8039,0.2211,1.436,2.1455,-3.5205,-2.45,22.03,12.01,40.19,88.65,-16.61,0.0,60.572,35.178036,126.90889,,155.43597300529157,,65.232254,,0 / 20,853,2014-12-14 14:13:05:854
-1.4195,-9.2717,-1.5342,-0.2475,-9.7829,-0.6357,-1.909,0.6972,-1.2874,-2.07,21.65,10.26,195.46,87.4,177.36,0.0,60.572,35.178036,126.90889,,155.43597300529157,,65.232254,,0 / 20,903,2014-12-14 14:13:05:904
1.5692,-10.0572,-0.8253,-0.3409,-9.7751,-0.7078,-1.25,0.1757,-0.9623,-0.63,21.65,12.01,195.46,87.4,177.36,0.0,60.572,35.178036,126.90889,,155.43597300529157,,65.232254,,0 / 20,953,2014-12-14 14:13:05:954
0.5921,-9.3483,-2.5304,-0.0837,-9.7752,-0.7804,1.9699,-0.4425,-0.8725,0.87,20.15,12.58,204.29,85.4,154.28,0.0,66.538,35.178036,126.90889,,155.43597300529157,,65.232254,,0 / 20,1003,2014-12-14 14:13:06:004
0.822,-9.8081,-2.0898,0.0226,-9.7578,-0.9772,0.4955,0.1267,-1.5596,0.87,19.78,14.64,204.29,85.4,154.28,0.0,66.538,35.178036,126.90889,,155.43597300529157,,65.232254,,0 / 20,1053,2014-12-14 14:13:06:054
-1.5153,-8.9843,-2.3771,-0.0775,-9.7425,-1.1168,-1.1633,0.5463,-0.6234,3.8,19.09,15.08,161.43,84.28,-178.68,0.0,66.538,35.178036,126.90889,,155.43597300529157,,65.232254,,0 / 20,1103,2014-12-14 14:13:06:104
-1.9942,-9.3675,-2.7028,-0.4683,-9.689,-1.44,-1.6309,0.0711,-1.1366,6.05,17.59,14.95,167.24,82.59,169.04,0.0,66.538,35.178036,126.90889,,155.43597300529157,,65.232254,,0 / 20,1153,2014-12-14 14:13:06:154
-0.3849,-11.5515,-1.1319,-0.5886,-9.6813,-1.448,-1.6197,0.0767,-0.1119,6.8,17.96,15.08,167.24,82.59,169.04,0.0,66.538,35.178036,126.90889,,155.43597300529157,,65.232254,,0 / 20,1209,2014-12-14 14:13:06:210
1.8757,-11.1492,-0.7678,-0.4215,-9.713,-1.2843,1.6368,-1.892,0.8371,8.62,17.59,14.7,169.27,80.83,157.88,0.0,66.538,35.178036,126.90889,,155.43597300529157,,65.232254,,0 / 20,1253,2014-12-14 14:13:06:254
4.328,-15.115,3.6769,0.0164,-9.7323,-1.2048,3.3712,-2.8509,0.3752,9.37,17.96,15.08,169.27,80.83,157.88,0.0,66.538,35.178036,126.90889,,155.43597300529157,,65.232254,,0 / 20,1303,2014-12-14 14:13:06:304
-0.3658,-13.7547,4.8455,0.7335,-9.7755,-0.2695,-0.8617,-2.0477,4.0559,10.12,21.28,14.2,140.86,82.94,-179.22,0.0,68.514,35.178036,126.90889,,155.43597300529157,,65.232254,,0 / 20,1354,2014-12-14 14:13:06:355
-2.2625,-13.0076,-4.6761,0.7789,-9.7696,-0.3444,0.7278,0.0368,-1.1949,8.24,21.65,12.33,69.97,85.43,-110.18,0.0,68.514,35.178036,126.90889,,155.43597300529157,,65.232254,,0 / 20,1403,2014-12-14 14:13:06:404
-2.5881,-14.9809,-2.607,0.1193,-9.7662,-0.8821,-2.995,-3.6548,-0.9818,3.43,26.09,7.64,107.62,84.38,-144.83,0.0,68.514,35.178036,126.90889,,155.43597300529157,,65.232254,,0 / 20,1455,2014-12-14 14:13:06:456
-2.9713,-12.337,-3.6416,-0.0446,-9.7592,-0.9629,-2.7931,-2.676,-1.6469,2.37,27.59,8.95,107.62,84.38,-144.83,0.0,68.514,35.178036,126.90889,,155.43597300529157,,65.232254,,0 / 20,1503,2014-12-14 14:13:06:504
-1.477,-8.7544,-3.929,-0.3867,-9.7025,-1.3717,-1.0952,2.2457,-2.322,-2.45,27.59,8.51,201.59,84.36,177.35,0.0,68.514,35.178036,126.90889,,155.43597300529157,,65.232254,,0 / 20,1553,2014-12-14 14:13:06:554
-3.8909,-4.5779,-4.0631,-0.6168,-9.6476,-1.6472,-2.0781,4.3859,-1.7362,-7.63,27.21,4.08,293.77,79.67,159.47,0.0,68.514,35.178036,126.90889,,155.43597300529157,,65.232254,,0 / 20,1603,2014-12-14 14:13:06:604
-4.9638,-2.7196,-4.6378,-1.5172,-9.383,-2.414,-3.3661,6.9467,-2.14,-8.38,27.59,6.33,293.77,79.67,159.47,0.0,68.514,35.178036,126.90889,,155.43597300529157,,65.232254,,0 / 20,1653,2014-12-14 14:13:06:654
-4.14,-1.5509,-5.021,-1.7907,-9.2567,-2.6977,-2.8253,7.4729,-2.417,-9.82,27.21,4.95,308.63,73.1,147.85,0.0,68.635,35.178036,126.90889,,155.43597300529157,,65.232254,,0 / 20,1703,2014-12-14 14:13:06:704
4.328,-15.9388,12.643,-2.1053,-9.3652,-2.0079,2.385,-4.8887,10.1549,-9.07,26.09,5.89,313.57,67.7,143.92,0.0,68.635,35.178036,126.90889,,155.43597300529157,,65.232254,,0 / 20,1753,2014-12-14 14:13:06:754
1.186,-13.4482,9.5776,-0.6129,-9.7873,0.0575,18.2929,-13.9674,26.1155,-8.76,24.59,7.89,313.57,67.7,143.92,0.0,68.635,35.178036,126.90889,,155.43597300529157,,65.232254,,0 / 20,1803,2014-12-14 14:13:06:804
0.8987,-7.3367,1.1097,-0.0938,-9.7069,1.3922,1.1105,2.3694,0.3809,-9.07,24.21,6.76,331.1,86.4,84.64,0.0,68.635,35.178036,126.90889,,155.43597300529157,,65.232254,,0 / 20,1853,2014-12-14 14:13:06:854
1.8566,-5.7657,-9.5232,-0.867,-9.7227,0.9423,-7.8405,-6.383,-0.1096,-8.38,25.34,9.83,331.1,86.4,84.64,0.0,68.635,35.178036,126.90889,,155.43597300529157,,65.232254,,0 / 20,1903,2014-12-14 14:13:06:904
-13.6042,1.2079,-14.8109,-1.7243,-9.5476,-1.4283,-7.9332,7.351,-8.7121,-9.07,24.96,12.01,357.3,82.5,42.62,0.0,68.635,35.178036,126.90889,,155.43597300529157,,65.232254,,0 / 20,1953,2014-12-14 14:13:06:954
-0.3083,-9.3867,-2.8561,-1.4664,-9.585,-1.4658,3.2158,-2.5816,-0.8292,-8.01,23.9,16.08,275.05,76.8,129.64,0.0,68.635,35.178036,126.90889,,155.43597300529157,,65.232254,,0 / 20,2003,2014-12-14 14:13:07:004
-0.2317,-9.8848,-1.9557,-1.1215,-9.6165,-1.5605,1.0372,0.0939,-1.299,-6.51,22.4,16.64,275.05,76.8,129.64,0.0,68.635,35.178036,126.90889,,155.43597300529157,,65.232254,,0 / 20,2053,2014-12-14 14:13:07:054
-0.021,-9.2525,-1.2085,-1.0204,-9.6198,-1.6092,0.7262,0.5931,-0.3815,-6.51,20.53,19.26,247.32,78.7,144.3,0.0,67.587,35.178036,126.90889,,155.43597300529157,,65.232254,,0 / 20,2104,2014-12-14 14:13:07:105
0.2856,-9.0418,-1.7641,-0.996,-9.6296,-1.5651,0.3775,0.2087,0.6759,-3.2,20.53,21.2,247.32,78.7,144.3,0.0,67.587,35.178036,126.90889,,155.43597300529157,,65.232254,,0 / 20,2153,2014-12-14 14:13:07:154
-0.5957,-9.425,-1.151,-0.4417,-9.6399,-1.7455,1.2698,-0.1869,0.5917,0.12,17.96,23.83,224.26,79.1,147.53,0.0,67.587,35.178036,126.90889,,155.43597300529157,,65.232254,,0 / 20,2203,2014-12-14 14:13:07:204
-0.9022,-9.3867,-0.8253,-0.4256,-9.6471,-1.7098,0.2292,0.0359,0.52,0.87,17.59,22.95,193.92,79.42,165.8,0.0,67.587,35.178036,126.90889,,155.43597300529157,,65.232254,,0 / 20,2253,2014-12-14 14:13:07:254
1.1286,-10.1147,-0.9786,-0.6719,-9.6518,-1.6007,-0.5696,0.1346,0.7156,3.43,15.4,26.01,198.29,79.8,157.23,0.0,67.587,35.178036,126.90889,,155.43597300529157,,65.232254,,0 / 20,2303,2014-12-14 14:13:07:304
0.6113,-11.36,-0.5954,-0.5086,-9.683,-1.4667,0.383,-1.3487,0.1603,5.3,14.65,25.89,198.29,79.8,157.23,0.0,67.587,35.178036,126.90889,,155.43597300529157,,65.232254,,0 / 20,2353,2014-12-14 14:13:07:354
0.3814,-12.088,-1.5725,-0.4192,-9.6972,-1.3997,1.2068,-1.3501,0.7768,7.18,14.28,25.76,184.48,80.89,160.88,0.0,67.587,35.178036,126.90889,,155.43597300529157,,65.232254,,0 / 20,2403,2014-12-14 14:13:07:404
5.9948,-14.6743,1.3013,0.5548,-9.754,-0.8495,6.1413,-4.3941,2.9675,8.99,15.71,26.76,167.94,82.58,172.65,0.0,67.527,35.178036,126.90889,,155.43597300529157,,65.232254,,0 / 20,2453,2014-12-14 14:13:07:454
3.2934,-12.8735,3.9451,0.8486,-9.7564,-0.5119,4.8239,-3.2379,5.0558,9.37,17.59,27.33,167.94,82.58,172.65,0.0,67.527,35.178036,126.90889,,155.43597300529157,,65.232254,,0 / 20,2503,2014-12-14 14:13:07:504
-3.9675,-14.7701,-5.021,0.8094,-9.7259,-0.9599,-3.8751,-2.5619,-3.9602,5.68,26.84,26.08,98.74,84.2,-121.1,0.0,67.527,35.178036,126.90889,,155.43597300529157,,65.232254,,0 / 20,2553,2014-12-14 14:13:07:554
-3.776,-16.8584,-2.722,0.5035,-9.7332,-1.0872,-4.7565,-4.3141,-2.5375,3.8,29.4,26.7,124.76,82.64,-139.86,0.0,67.527,35.178036,126.90889,,155.43597300529157,,65.232254,,0 / 20,2603,2014-12-14 14:13:07:604
-2.2816,-10.7661,-4.0247,-0.2653,-9.6997,-1.42,-2.4281,0.7561,-2.3543,-0.95,34.21,24.58,124.76,82.64,-139.86,0.0,67.527,35.178036,126.90889,,155.43597300529157,,65.232254,,0 / 20,2654,2014-12-14 14:13:07:655
-1.5536,-9.4058,-4.3696,-0.3422,-9.6739,-1.5715,-1.2824,2.2355,-2.3613,-7.26,38.28,21.26,218.4,81.53,169.42,0.0,67.527,35.178036,126.90889,,155.43597300529157,,65.232254,,0 / 20,2703,2014-12-14 14:13:07:704
-3.9675,-4.099,-4.4654,-0.5158,-9.6075,-1.8972,-1.8185,4.6993,-1.9292,-12.45,39.71,15.33,218.4,81.53,169.42,0.0,67.527,35.178036,126.90889,,155.43597300529157,,65.232254,,0 / 20,2753,2014-12-14 14:13:07:754
-4.1974,-3.2177,-4.6378,-1.1518,-9.4183,-2.4778,-2.8509,6.3466,-1.8758,-15.76,40.09,13.33,267.73,78.43,164.79,0.0,67.527,35.178036,126.90889,,155.43597300529157,,65.232254,,0 / 20,2803,2014-12-14 14:13:07:804
-4.5615,-1.7042,-4.0439,-1.7084,-9.1901,-2.9654,-3.2725,7.325,-1.8593,-16.13,41.59,13.76,286.35,73.82,155.07,0.0,67.527,35.178036,126.90889,,155.43597300529157,,65.232254,,0 / 20,2853,2014-12-14 14:13:07:854
17.2407,-23.9853,27.05,-1.8515,-9.4615,-1.795,7.7887,-8.1817,14.2792,-16.13,40.84,12.45,301.25,69.58,150.05,0.0,69.061,35.178036,126.90889,,155.43597300529157,,65.232254,,0 / 20,2904,2014-12-14 14:13:07:905
-0.749,-13.0459,7.6427,-0.0244,-9.732,1.2075,4.9246,-6.7911,13.3525,-19.07,40.84,12.58,45.63,82.93,1.16,0.0,69.061,35.178036,126.90889,,155.43597300529157,,65.232254,,0 / 20,2953,2014-12-14 14:13:07:954
-8.3165,-17.1649,1.397,-0.0736,-9.6927,1.4891,0.3861,3.5565,-0.1449,-17.95,42.71,11.58,45.63,82.93,1.16,0.0,69.061,35.178036,126.90889,,155.43597300529157,,65.232254,,0 / 20,3003,2014-12-14 14:13:08:004
0.7071,-18.9466,-1.1702,-0.8642,-9.6946,1.1995,-2.674,-11.0583,7.4554,-17.95,44.21,11.26,43.42,81.26,2.83,0.0,69.061,35.178036,126.90889,,155.43597300529157,,65.232254,,0 / 20,3053,2014-12-14 14:13:08:054
-4.5615,-6.0914,-5.1934,-0.5013,-9.7875,0.3526,1.3089,3.8963,-9.6193,-16.51,44.9,10.95,43.42,81.26,2.83,0.0,69.061,35.178036,126.90889,,155.43597300529157,,65.232254,,0 / 20,3103,2014-12-14 14:13:08:104
2.1056,-12.2604,-1.7832,-1.3142,-9.6902,-0.7365,-2.1655,2.5543,-3.871,-15.01,43.84,15.51,349.56,86.42,54.88,0.0,69.061,35.178036,126.90889,,155.43597300529157,,65.232254,,0 / 20,3153,2014-12-14 14:13:08:154
1.186,-9.2525,-4.3696,-0.807,-9.7416,-0.7877,3.1027,-1.7977,-1.3176,-13.88,40.84,19.45,349.56,86.42,54.88,0.0,69.061,35.178036,126.90889,,155.43597300529157,,65.232254,,0 / 20,3203,2014-12-14 14:13:08:204
-1.4195,-9.5974,0.0177,-0.7387,-9.6956,-1.2729,-1.682,1.144,-0.4375,-9.82,40.46,24.45,267.1,83.4,134.31,0.0,68.859,35.178036,126.90889,,155.43597300529157,,65.232254,,0 / 20,3253,2014-12-14 14:13:08:254
1.665,-9.9422,-1.2851,-0.6925,-9.7074,-1.2072,1.2571,0.3281,0.0149,-5.38,39.4,26.45,231.34,81.37,149.87,0.0,68.859,35.178036,126.90889,,155.43597300529157,,65.232254,,0 / 20,3304,2014-12-14 14:13:08:305
-0.2125,-9.3292,-1.6683,-0.1361,-9.7174,-1.3133,1.9721,0.0662,-0.4372,-3.57,36.78,27.51,231.34,81.37,149.87,0.0,68.859,35.178036,126.90889,,155.43597300529157,,65.232254,,0 / 20,3353,2014-12-14 14:13:08:354
-2.3583,-9.1951,-0.5571,-0.1718,-9.7134,-1.3385,-0.5013,0.5594,-0.2904,-2.07,36.78,28.51,192.01,82.26,174.08,0.0,68.859,35.178036,126.90889,,155.43597300529157,,65.232254,,0 / 20,3403,2014-12-14 14:13:08:404
-0.5765,-9.9039,-1.3809,-0.3669,-9.714,-1.2942,-0.9504,0.2577,0.409,-1.32,36.4,28.08,192.01,82.26,174.08,0.0,68.859,35.178036,126.90889,,155.43597300529157,,65.232254,,0 / 20,3453,2014-12-14 14:13:08:454
0.458,-10.9576,-0.1548,-0.3696,-9.7173,-1.2683,0.2976,-0.2781,0.0537,4.55,33.09,28.64,194.28,82.12,164.17,0.0,68.859,35.178036,126.90889,,155.43597300529157,,65.232254,,0 / 20,3503,2014-12-14 14:13:08:504
0.4389,-10.9385,-1.0169,-0.2361,-9.7299,-1.2013,0.7855,-0.8015,0.9349,6.05,32.71,30.39,185.84,82.26,163.75,0.0,68.859,35.178036,126.90889,,155.43597300529157,,65.232254,,0 / 20,3553,2014-12-14 14:13:08:554
5.1135,-13.7739,-0.2697,0.2188,-9.7476,-1.0519,4.2384,-3.2432,0.8163,8.24,32.34,27.76,185.84,82.26,163.75,0.0,66.648,35.178036,126.90889,,155.43597300529157,,65.232254,,0 / 20,3603,2014-12-14 14:13:08:604
1.4734,-13.3524,2.1634,0.862,-9.7512,-0.5839,4.1188,-3.4598,4.8725,7.87,34.21,24.76,146.09,83.71,-168.25,0.0,66.648,35.178036,126.90889,,155.43597300529157,,65.232254,,0 / 20,3653,2014-12-14 14:13:08:654
-0.2125,-12.7394,-4.1397,0.9281,-9.7512,-0.4725,0.1016,-0.1674,-3.3969,5.3,36.4,22.07,84.1,84.38,-105.86,0.0,66.648,35.178036,126.90889,,155.43597300529157,,65.232254,,0 / 20,3703,2014-12-14 14:13:08:704
-2.1092,-14.9809,-1.4767,0.2666,-9.7669,-0.841,-4.7554,-4.0796,-2.2342,-0.63,38.65,15.64,144.95,84.7,-148.92,0.0,66.648,35.178036,126.90889,,155.43597300529157,,65.232254,,0 / 20,3753,2014-12-14 14:13:08:754
-2.1475,-12.5861,-4.178,-0.0465,-9.7547,-1.0068,-2.839,-1.391,-2.561,-4.32,39.03,13.64,144.95,84.7,-148.92,0.0,66.648,35.178036,126.90889,,155.43597300529157,,65.232254,,0 / 20,3803,2014-12-14 14:13:08:804
-1.2662,-7.1835,-4.4079,-0.2164,-9.7125,-1.3379,-1.0016,2.3167,-2.8511,-9.45,38.28,9.08,228.65,84.1,177.35,0.0,66.648,35.178036,126.90889,,155.43597300529157,,65.232254,,0 / 20,3853,2014-12-14 14:13:08:854
-3.2587,-5.3059,-4.5803,-0.4416,-9.6148,-1.8789,-2.061,5.1681,-2.308,-11.32,37.53,7.08,278.46,79.93,169.74,0.0,66.648,35.178036,126.90889,,155.43597300529157,,65.232254,,0 / 20,3903,2014-12-14 14:13:08:904
-5.2703,-1.5892,-4.6378,-0.8596,-9.4921,-2.3091,-3.0864,6.499,-2.21,-13.51,37.9,4.82,303.23,75.45,159.58,0.0,69.251,35.178036,126.90889,,155.43597300529157,,65.232254,,0 / 20,3953,2014-12-14 14:13:08:954
-4.6572,-1.6467,-4.0822,-1.7751,-9.1433,-3.069,-3.283,7.4754,-1.838,-13.88,36.03,6.58,303.23,75.45,159.58,0.0,69.251,35.178036,126.90889,,155.43597300529157,,65.232254,,0 / 20,4003,2014-12-14 14:13:09:004
0.6496,-16.5519,8.6964,-2.3423,-9.0114,-3.0788,-2.9291,3.2556,2.5715,-13.13,36.78,6.2,315.69,68.81,149.96,0.0,69.251,35.178036,126.90889,,155.43597300529157,,65.232254,,0 / 20,4053,2014-12-14 14:13:09:054
2.8528,-14.1188,10.0374,0.2268,-9.6976,1.4403,12.1441,-10.5877,20.7766,-12.82,34.21,6.33,315.69,68.81,149.96,0.0,69.251,35.178036,126.90889,,155.43597300529157,,65.232254,,0 / 20,4103,2014-12-14 14:13:09:104
-2.7989,-3.0836,-13.1058,0.1961,-9.6224,1.8819,-0.4196,3.0368,0.828,-12.76,34.21,6.2,50.7,78.88,-5.95,0.0,69.251,35.178036,126.90889,,155.43597300529157,,65.232254,,0 / 20,4153,2014-12-14 14:13:09:154
-3.1437,-22.5867,8.6964,-0.9362,-9.7093,1.0114,-4.4536,-11.3736,8.0524,-14.63,32.34,6.2,50.7,78.88,-5.95,0.0,69.251,35.178036,126.90889,,155.43597300529157,,65.232254,,0 / 20,4203,2014-12-14 14:13:09:204
-1.8985,-5.1527,-10.2129,-0.3508,-9.7989,0.1695,2.1144,2.9717,-8.6821,-13.51,33.09,8.39,13.69,81.92,42.79,0.0,69.251,35.178036,126.90889,,155.43597300529157,,65.232254,,0 / 20,4253,2014-12-14 14:13:09:254
2.2589,-11.5899,-1.266,-1.1884,-9.7158,-0.6013,-11.9896,9.9107,-11.4702,-13.13,31.28,9.39,13.69,81.92,42.79,0.0,64.935,35.178036,126.90889,,155.43597300529157,,65.232254,,0 / 20,4303,2014-12-14 14:13:09:304
0.6304,-9.6932,-3.45,-0.7148,-9.7098,-1.174,1.18,0.5222,-1.177,-9.07,27.9,15.51,293.35,82.19,116.84,0.0,64.935,35.178036,126.90889,,155.43597300529157,,65.232254,,0 / 20,4353,2014-12-14 14:13:09:354
-1.4003,-8.8694,-1.3426,-0.8109,-9.6985,-1.2047,-1.2861,1.3902,-0.386,-7.63,28.28,16.26,250.09,81.94,148.66,0.0,64.935,35.178036,126.90889,,155.43597300529157,,65.232254,,0 / 20,4403,2014-12-14 14:13:09:404
0.6113,-9.8848,-1.63,-0.8293,-9.6965,-1.2088,0.5661,0.3689,0.1802,-5.01,26.46,19.45,239.36,81.4,145.55,0.0,64.935,35.178036,126.90889,,155.43597300529157,,65.232254,,0 / 20,4453,2014-12-14 14:13:09:454
-0.0593,-9.4633,-1.4001,-0.6881,-9.6947,-1.3073,1.2773,0.1259,-0.2695,-3.57,24.21,20.83,239.36,81.4,145.55,0.0,64.935,35.178036,126.90889,,155.43597300529157,,65.232254,,0 / 20,4503,2014-12-14 14:13:09:504
-1.6302,-9.6549,-0.8062,-0.4108,-9.7112,-1.3015,1.8381,0.2464,-0.0574,-2.82,24.59,19.33,212.31,82.0,162.48,0.0,64.935,35.178036,126.90889,,155.43597300529157,,65.232254,,0 / 20,4553,2014-12-14 14:13:09:554
-0.9789,-9.9806,-0.787,-0.5154,-9.714,-1.2419,-0.6361,-0.0232,0.5299,-2.07,23.46,21.51,212.31,82.0,162.48,0.0,64.935,35.178036,126.90889,,155.43597300529157,,65.232254,,0 / 20,4603,2014-12-14 14:13:09:604
1.2435,-10.2871,-0.9977,-0.5357,-9.7217,-1.1715,0.178,0.3391,0.3702,1.99,22.03,22.07,202.42,82.45,155.43,0.0,69.415,35.178036,126.90889,,155.43597300529157,,65.232254,,0 / 20,4653,2014-12-14 14:13:09:654
0.822,-9.7315,-0.7104,-0.2407,-9.7367,-1.1444,2.2711,-0.903,0.1052,3.12,20.9,23.26,202.42,82.45,155.43,0.0,69.415,35.178036,126.90889,,155.43597300529157,,65.232254,,0 / 20,4703,2014-12-14 14:13:09:704
4.6728,-14.0038,5.0371,-0.1688,-9.7481,-1.0567,0.1009,-1.7497,0.6982,6.8,20.53,22.39,173.48,83.15,168.12,0.0,69.415,35.178036,126.90889,,155.43597300529157,,65.232254,,0 / 20,4753,2014-12-14 14:13:09:754
1.3201,-13.5057,3.083,0.6423,-9.77,-0.5523,5.6079,-4.2922,3.3579,6.43,20.9,19.33,170.39,83.74,170.93,0.0,69.415,35.178036,126.90889,,155.43597300529157,,65.232254,,0 / 20,4803,2014-12-14 14:13:09:804
-0.27,-11.3408,-4.3887,0.7816,-9.775,-0.0932,0.4168,-2.0892,1.7838,4.93,23.84,20.2,111.19,85.04,-130.69,0.0,69.415,35.178036,126.90889,,155.43597300529157,,65.232254,,0 / 20,4853,2014-12-14 14:13:09:854
-3.8143,-13.7739,-2.5304,-0.0692,-9.7747,-0.7873,-2.6376,-3.4532,-0.714,0.49,28.28,16.2,151.17,85.48,-155.07,0.0,69.415,35.178036,126.90889,,155.43597300529157,,65.232254,,0 / 20,4903,2014-12-14 14:13:09:904
-2.205,-10.3637,-3.7757,-0.4385,-9.7489,-0.9684,-3.0953,0.2323,-1.9858,-3.2,30.15,15.51,198.39,85.38,174.98,0.0,69.415,35.178036,126.90889,,155.43597300529157,,65.232254,,0 / 20,4953,2014-12-14 14:13:09:954
-3.6035,-3.371,-4.4654,-1.1951,-9.5309,-1.9761,-2.2246,6.1559,-2.0822,-9.82,31.59,10.95,255.88,80.67,154.3,0.0,69.145,35.178036,126.90889,,155.43597300529157,,65.232254,,0 / 20,5077,2014-12-14 14:13:10:078
-3.6035,-3.371,-4.4654,-1.1951,-9.5309,-1.9761,-2.2246,6.1559,-2.0822,-9.82,31.59,10.95,255.88,80.67,154.3,0.0,69.145,35.178036,126.90889,,155.43597300529157,,65.232254,,0 / 20,5078,2014-12-14 14:13:10:079
-3.8718,-2.7771,-5.0976,-1.6101,-9.3485,-2.4866,-2.2995,6.6922,-2.705,-12.45,33.46,10.51,286.27,76.38,148.84,0.0,69.145,35.178036,126.90889,,155.43597300529157,,65.232254,,0 / 20,5103,2014-12-14 14:13:10:104
-2.9138,-10.7852,2.8148,-2.0283,-9.0909,-3.068,-1.6566,6.2006,-2.1846,-11.32,31.28,13.14,286.27,76.38,148.84,0.0,69.145,35.178036,126.90889,,155.43597300529157,,65.232254,,0 / 20,5153,2014-12-14 14:13:10:154
14.2903,-22.74,26.0921,-1.2858,-9.6836,-0.8633,11.275,-11.4327,21.175,-11.7,30.53,13.14,294.16,67.97,146.53,0.0,69.145,35.178036,126.90889,,155.43597300529157,,65.232254,,0 / 20,5203,2014-12-14 14:13:10:204
-2.3008,-10.1913,5.9376,0.2115,-9.6756,1.5836,2.4259,-4.1677,9.6924,-13.13,30.15,14.01,294.16,67.97,146.53,0.0,69.145,35.178036,126.90889,,155.43597300529157,,65.232254,,0 / 20,5253,2014-12-14 14:13:10:254
-0.6532,-5.1718,-5.5957,0.0977,-9.6711,1.6218,-0.1701,3.8138,-2.6737,-14.26,30.53,12.7,44.39,80.62,-7.61,0.0,69.145,35.178036,126.90889,,155.43597300529157,,65.232254,,0 / 20,5303,2014-12-14 14:13:10:304
-5.96,-24.1194,14.2331,-0.3548,-9.773,0.7306,-6.3816,3.1084,-13.238,-13.13,30.15,14.01,44.39,80.62,-7.61,0.0,65.462,35.178036,126.90889,,155.43597300529157,,65.232254,,0 / 20,5353,2014-12-14 14:13:10:354
1.9524,-7.9689,-7.5307,-0.5232,-9.7754,0.5814,5.3146,-1.7838,-6.4312,-15.01,30.9,14.89,17.11,85.25,25.9,0.0,65.462,35.178036,126.90889,,155.43597300529157,,65.232254,,0 / 20,5403,2014-12-14 14:13:10:404
1.5309,-10.6319,-3.1243,-0.9447,-9.7067,-1.0286,2.7847,-0.7936,-1.986,-11.32,28.65,19.7,357.72,85.43,41.98,0.0,65.462,35.178036,126.90889,,155.43597300529157,,65.232254,,0 / 20,5453,2014-12-14 14:13:10:454
-1.8218,-8.9077,-0.4805,-0.7907,-9.6899,-1.2852,0.5671,1.3183,-1.0571,-10.95,27.21,20.57,259.59,81.81,137.44,0.0,65.462,35.178036,126.90889,,155.43597300529157,,65.232254,,0 / 20,5503,2014-12-14 14:13:10:504
1.8183,-9.6932,-2.9327,-0.9651,-9.695,-1.1166,-1.1863,0.3653,1.4156,-8.7,26.46,21.89,259.59,81.81,137.44,0.0,65.462,35.178036,126.90889,,155.43597300529157,,65.232254,,0 / 20,5553,2014-12-14 14:13:10:554
2.0673,-9.674,-1.994,-0.9301,-9.7029,-1.077,0.5563,0.3637,0.6311,-7.63,25.71,25.26,246.77,81.34,139.16,0.0,65.462,35.178036,126.90889,,155.43597300529157,,65.232254,,0 / 20,5603,2014-12-14 14:13:10:604
-2.6648,-8.5054,-2.5496,-0.5307,-9.7052,-1.3029,3.129,0.1189,-1.5576,-6.51,25.34,24.95,243.97,81.66,139.19,0.0,65.462,35.178036,126.90889,,155.43597300529157,,65.232254,,0 / 20,5653,2014-12-14 14:13:10:654
-3.3353,-8.4287,-0.9211,-0.4733,-9.6659,-1.5863,-2.2939,1.2428,-0.7121,-3.95,25.71,26.26,210.61,80.28,163.39,0.0,65.462,35.178036,126.90889,,155.43597300529157,,65.232254,,0 / 20,5703,2014-12-14 14:13:10:704
0.4389,-10.2488,-1.0552,-0.6371,-9.662,-1.5524,0.0345,0.6535,0.1235,-3.95,23.15,27.76,210.61,80.28,163.39,0.0,68.239,35.178036,126.90889,,155.43597300529157,,65.232254,,0 / 20,5759,2014-12-14 14:13:10:760
0.6304,-9.8273,-1.8215,-0.4068,-9.6818,-1.5062,0.5603,0.0686,-0.4587,0.49,21.65,28.89,203.77,80.77,161.65,0.0,68.239,35.178036,126.90889,,155.43597300529157,,65.232254,,0 / 20,5803,2014-12-14 14:13:10:804
0.8029,-9.7315,-1.6683,-0.3381,-9.6811,-1.527,0.9588,-0.1033,-0.3095,0.87,22.4,29.76,192.14,80.82,167.51,0.0,68.239,35.178036,126.90889,,155.43597300529157,,65.232254,,0 / 20,5853,2014-12-14 14:13:10:854
1.186,-11.8198,-1.4575,-0.1834,-9.6878,-1.511,0.3005,-0.6506,0.1563,2.37,21.65,29.51,183.55,81.07,173.08,0.0,68.239,35.178036,126.90889,,155.43597300529157,,65.232254,,0 / 20,5903,2014-12-14 14:13:10:904
3.0635,-12.3562,-0.0207,0.1022,-9.7142,-1.3393,2.4557,-1.9579,1.6033,4.18,22.78,28.01,183.55,81.07,173.08,0.0,68.239,35.178036,126.90889,,155.43597300529157,,65.232254,,0 / 20,5953,2014-12-14 14:13:10:954
-4.6764,-11.0151,-3.3159,0.3379,-9.7334,-1.1477,-1.134,-1.9984,-0.3752,3.12,26.84,28.01,167.82,82.13,-175.63,0.0,68.239,35.178036,126.90889,,155.43597300529157,,65.232254,,0 / 20,6004,2014-12-14 14:13:11:005
-4.3699,-12.4328,-4.3696,-0.2566,-9.708,-1.3638,-4.3397,-0.3363,-1.5415,0.49,28.28,26.33,167.82,82.13,-175.63,0.0,68.239,35.178036,126.90889,,155.43597300529157,,65.232254,,0 / 20,6054,2014-12-14 14:13:11:055
-2.2625,-12.5669,-4.3313,-0.7776,-9.6543,-1.5365,-3.9575,-1.0631,-1.8911,-2.82,31.21,23.95,198.48,81.86,169.35,0.0,68.239,35.178036,126.90889,,155.43597300529157,,65.232254,,0 / 20,6103,2014-12-14 14:13:11:104
-2.7414,-9.9422,-3.7565,-1.0156,-9.5599,-1.9356,-0.4266,-0.5583,-2.636,-3.95,31.96,23.7,231.3,77.12,152.31,0.0,65.129,35.178036,126.90889,,155.43597300529157,,65.232254,,0 / 20,6153,2014-12-14 14:13:11:154
-3.2012,-6.1489,-4.4654,-1.3259,-9.4338,-2.3273,-1.5673,2.6793,-2.045,-5.76,33.09,20.89,231.3,77.12,152.31,0.0,65.129,35.178036,126.90889,,155.43597300529157,,65.232254,,0 / 20,6203,2014-12-14 14:13:11:204
-3.4311,-4.4821,-4.3887,-1.6943,-9.2382,-2.8206,-1.4449,4.7655,-1.6649,-10.95,33.09,19.58,259.47,73.03,150.11,0.0,65.129,35.178036,126.90889,,155.43597300529157,,65.232254,,0 / 20,6253,2014-12-14 14:13:11:254
-0.7681,-7.6816,-0.9786,-1.6943,-9.2382,-2.8206,-1.4449,4.7655,-1.6649,-12.45,33.09,20.57,269.82,70.4,149.01,0.0,65.129,35.178036,126.90889,,155.43597300529157,,65.232254,,0 / 20,6303,2014-12-14 14:13:11:304
-0.1742,-10.881,1.7802,-1.9834,-9.1443,-2.9357,0.609,1.9551,1.5444,-12.45,33.09,20.57,269.82,70.4,149.01,0.0,65.129,35.178036,126.90889,,155.43597300529157,,65.232254,,0 / 20,6353,2014-12-14 14:13:11:354
-7.7417,-7.375,-1.3617,-1.6859,-9.4002,-2.2281,2.5427,-3.8748,6.427,-13.13,33.09,21.51,275.16,68.82,145.96,0.0,65.129,35.178036,126.90889,,155.43597300529157,,65.232254,,0 / 20,6403,2014-12-14 14:13:11:404
1.1669,-9.9231,1.0139,-1.7175,-9.5059,-1.6906,-7.5429,2.9355,-2.0906,-11.7,31.28,21.01,269.28,73.45,142.89,0.0,65.129,35.178036,126.90889,,155.43597300529157,,65.232254,,0 / 20,6453,2014-12-14 14:13:11:454
-0.8256,-10.9385,1.8568,-1.4772,-9.5846,-1.4572,2.9097,0.0884,0.6195,-13.13,31.59,20.89,273.33,77.78,134.61,0.0,65.129,35.178036,126.90889,,155.43597300529157,,65.232254,,0 / 20,6503,2014-12-14 14:13:11:504
0.1132,-8.697,-1.0552,-0.9887,-9.7231,-0.8088,2.2101,0.9715,0.6168,-12.76,34.21,19.95,273.33,77.78,134.61,0.0,67.17,35.178036,126.90889,,155.43597300529157,,65.232254,,0 / 20,6553,2014-12-14 14:13:11:554
-0.8256,-10.0572,0.7648,-0.8673,-9.7365,-0.7866,0.6741,-0.0668,0.5684,-13.13,33.46,20.14,274.15,82.52,129.28,0.0,67.17,35.178036,126.90889,,155.43597300529157,,65.232254,,0 / 20,6603,2014-12-14 14:13:11:604
-1.0746,-9.5782,0.0943,-0.8058,-9.7515,-0.6552,0.7971,-0.9543,1.7834,-12.76,32.71,20.64,268.8,83.14,132.21,0.0,67.17,35.178036,126.90889,,155.43597300529157,,65.232254,,0 / 20,6654,2014-12-14 14:13:11:655
-0.5957,-9.5016,-0.4805,-0.813,-9.7585,-0.5295,0.2914,0.1928,0.1131,-12.76,32.34,19.14,279.11,84.32,123.07,0.0,67.17,35.178036,126.90889,,155.43597300529157,,65.232254,,0 / 20,6703,2014-12-14 14:13:11:704
0.1898,-9.7315,0.056,-0.7801,-9.7641,-0.4724,0.3168,-0.1564,0.5564,-13.51,32.34,20.01,279.11,84.32,123.07,0.0,67.17,35.178036,126.90889,,155.43597300529157,,65.232254,,0 / 20,6753,2014-12-14 14:13:11:754
-0.0593,-9.5974,0.1709,-0.6636,-9.7766,-0.3857,0.8431,-0.0324,0.4455,-13.51,32.71,19.7,280.78,85.51,120.16,0.0,67.17,35.178036,126.90889,,155.43597300529157,,65.232254,,0 / 20,6803,2014-12-14 14:13:11:804
-0.0784,-9.7124,0.0177,-0.4843,-9.7926,-0.2011,0.6686,-0.1692,0.6496,-13.51,32.71,21.7,279.52,86.15,117.75,0.0,67.17,35.178036,126.90889,,155.43597300529157,,65.232254,,0 / 20,6853,2014-12-14 14:13:11:854
-0.5382,-9.5016,0.1134,-0.4656,-9.7937,-0.1924,-0.0045,0.1596,0.0049,-13.13,32.34,20.39,284.44,86.93,112.55,0.0,65.991,35.178036,126.90889,,155.43597300529157,,65.232254,,0 / 20,6903,2014-12-14 14:13:11:904
-0.3466,-9.6932,0.1134,-0.4735,-9.7939,-0.161,-0.0414,0.1543,0.2573,-13.13,32.34,20.45,284.39,87.06,112.45,0.0,65.991,35.178036,126.90889,,155.43597300529157,,65.232254,,0 / 20,6953,2014-12-14 14:13:11:954
-0.2508,-9.7315,-0.0015,-0.4535,-9.7951,-0.1433,0.1654,0.0178,-0.0158,-13.51,32.71,19.14,284.39,87.06,112.45,0.0,65.991,35.178036,126.90889,,155.43597300529157,,65.232254,,0 / 20,7003,2014-12-14 14:13:12:004
-0.0018,-9.6357,0.0368,-0.422,-9.7968,-0.1247,0.2568,-0.0124,0.1595,-12.76,33.09,20.83,287.74,87.22,107.54,0.0,65.991,35.178036,126.90889,,155.43597300529157,,65.232254,,0 / 20,7053,2014-12-14 14:13:12:054
-0.2317,-9.6357,-0.2697,-0.3704,-9.7991,-0.1058,0.3477,0.0726,0.122,-12.76,32.71,20.89,288.66,87.75,105.94,0.0,65.991,35.178036,126.90889,,155.43597300529157,,65.232254,,0 / 20,7103,2014-12-14 14:13:12:104
-0.27,-9.7698,-0.0781,-0.297,-9.8017,-0.0967,0.1668,0.0154,-0.1296,-12.07,32.34,21.14,288.66,87.75,105.94,0.0,65.991,35.178036,126.90889,,155.43597300529157,,65.232254,,0 / 20,7153,2014-12-14 14:13:12:154
-0.5191,-9.5208,-0.2697,-0.2969,-9.8017,-0.0903,-0.009,0.0139,0.0278,-13.51,32.71,20.83,287.91,88.17,108.04,0.0,65.991,35.178036,126.90889,,155.43597300529157,,65.232254,,0 / 20,7203,2014-12-14 14:13:12:204
0.0557,-9.8273,-0.1356,-0.3021,-9.8013,-0.1132,0.3212,-0.088,-0.0725,-13.13,32.34,20.89,285.95,87.95,108.35,0.0,62.86,35.178036,126.90889,,155.43597300529157,,65.232254,,0 / 20,7253,2014-12-14 14:13:12:254
0.1515,-9.5016,-0.6912,-0.2366,-9.803,-0.1218,0.447,0.0792,-0.0285,-13.13,33.09,20.26,285.95,87.95,108.35,0.0,62.86,35.178036,126.90889,,155.43597300529157,,65.232254,,0 / 20,7303,2014-12-14 14:13:12:304
0.1515,-9.5974,-0.4613,-0.2115,-9.8032,-0.1482,0.3522,0.1852,-0.3627,-13.51,32.71,20.7,278.46,88.45,117.24,0.0,62.86,35.178036,126.90889,,155.43597300529157,,65.232254,,0 / 20,7353,2014-12-14 14:13:12:354
-0.3275,-9.5208,-0.7487,-0.1883,-9.8027,-0.2031,0.0363,0.1512,-0.4548,-10.2,32.34,24.2,247.3,88.38,137.17,0.0,62.86,35.178036,126.90889,,155.43597300529157,,65.232254,,0 / 20,7403,2014-12-14 14:13:12:404
-0.2508,-10.153,-0.3272,-0.3145,-9.7943,-0.3787,-0.395,-0.4465,-0.4177,-9.45,31.96,24.33,247.3,88.38,137.17,0.0,62.86,35.178036,126.90889,,155.43597300529157,,65.232254,,0 / 20,7453,2014-12-14 14:13:12:454
-0.1742,-9.5974,-0.5954,-0.283,-9.795,-0.3855,0.2339,0.0043,-0.1964,-8.38,32.34,25.2,240.54,87.12,140.29,0.0,62.86,35.178036,126.90889,,155.43597300529157,,65.232254,,0 / 20,7503,2014-12-14 14:13:12:504
0.7837,-9.8081,-0.4613,-0.1485,-9.7968,-0.4139,0.9615,-0.1355,0.0083,-7.26,30.53,24.51,240.54,87.12,140.29,0.0,62.86,35.178036,126.90889,,155.43597300529157,,65.232254,,0 / 20,7553,2014-12-14 14:13:12:554
0.822,-9.9231,0.7648,-0.0567,-9.7994,-0.3722,0.4475,-0.1583,0.4252,-9.07,31.28,25.83,219.5,87.43,160.26,0.0,72.195,35.178036,126.90889,,155.43597300529157,,65.232254,,0 / 20,7603,2014-12-14 14:13:12:604
-0.155,-9.4441,-2.1281,-0.0308,-9.8033,-0.2533,0.6893,-0.1768,0.9492,-10.2,31.96,24.51,204.02,88.22,178.65,0.0,72.195,35.178036,126.90889,,155.43597300529157,,65.232254,,0 / 20,7653,2014-12-14 14:13:12:654
0.4197,-9.6932,-2.6645,-0.0219,-9.7952,-0.4729,-0.1141,0.2666,-1.2066,-11.32,34.59,21.89,211.29,87.23,177.35,0.0,72.195,35.178036,126.90889,,155.43597300529157,,65.232254,,0 / 20,7703,2014-12-14 14:13:12:704