ACCELEROMETER X (m/s²),ACCELEROMETER Y (m/s²),ACCELEROMETER Z (m/s²),GRAVITY X (m/s²),GRAVITY Y (m/s²),GRAVITY Z (m/s²),LINEAR ACCELERATION X (m/s²),LINEAR ACCELERATION Y (m/s²),LINEAR ACCELERATION Z (m/s²),MAGNETIC FIELD X (μT),MAGNETIC FIELD Y (μT),MAGNETIC FIELD Z (μT),ORIENTATION X (°),ORIENTATION Y (°),ORIENTATION Z (°),PROXIMITY (i),SOUND LEVEL (dB),LOCATION Latitude : ,LOCATION Longitude : ,LOCATION Altitude ( m),LOCATION Altitude-google ( m),LOCATION Speed ( Kmh),LOCATION Accuracy ( m),LOCATION ORIENTATION (°),Satellites in range,Time since start in ms ,YYYY-MO-DD HH-MI-SS_SSS
0.8029,-9.6166,0.7648,0.6089,-9.764,0.6815,0.1968,0.0369,0.1348,-9.45,31.96,2.01,105.65,85.05,-41.53,0.0,56.07,35.178,126.908905,,155.41674925198149,,75.551605,,0 / 20,4,2014-12-14 14:15:53:812
0.6304,-9.7507,0.3817,0.6267,-9.7645,0.6567,0.029,-0.1055,-0.2324,-8.7,30.46,2.89,107.59,84.65,-41.78,0.0,56.07,35.178,126.908905,,155.41674925198149,,75.551605,,0 / 20,54,2014-12-14 14:15:53:862
0.7645,-9.7315,0.4391,0.6458,-9.766,0.6145,0.2816,0.0588,-0.3052,-8.7,32.28,0.83,109.18,84.69,-43.66,0.0,56.07,35.178,126.908905,,155.41674925198149,,75.551605,,0 / 20,104,2014-12-14 14:15:53:912
0.8029,-9.7698,0.8031,0.6793,-9.7638,0.6148,0.1682,-0.0772,0.2708,-8.7,30.46,1.51,109.18,84.69,-43.66,0.0,56.07,35.178,126.908905,,155.41674925198149,,75.551605,,0 / 20,154,2014-12-14 14:15:53:962
1.5117,-10.2679,1.6461,0.7322,-9.7575,0.6522,0.6495,-0.5071,0.7492,-7.26,30.46,1.58,102.99,84.64,-47.86,0.0,56.07,35.178,126.908905,,155.41674925198149,,75.551605,,0 / 20,204,2014-12-14 14:15:54:012
1.8183,-10.3829,2.24,0.8916,-9.7259,0.8844,0.9964,-0.6388,1.5877,-6.88,30.84,3.26,85.42,83.36,-46.77,0.0,56.07,35.178,126.908905,,155.41674925198149,,75.551605,,0 / 20,254,2014-12-14 14:15:54:062
2.757,-11.7623,3.9834,1.0988,-9.6623,1.266,1.6579,-1.6077,2.8454,-8.32,31.59,1.14,85.42,83.36,-46.77,0.0,63.619,35.178,126.908905,,155.41674925198149,,75.551605,,0 / 20,304,2014-12-14 14:15:54:112
2.7953,-11.8581,2.5082,1.3517,-9.5891,1.5466,1.6704,-1.5592,0.3411,-8.32,29.34,0.26,81.41,78.3,-39.15,0.0,63.619,35.178,126.908905,,155.41674925198149,,75.551605,,0 / 20,355,2014-12-14 14:15:54:163
-1.0938,-9.0801,-2.2813,1.698,-9.583,1.206,-1.0431,0.5456,-3.4302,-7.57,27.84,-1.11,81.41,78.3,-39.15,0.0,63.619,35.178,126.908905,,155.41674925198149,,75.551605,,0 / 20,404,2014-12-14 14:15:54:212
-2.0326,-8.5629,2.1634,1.3873,-9.6678,0.8833,-2.0248,1.3441,0.0181,-8.7,28.59,-3.24,154.43,79.77,-59.95,0.0,63.619,35.178,126.908905,,155.41674925198149,,75.551605,,0 / 20,454,2014-12-14 14:15:54:262
-2.7989,-8.0647,1.7994,0.9196,-9.7073,1.0458,-3.8507,1.8073,0.8615,-9.45,26.4,-2.86,154.43,79.77,-59.95,0.0,63.619,35.178,126.908905,,155.41674925198149,,75.551605,,0 / 20,504,2014-12-14 14:15:54:312
-0.7106,-7.9115,0.4966,0.6102,-9.7313,1.0485,-1.7118,1.8736,-0.4721,-9.82,26.4,-2.61,132.54,81.84,-41.32,0.0,63.619,35.178,126.908905,,155.41674925198149,,75.551605,,0 / 20,554,2014-12-14 14:15:54:362
-0.4233,-5.44,-0.2697,0.4924,-9.7492,0.9382,-0.7252,1.7341,-0.648,-8.7,27.9,-2.36,132.54,81.84,-41.32,0.0,63.619,35.178,126.908905,,155.41674925198149,,75.551605,,0 / 20,604,2014-12-14 14:15:54:412
-0.9789,-5.9956,0.7648,0.2463,-9.7675,0.8405,-1.2498,2.5835,-0.0574,-7.57,26.78,-1.05,121.93,83.8,-27.69,0.0,62.13,35.178,126.908905,,155.41674925198149,,75.551605,,0 / 20,654,2014-12-14 14:15:54:462
3.1976,-9.8081,5.3628,0.1033,-9.7364,1.1675,-0.2195,0.6342,2.696,-5.76,27.15,-3.24,91.32,84.88,-16.33,0.0,62.13,35.178,126.908905,,155.41674925198149,,75.551605,,0 / 20,704,2014-12-14 14:15:54:512
4.3472,-13.7547,8.9454,0.8195,-9.5264,2.1785,3.6985,-4.5661,6.5381,-6.51,24.9,0.26,68.56,79.14,-17.72,0.0,62.13,35.178,126.908905,,155.41674925198149,,75.551605,,0 / 20,754,2014-12-14 14:15:54:562
0.8029,-9.5399,3.7344,1.1827,-9.2748,2.9578,2.1373,-2.3738,4.9906,-6.13,24.9,1.14,40.77,71.04,-21.79,0.0,62.13,35.178,126.908905,,155.41674925198149,,75.551605,,0 / 20,804,2014-12-14 14:15:54:612
-1.6685,-16.9159,9.1178,0.5955,-9.3363,2.9409,-2.9757,-6.0126,4.219,-5.38,24.53,1.7,40.77,71.04,-21.79,0.0,62.13,35.178,126.908905,,155.41674925198149,,75.551605,,0 / 20,854,2014-12-14 14:15:54:662
-11.6117,-1.0911,-10.4428,0.8618,-9.4842,2.3405,1.1062,3.1219,-8.8042,-4.63,24.9,1.08,33.73,72.18,-11.45,0.0,62.13,35.178,126.908905,,155.41674925198149,,75.551605,,0 / 20,904,2014-12-14 14:15:54:712
3.4276,-12.4137,-0.5571,-0.3084,-9.7658,0.8397,2.035,-1.9186,-2.2473,-4.63,23.46,5.08,15.02,83.44,24.54,0.0,62.13,35.178,126.908905,,155.41674925198149,,75.551605,,0 / 20,954,2014-12-14 14:15:54:762
-2.3008,-10.4595,-3.5458,-0.1888,-9.784,0.6394,-1.0571,0.0173,-3.9313,-2.82,24.21,5.58,15.02,83.44,24.54,0.0,62.569,35.178,126.908905,,155.41674925198149,,75.551605,,0 / 20,1004,2014-12-14 14:15:54:812
-1.2279,-9.4058,-1.9173,-0.1595,-9.8022,-0.2486,-0.8393,0.1208,-1.9342,0.18,24.53,6.01,3.43,86.1,16.45,0.0,62.569,35.178,126.908905,,155.41674925198149,,75.551605,,0 / 20,1054,2014-12-14 14:15:54:862
1.0328,-9.8465,-0.8636,-0.275,-9.798,-0.3061,-0.1323,-0.1505,-0.2097,1.24,22.34,8.45,215.88,88.27,147.31,0.0,62.569,35.178,126.908905,,155.41674925198149,,75.551605,,0 / 20,1104,2014-12-14 14:15:54:912
0.822,-9.31,-1.3809,-0.0548,-9.7964,-0.4448,0.8479,0.3575,-0.9823,2.74,21.21,9.76,180.77,87.72,162.6,0.0,62.569,35.178,126.908905,,155.41674925198149,,75.551605,,0 / 20,1154,2014-12-14 14:15:54:962
-1.3046,-9.31,-1.7449,-0.0117,-9.7892,-0.5855,-0.0524,-0.0114,-0.9288,4.55,20.15,11.7,156.37,86.58,178.86,0.0,62.569,35.178,126.908905,,155.41674925198149,,75.551605,,0 / 20,1204,2014-12-14 14:15:55:012
-2.0134,-9.4058,-1.3809,-0.2429,-9.7788,-0.6981,-1.6115,0.0605,-0.5353,4.55,18.65,11.07,156.37,86.58,178.86,0.0,62.569,35.178,126.908905,,155.41674925198149,,75.551605,,0 / 20,1255,2014-12-14 14:15:55:063
-1.6111,-9.7315,-2.1855,-0.2811,-9.7641,-0.8679,-0.3181,-0.2448,-1.2293,7.18,19.4,10.76,177.48,85.49,157.75,0.0,62.569,35.178,126.908905,,155.41674925198149,,75.551605,,0 / 20,1304,2014-12-14 14:15:55:112
-0.27,-10.9385,0.1326,-0.3513,-9.7649,-0.833,0.5223,-1.8555,1.5023,7.55,19.03,13.95,166.7,84.66,162.05,0.0,69.985,35.178,126.908905,,155.41674925198149,,75.551605,,0 / 20,1354,2014-12-14 14:15:55:162
3.121,-13.0842,2.0676,-0.0025,-9.7951,-0.4752,2.9295,-2.3944,2.4327,10.49,17.9,11.26,135.64,87.22,179.7,0.0,69.985,35.178,126.908905,,155.41674925198149,,75.551605,,0 / 20,1404,2014-12-14 14:15:55:212
7.3358,-16.6285,2.2975,0.6032,-9.7867,-0.1623,5.8101,-5.2553,2.189,11.99,19.4,9.51,135.64,87.22,179.7,0.0,69.985,35.178,126.908905,,155.41674925198149,,75.551605,,0 / 20,1454,2014-12-14 14:15:55:262
0.7262,-14.4444,5.746,0.9105,-9.7641,0.054,5.2135,-5.1345,3.3399,11.24,20.46,11.26,56.21,86.35,-105.06,0.0,69.985,35.178,126.908905,,155.41674925198149,,75.551605,,0 / 20,1504,2014-12-14 14:15:55:312
-4.4657,-16.3603,-3.6607,0.1815,-9.797,-0.394,-4.5165,-4.0997,-3.5082,8.62,27.53,9.2,31.1,86.25,-80.31,0.0,69.985,35.178,126.908905,,155.41674925198149,,75.551605,,0 / 20,1554,2014-12-14 14:15:55:362
-3.0671,-12.8926,-3.3351,-0.1461,-9.7887,-0.5747,-1.8765,-3.5773,-1.44,2.74,30.09,3.95,145.48,86.53,165.73,0.0,69.985,35.178,126.908905,,155.41674925198149,,75.551605,,0 / 20,1604,2014-12-14 14:15:55:412
-3.3353,-11.6473,-2.9519,-0.4489,-9.7625,-0.8134,-2.8633,0.9724,-1.9821,-0.57,31.96,5.01,145.48,86.53,165.73,0.0,69.292,35.178,126.908905,,155.41674925198149,,75.551605,,0 / 20,1654,2014-12-14 14:15:55:462
-2.7606,-7.5283,-3.4692,-0.7411,-9.7176,-1.0905,-2.1179,3.8519,-2.1011,-2.82,31.96,4.01,282.23,84.56,151.11,0.0,69.292,35.178,126.908905,,155.41674925198149,,75.551605,,0 / 20,1704,2014-12-14 14:15:55:512
-4.0059,-3.4476,-3.3542,-1.0865,-9.6533,-1.3432,-2.8551,5.9442,-1.1804,-5.76,31.59,1.26,328.34,79.85,141.03,0.0,69.292,35.178,126.908905,,155.41674925198149,,75.551605,,0 / 20,1754,2014-12-14 14:15:55:562
-4.3699,-2.5471,-4.1014,-2.0321,-9.3648,-2.0835,-2.5281,7.0033,-2.4623,-7.95,30.84,0.45,328.34,79.85,141.03,0.0,69.292,35.178,126.908905,,155.41674925198149,,75.551605,,0 / 20,1804,2014-12-14 14:15:55:612
-3.1437,-3.1794,-2.7795,-2.5202,-9.1217,-2.5718,-1.6398,6.5556,-1.2576,-6.88,31.96,2.2,336.86,68.46,135.58,0.0,69.292,35.178,126.908905,,155.41674925198149,,75.551605,,0 / 20,1854,2014-12-14 14:15:55:662
2.8528,-15.2682,6.8763,-1.1373,-9.7396,-0.129,14.646,-12.7487,24.2687,-7.26,31.96,3.26,334.25,67.91,134.99,0.0,69.292,35.178,126.908905,,155.41674925198149,,75.551605,,0 / 20,1904,2014-12-14 14:15:55:712
-0.4999,-6.5704,3.5045,-0.0479,-9.6029,1.9878,-1.3317,-0.4707,5.6693,-8.32,30.46,3.51,334.25,67.91,134.99,0.0,69.292,35.178,126.908905,,155.41674925198149,,75.551605,,0 / 20,1954,2014-12-14 14:15:55:762
-1.477,-1.8383,-11.7264,-0.8055,-9.7514,0.6567,-10.9284,4.1004,-16.9699,-8.32,31.21,5.45,37.25,78.3,1.38,0.0,67.46,35.178,126.908905,,155.41674925198149,,75.551605,,0 / 20,2004,2014-12-14 14:15:55:812
-5.1937,-4.2714,-9.7339,-0.5803,-9.7633,0.715,9.8575,-7.3036,-1.9903,-7.95,30.09,5.7,1.77,83.92,50.81,0.0,67.46,35.178,126.908905,,155.41674925198149,,75.551605,,0 / 20,2054,2014-12-14 14:15:55:862
-8.738,-1.0911,-9.0251,-0.741,-9.778,0.1098,-2.0739,4.4983,-9.2077,-8.7,30.46,7.51,1.77,83.92,50.81,0.0,67.46,35.178,126.908905,,155.41674925198149,,75.551605,,0 / 20,2104,2014-12-14 14:15:55:912
1.2052,-9.7124,-4.5995,-1.5181,-9.5849,-1.4126,7.2764,-3.705,-0.412,-5.76,28.28,13.64,319.83,85.62,81.57,0.0,67.46,35.178,126.908905,,155.41674925198149,,75.551605,,0 / 20,2154,2014-12-14 14:15:55:962
-2.3008,-8.5437,-1.515,-1.073,-9.5755,-1.8243,-0.1511,0.2292,0.214,-5.01,27.9,15.64,249.07,78.06,147.92,0.0,67.46,35.178,126.908905,,155.41674925198149,,75.551605,,0 / 20,2204,2014-12-14 14:15:56:012
1.0519,-9.7698,-1.0361,-1.2009,-9.5694,-1.7761,-0.5746,0.4923,0.571,-2.82,26.4,18.26,240.1,77.37,145.94,0.0,67.46,35.178,126.908905,,155.41674925198149,,75.551605,,0 / 20,2254,2014-12-14 14:15:56:062
1.7225,-9.9039,-1.7449,-0.6883,-9.6324,-1.707,2.3373,-0.5806,0.1292,-0.2,23.46,19.58,240.1,77.37,145.94,0.0,67.46,35.178,126.908905,,155.41674925198149,,75.551605,,0 / 20,2304,2014-12-14 14:15:56:112
1.1094,-9.8848,0.1518,-0.4508,-9.6776,-1.5204,1.3272,-0.301,1.3647,0.49,23.09,20.51,207.93,79.18,158.04,0.0,70.79,35.178,126.908905,,155.41674925198149,,75.551605,,0 / 20,2354,2014-12-14 14:15:56:162
-1.7452,-9.5974,-0.7678,-0.575,-9.6771,-1.4808,-1.0373,-0.2054,0.4411,0.87,22.34,21.39,207.93,79.18,158.04,0.0,70.79,35.178,126.908905,,155.41674925198149,,75.551605,,0 / 20,2404,2014-12-14 14:15:56:212
1.4351,-10.7661,-0.4038,-0.7436,-9.6816,-1.3726,-0.9779,-0.1939,1.0147,2.74,20.15,23.01,199.12,80.68,158.78,0.0,70.79,35.178,126.908905,,155.41674925198149,,75.551605,,0 / 20,2454,2014-12-14 14:15:56:262
1.2244,-10.8427,-1.0744,-0.2494,-9.7282,-1.2122,1.9585,-1.2114,0.3242,6.05,17.53,24.33,193.03,81.58,154.45,0.0,70.79,35.178,126.908905,,155.41674925198149,,75.551605,,0 / 20,2504,2014-12-14 14:15:56:312
3.3126,-13.908,0.8415,0.025,-9.7513,-1.0405,3.4407,-3.5226,1.8957,6.8,17.9,25.33,193.03,81.58,154.45,0.0,70.79,35.178,126.908905,,155.41674925198149,,75.551605,,0 / 20,2554,2014-12-14 14:15:56:362
2.7379,-13.4865,5.3053,0.9363,-9.76,-0.1904,3.2293,-3.2779,5.209,9.37,19.03,26.95,160.04,83.91,-178.62,0.0,70.79,35.178,126.908905,,155.41674925198149,,75.551605,,0 / 20,2604,2014-12-14 14:15:56:412
3.1593,-12.2221,-1.8982,1.0652,-9.7471,-0.1752,0.7135,-0.4854,-2.9116,7.93,20.84,24.45,78.55,84.41,-101.5,0.0,65.618,35.178,126.908905,,155.41674925198149,,75.551605,,0 / 20,2654,2014-12-14 14:15:56:462
-4.0059,-18.0654,-2.3771,0.2305,-9.7808,-0.6739,-2.6557,-1.1784,-4.8964,6.8,24.53,25.2,78.55,84.41,-101.5,0.0,65.618,35.178,126.908905,,155.41674925198149,,75.551605,,0 / 20,2704,2014-12-14 14:15:56:512
-2.6265,-16.322,-1.4384,0.0354,-9.7813,-0.704,-3.3251,-5.0519,-0.8788,2.74,32.28,24.89,151.7,85.84,-161.12,0.0,65.618,35.178,126.908905,,155.41674925198149,,75.551605,,0 / 20,2756,2014-12-14 14:15:56:564
-2.205,-9.0035,-4.0631,-0.429,-9.7416,-1.0424,-2.1827,1.982,-2.5538,-4.63,40.46,18.95,221.04,84.5,161.21,0.0,65.618,35.178,126.908905,,155.41674925198149,,75.551605,,0 / 20,2804,2014-12-14 14:15:56:612
-1.9176,-6.9919,-4.1205,-0.5764,-9.6921,-1.3787,-0.9835,4.2061,-2.3656,-10.57,40.4,16.95,221.04,84.5,161.21,0.0,65.618,35.178,126.908905,,155.41674925198149,,75.551605,,0 / 20,2854,2014-12-14 14:15:56:662
-4.4465,-2.413,-4.6761,-1.3467,-9.4701,-2.162,-2.9196,7.3855,-2.3147,-14.26,42.65,12.76,268.65,81.24,157.31,0.0,65.618,35.178,126.908905,,155.41674925198149,,75.551605,,0 / 20,2904,2014-12-14 14:15:56:712
-4.4848,-1.0336,-5.3275,-1.8886,-9.224,-2.7424,-2.6811,7.7491,-2.7195,-15.38,44.15,11.07,298.5,74.95,148.08,0.0,65.618,35.178,126.908905,,155.41674925198149,,75.551605,,0 / 20,2954,2014-12-14 14:15:56:762
-3.7951,-2.5088,-0.6146,-2.1355,-9.0941,-2.9847,-2.0481,7.098,-1.4861,-15.01,43.78,13.08,303.12,70.15,145.45,0.0,65.618,35.178,126.908905,,155.41674925198149,,75.551605,,0 / 20,3004,2014-12-14 14:15:56:812
25.3446,-30.1734,38.6408,-0.0395,-9.6934,1.4856,20.729,-17.7248,32.4413,-14.63,46.71,14.58,303.12,70.15,145.45,0.0,69.696,35.178,126.908905,,155.41674925198149,,75.551605,,0 / 20,3054,2014-12-14 14:15:56:862
-7.416,-4.712,-10.3278,-0.2191,-9.6226,1.8784,-1.0047,3.8793,-2.3808,-16.45,43.78,13.26,38.13,81.28,1.52,0.0,69.696,35.178,126.908905,,155.41674925198149,,75.551605,,0 / 20,3104,2014-12-14 14:15:56:912
-4.1591,-23.9086,9.3669,-1.4342,-9.6088,1.3355,-6.9567,-10.188,4.3492,-16.45,44.46,13.08,32.05,78.88,6.65,0.0,69.696,35.178,126.908905,,155.41674925198149,,75.551605,,0 / 20,3154,2014-12-14 14:15:56:962
-10.5963,-0.2098,-15.0024,-1.4531,-9.6773,-0.6397,-8.8797,8.9744,-12.8536,-15.01,45.21,13.51,6.68,83.04,38.57,0.0,69.696,35.178,126.908905,,155.41674925198149,,75.551605,,0 / 20,3204,2014-12-14 14:15:57:012
2.4122,-12.0113,0.0177,-1.6163,-9.5947,-1.2248,0.6647,-1.665,-2.5535,-14.26,44.09,16.51,6.68,83.04,38.57,0.0,69.696,35.178,126.908905,,155.41674925198149,,75.551605,,0 / 20,3254,2014-12-14 14:15:57:062
1.186,-9.3675,-3.7948,-1.0966,-9.644,-1.4004,0.6997,0.79,-2.3587,-10.95,44.84,19.2,288.74,78.07,127.16,0.0,69.696,35.178,126.908905,,155.41674925198149,,75.551605,,0 / 20,3304,2014-12-14 14:15:57:112
-1.2279,-9.1376,-1.5725,-1.1143,-9.629,-1.487,-0.1704,0.5267,0.1162,-10.57,41.15,22.7,260.79,79.55,141.94,0.0,69.696,35.178,126.908905,,155.41674925198149,,75.551605,,0 / 20,3354,2014-12-14 14:15:57:162
-0.7873,-9.674,-0.8828,-1.0933,-9.6409,-1.4239,0.3259,-0.0318,0.4065,-6.88,38.96,26.2,247.77,78.99,142.75,0.0,70.515,35.178,126.908905,,155.41674925198149,,75.551605,,0 / 20,3404,2014-12-14 14:15:57:212
0.2473,-9.3867,-1.7832,-0.8768,-9.6535,-1.4869,2.2517,-0.0385,-0.7847,-3.88,38.59,28.95,247.77,78.99,142.75,0.0,70.515,35.178,126.908905,,155.41674925198149,,75.551605,,0 / 20,3454,2014-12-14 14:15:57:262
-0.0401,-9.5399,-0.5571,-0.528,-9.6992,-1.3481,0.1446,0.0847,0.7424,-1.32,37.84,30.08,220.88,79.86,149.47,0.0,70.515,35.178,126.908905,,155.41674925198149,,75.551605,,0 / 20,3504,2014-12-14 14:15:57:312
-1.1513,-9.425,-0.2697,-0.5947,-9.7114,-1.2269,-0.4777,-0.0905,0.9069,0.49,34.9,30.51,205.8,81.51,158.61,0.0,70.515,35.178,126.908905,,155.41674925198149,,75.551605,,0 / 20,3554,2014-12-14 14:15:57:362
-1.5919,-9.674,-0.9211,-0.6472,-9.7115,-1.1989,-0.7436,-0.2174,0.3621,1.99,34.15,31.83,205.8,81.51,158.61,0.0,70.515,35.178,126.908905,,155.41674925198149,,75.551605,,0 / 20,3604,2014-12-14 14:15:57:412
0.6304,-10.0764,-1.3426,-0.5881,-9.7137,-1.2122,1.0122,-0.2885,-0.0887,4.24,34.53,29.82,204.86,82.01,151.64,0.0,70.515,35.178,126.908905,,155.41674925198149,,75.551605,,0 / 20,3654,2014-12-14 14:15:57:462
6.9144,-15.1725,0.2476,-0.3907,-9.7265,-1.0157,6.0853,-4.2578,1.214,7.93,33.4,29.82,183.81,82.67,161.81,0.0,70.515,35.178,126.908905,,155.41674925198149,,75.551605,,0 / 20,3705,2014-12-14 14:15:57:513
4.9794,-14.5594,4.9796,0.8889,-9.7573,-0.4185,3.2112,-3.3985,5.6061,9.37,37.09,26.26,183.81,82.67,161.81,0.0,66.428,35.178,126.908905,,155.41674925198149,,75.551605,,0 / 20,3754,2014-12-14 14:15:57:562
1.3968,-11.0343,-0.9019,0.854,-9.769,-0.0932,-0.3978,-1.9811,5.1559,8.62,38.96,24.45,85.89,84.25,-115.21,0.0,66.428,35.178,126.908905,,155.41674925198149,,75.551605,,0 / 20,3804,2014-12-14 14:15:57:612
-4.6189,-15.8047,-1.9365,0.2191,-9.7858,-0.6008,-4.658,-3.6511,-1.4268,0.87,41.9,17.83,152.74,86.26,-159.96,0.0,66.428,35.178,126.908905,,155.41674925198149,,75.551605,,0 / 20,3854,2014-12-14 14:15:57:662
-1.9751,-12.9884,-3.4883,-0.1091,-9.7775,-0.7482,-2.221,-2.438,-1.7293,-1.7,41.15,13.51,152.74,86.26,-159.96,0.0,66.428,35.178,126.908905,,155.41674925198149,,75.551605,,0 / 20,3904,2014-12-14 14:15:57:712
-1.0555,-10.0764,-4.3504,-0.2993,-9.7456,-1.0507,-1.5021,0.3346,-2.9268,-5.01,43.03,9.64,227.62,85.58,171.7,0.0,66.428,35.178,126.908905,,155.41674925198149,,75.551605,,0 / 20,3954,2014-12-14 14:15:57:762
-3.4694,-5.3251,-3.8523,-0.3666,-9.6981,-1.4083,-0.4564,3.2976,-2.6971,-7.57,41.9,7.89,227.62,85.58,171.7,0.0,66.428,35.178,126.908905,,155.41674925198149,,75.551605,,0 / 20,4004,2014-12-14 14:15:57:812
-4.2166,-3.2943,-4.4271,-1.1193,-9.5027,-2.1484,-3.0097,6.88,-2.1313,-13.51,41.15,3.95,293.14,81.47,165.41,0.0,66.428,35.178,126.908905,,155.41674925198149,,75.551605,,0 / 20,4054,2014-12-14 14:15:57:862
-5.3086,-1.072,-5.3083,-1.3896,-9.4073,-2.3965,-3.1773,7.1977,-2.2282,-15.32,40.78,2.64,314.16,75.7,152.48,0.0,68.953,35.178,126.908905,,155.41674925198149,,75.551605,,0 / 20,4104,2014-12-14 14:15:57:912
-5.0021,-6.9344,0.7074,-2.6672,-8.9372,-3.0303,-2.9878,2.7797,2.8136,-13.13,37.46,5.7,318.21,68.28,146.04,0.0,68.953,35.178,126.908905,,155.41674925198149,,75.551605,,0 / 20,4154,2014-12-14 14:15:57:962
17.7963,-26.246,30.5943,-0.6935,-9.779,0.2451,20.8773,-17.8005,30.6076,-13.13,37.84,3.51,318.21,68.28,146.04,0.0,68.953,35.178,126.908905,,155.41674925198149,,75.551605,,0 / 20,4204,2014-12-14 14:15:58:012
-3.1629,-8.5245,5.5352,-0.5271,-9.6918,1.4008,-2.5483,1.2023,4.1413,-13.51,38.59,4.26,2.94,85.7,70.53,0.0,68.953,35.178,126.908905,,155.41674925198149,,75.551605,,0 / 20,4254,2014-12-14 14:15:58:062
2.757,-26.495,1.4162,-0.7959,-9.7553,0.6085,-4.1711,6.5751,-14.7554,-12.01,36.71,2.51,18.02,84.14,52.6,0.0,68.953,35.178,126.908905,,155.41674925198149,,75.551605,,0 / 20,4304,2014-12-14 14:15:58:112
-3.4503,-3.984,-8.7185,-1.145,-9.7196,-0.624,-11.9249,10.2877,-13.4833,-12.38,37.46,3.08,18.02,84.14,52.6,0.0,68.953,35.178,126.908905,,155.41674925198149,,75.551605,,0 / 20,4354,2014-12-14 14:15:58:162
3.6575,-14.5786,0.6116,-1.8644,-9.5344,-1.3379,-9.4072,7.9268,-9.6168,-10.57,36.03,6.14,328.9,82.36,118.59,0.0,68.953,35.178,126.908905,,155.41674925198149,,75.551605,,0 / 20,4404,2014-12-14 14:15:58:212
-0.8064,-9.1184,-3.4692,-0.9441,-9.6328,-1.5774,1.5905,0.7509,-2.575,-8.7,34.15,8.33,301.52,78.85,134.53,0.0,66.468,35.178,126.908905,,155.41674925198149,,75.551605,,0 / 20,4455,2014-12-14 14:15:58:263
-1.362,-8.7736,-1.0169,-0.9446,-9.622,-1.6418,0.0322,0.5524,-0.8551,-6.88,33.4,11.95,268.07,78.86,150.09,0.0,66.468,35.178,126.908905,,155.41674925198149,,75.551605,,0 / 20,4504,2014-12-14 14:15:58:312
-0.6149,-9.2909,-1.7066,-1.0476,-9.6357,-1.4923,0.2012,0.2942,0.2876,-6.13,31.96,12.2,268.07,78.86,150.09,0.0,66.468,35.178,126.908905,,155.41674925198149,,75.551605,,0 / 20,4554,2014-12-14 14:15:58:362
1.301,-9.6549,-2.4921,-0.9839,-9.6307,-1.5659,2.4292,-0.0782,-0.6959,-2.82,27.9,17.45,255.92,79.29,144.93,0.0,66.468,35.178,126.908905,,155.41674925198149,,75.551605,,0 / 20,4604,2014-12-14 14:15:58:412
-0.9214,-8.8502,-1.8982,-0.4271,-9.6637,-1.6125,2.0477,0.1421,0.2516,-0.57,31.21,17.01,213.34,80.03,160.45,0.0,66.468,35.178,126.908905,,155.41674925198149,,75.551605,,0 / 20,4654,2014-12-14 14:15:58:462
-1.4003,-9.3675,-0.7487,-0.4942,-9.6645,-1.5884,-0.9039,0.6164,0.4396,0.18,29.34,20.51,213.34,80.03,160.45,0.0,66.468,35.178,126.908905,,155.41674925198149,,75.551605,,0 / 20,4704,2014-12-14 14:15:58:512
0.094,-10.2871,-0.5762,-0.431,-9.7138,-1.2756,0.4656,-0.5469,0.6068,2.74,25.65,20.51,195.44,80.23,162.72,0.0,69.27,35.178,126.908905,,155.41674925198149,,75.551605,,0 / 20,4754,2014-12-14 14:15:58:562
-0.2892,-12.088,-1.5533,-0.4118,-9.7137,-1.2823,0.2571,-0.2528,-0.1275,3.87,23.84,21.14,189.42,82.11,161.33,0.0,69.27,35.178,126.908905,,155.41674925198149,,75.551605,,0 / 20,4804,2014-12-14 14:15:58:612
1.3776,-13.1608,-0.5379,0.1153,-9.7361,-1.1685,4.8544,-3.7145,0.6195,5.68,21.59,21.83,178.85,82.07,165.73,0.0,69.27,35.178,126.908905,,155.41674925198149,,75.551605,,0 / 20,4854,2014-12-14 14:15:58:662
5.2284,-14.3678,5.3245,0.5609,-9.7389,-1.0047,6.894,-4.5821,1.9708,6.8,22.71,20.83,178.85,82.07,165.73,0.0,69.27,35.178,126.908905,,155.41674925198149,,75.551605,,0 / 20,4904,2014-12-14 14:15:58:712
-0.4233,-12.2221,1.5503,0.6729,-9.7799,-0.2658,-1.6159,0.3698,-1.6799,4.24,26.03,19.64,126.02,83.26,-150.83,0.0,69.27,35.178,126.908905,,155.41674925198149,,75.551605,,0 / 20,4954,2014-12-14 14:15:58:762
-3.0288,-15.6323,-2.358,0.2566,-9.779,-0.6897,-3.6762,-2.1668,-3.5696,3.12,28.21,15.64,88.22,85.77,-111.55,0.0,69.27,35.178,126.908905,,155.41674925198149,,75.551605,,0 / 20,5014,2014-12-14 14:15:58:822
-2.2625,-13.6781,-3.6607,-0.1658,-9.7584,-0.9577,-2.0574,-1.8199,-2.066,0.18,29.34,15.82,156.41,85.7,-159.59,0.0,69.27,35.178,126.908905,,155.41674925198149,,75.551605,,0 / 20,5054,2014-12-14 14:15:58:862
-1.9176,-11.36,-4.178,-0.2635,-9.7422,-1.0911,-1.7173,-1.0003,-2.4392,-3.57,30.46,15.01,156.41,85.7,-159.59,0.0,68.654,35.178,126.908905,,155.41674925198149,,75.551605,,0 / 20,5104,2014-12-14 14:15:58:912
-4.025,-5.8424,-3.2584,-0.7507,-9.632,-1.6827,-2.8293,5.0291,-1.433,-7.57,34.15,11.51,232.01,83.43,166.42,0.0,68.654,35.178,126.908905,,155.41674925198149,,75.551605,,0 / 20,5154,2014-12-14 14:15:58:962
-4.4848,-4.1373,-3.2393,-0.9835,-9.5875,-1.8121,-3.2675,5.6061,-1.1714,-10.95,31.96,7.45,287.78,79.17,155.96,0.0,68.654,35.178,126.908905,,155.41674925198149,,75.551605,,0 / 20,5204,2014-12-14 14:15:59:012
-4.6381,-2.8728,-3.8906,-1.4893,-9.4564,-2.1282,-3.0607,6.6327,-1.4137,-10.95,32.65,8.76,287.78,79.17,155.96,0.0,68.654,35.178,126.908905,,155.41674925198149,,75.551605,,0 / 20,5255,2014-12-14 14:15:59:063
-3.5269,-2.8537,-3.1243,-2.2103,-9.1217,-2.8423,-1.9685,6.2437,-2.0742,-12.38,32.34,10.89,296.81,74.64,145.02,0.0,68.654,35.178,126.908905,,155.41674925198149,,75.551605,,0 / 20,5304,2014-12-14 14:15:59:112
20.8233,-25.9777,30.7475,-2.5071,-9.117,-2.6009,-1.1614,-0.4781,4.4835,-11.32,33.09,12.14,300.85,68.46,142.13,0.0,68.654,35.178,126.908905,,155.41674925198149,,75.551605,,0 / 20,5354,2014-12-14 14:15:59:162
-2.1667,-9.6357,6.2249,0.1813,-9.6028,1.9806,4.9583,-5.8713,12.702,-13.51,32.34,11.95,41.59,78.3,-5.23,0.0,68.654,35.178,126.908905,,155.41674925198149,,75.551605,,0 / 20,5404,2014-12-14 14:15:59:212
-8.5081,-11.973,-2.4346,-0.1583,-9.5904,2.0418,-3.2228,1.6374,-2.791,-13.13,30.46,11.76,41.59,78.3,-5.23,0.0,63.788,35.178,126.908905,,155.41674925198149,,75.551605,,0 / 20,5454,2014-12-14 14:15:59:262
2.5846,-4.7695,-9.1208,-0.6999,-9.7289,1.014,-4.4894,-5.4455,-1.8753,-13.13,30.46,10.45,14.57,78.38,32.83,0.0,63.788,35.178,126.908905,,155.41674925198149,,75.551605,,0 / 20,5504,2014-12-14 14:15:59:312
-3.6802,-11.2259,-4.178,-1.4546,-9.6723,-0.7082,-3.8689,0.9488,-4.6895,-12.01,29.34,15.26,295.53,80.5,115.96,0.0,63.788,35.178,126.908905,,155.41674925198149,,75.551605,,0 / 20,5554,2014-12-14 14:15:59:362
3.2743,-10.4978,-2.4346,-1.0485,-9.7243,-0.7131,4.5501,-1.6476,0.1466,-9.82,29.03,16.83,295.53,80.5,115.96,0.0,63.788,35.178,126.908905,,155.41674925198149,,75.551605,,0 / 20,5604,2014-12-14 14:15:59:412
-0.4999,-9.2334,-1.2276,-0.8166,-9.7075,-1.1258,-0.2195,1.1196,-0.3486,-8.7,28.21,17.45,261.29,82.74,136.67,0.0,63.788,35.178,126.908905,,155.41674925198149,,75.551605,,0 / 20,5654,2014-12-14 14:15:59:462
0.5347,-9.6549,-0.7678,-0.8374,-9.7078,-1.1078,-0.2651,0.4143,0.3078,-6.51,26.03,19.64,245.79,81.86,142.91,0.0,63.788,35.178,126.908905,,155.41674925198149,,75.551605,,0 / 20,5704,2014-12-14 14:15:59:512
0.5921,-9.3867,-2.2047,-0.7052,-9.7268,-1.0312,1.2465,0.472,-0.0877,-5.01,26.78,20.51,245.79,81.86,142.91,0.0,69.807,35.178,126.908905,,155.41674925198149,,75.551605,,0 / 20,5754,2014-12-14 14:15:59:562
0.4772,-9.4058,-0.9019,-0.2977,-9.7308,-1.18,2.0476,0.0213,-0.084,-2.82,23.46,21.45,218.61,82.66,159.42,0.0,69.807,35.178,126.908905,,155.41674925198149,,75.551605,,0 / 20,5804,2014-12-14 14:15:59:612
-1.362,-9.1951,-0.5379,-0.4099,-9.7306,-1.148,-1.0859,0.6617,0.487,-0.57,23.84,23.57,199.0,82.87,165.84,0.0,69.807,35.178,126.908905,,155.41674925198149,,75.551605,,0 / 20,5854,2014-12-14 14:15:59:662
-0.5382,-9.0226,-0.3655,-0.469,-9.742,-1.0217,-0.114,0.6734,0.7193,-0.2,24.9,22.76,199.0,82.87,165.84,0.0,69.807,35.178,126.908905,,155.41674925198149,,75.551605,,0 / 20,5904,2014-12-14 14:15:59:712
-0.2508,-9.3483,-1.0361,-0.3132,-9.7409,-1.0896,1.2667,0.1967,-0.7137,2.74,23.09,22.26,199.26,83.42,155.34,0.0,69.807,35.178,126.908905,,155.41674925198149,,75.551605,,0 / 20,5954,2014-12-14 14:15:59:762
3.6383,-12.0497,1.0905,-0.0481,-9.7698,-0.8485,2.6078,-1.6201,1.9405,5.68,22.71,24.89,181.41,83.42,165.25,0.0,69.807,35.178,126.908905,,155.41674925198149,,75.551605,,0 / 20,6004,2014-12-14 14:15:59:812
1.0902,-14.9809,-0.7487,0.5997,-9.7752,-0.5056,4.1845,-3.3186,2.5921,6.43,24.96,22.95,181.41,83.42,165.25,0.0,69.807,35.178,126.908905,,155.41674925198149,,75.551605,,0 / 20,6054,2014-12-14 14:15:59:862
-2.7223,-15.0575,-5.0018,0.4793,-9.7714,-0.679,-2.4623,-4.3295,-3.6187,5.68,27.9,24.01,111.18,85.41,-130.13,0.0,66.715,35.178,126.908905,,155.41674925198149,,75.551605,,0 / 20,6104,2014-12-14 14:15:59:912
-5.3278,-15.1725,-3.8523,-0.1799,-9.7274,-1.2309,-4.989,-1.7939,-3.6235,1.99,29.71,24.45,111.18,85.41,-130.13,0.0,66.715,35.178,126.908905,,155.41674925198149,,75.551605,,0 / 20,6154,2014-12-14 14:15:59:962
-3.5269,-11.1301,-4.7719,-0.9062,-9.6413,-1.5477,-3.3295,-1.3173,-2.0942,-2.07,33.78,19.7,190.1,82.71,171.68,0.0,66.715,35.178,126.908905,,155.41674925198149,,75.551605,,0 / 20,6204,2014-12-14 14:16:00:012
-2.454,-9.0418,-4.4654,-1.1043,-9.5665,-1.853,-1.0279,1.6899,-2.3591,-3.88,34.53,18.33,241.25,79.46,149.65,0.0,66.715,35.178,126.908905,,155.41674925198149,,75.551605,,0 / 20,6254,2014-12-14 14:16:00:062
-3.6035,-5.3826,-3.1243,-1.77,-9.3526,-2.3594,-2.1302,4.8391,-0.7586,-8.7,37.84,16.83,272.65,75.09,146.86,0.0,66.715,35.178,126.908905,,155.41674925198149,,75.551605,,0 / 20,6304,2014-12-14 14:16:00:112
-1.2854,-6.5321,-1.879,-1.8571,-9.3087,-2.4637,0.6419,3.346,0.6723,-10.2,37.46,15.82,272.65,75.09,146.86,0.0,66.715,35.178,126.908905,,155.41674925198149,,75.551605,,0 / 20,6354,2014-12-14 14:16:00:162
-1.2854,-7.6624,0.784,-1.7587,-9.4173,-2.0957,1.0898,2.2289,2.669,-13.13,36.03,16.14,290.05,72.14,143.1,0.0,69.23,35.178,126.908905,,155.41674925198149,,75.551605,,0 / 20,6404,2014-12-14 14:16:00:212
-1.8793,-8.6203,0.3625,-1.7836,-9.4687,-1.8257,0.9778,1.1394,0.9997,-13.51,37.09,16.14,288.9,73.8,140.0,0.0,69.23,35.178,126.908905,,155.41674925198149,,75.551605,,0 / 20,6454,2014-12-14 14:16:00:262
-4.0059,-16.3986,5.2862,-1.6438,-9.5403,-1.5655,0.9904,-1.711,2.6019,-13.51,34.9,18.08,288.9,73.8,140.0,0.0,69.23,35.178,126.908905,,155.41674925198149,,75.551605,,0 / 20,6504,2014-12-14 14:16:00:312
-1.5153,-6.1489,-1.8215,-1.7074,-9.6365,-0.6269,-0.8934,-5.6351,6.8993,-12.76,36.4,16.26,285.96,76.62,133.6,0.0,69.23,35.178,126.908905,,155.41674925198149,,75.551605,,0 / 20,6554,2014-12-14 14:16:00:362
0.822,-9.4058,0.0943,-1.605,-9.6588,-0.55,1.0386,1.7554,-0.3297,-12.38,36.03,18.01,300.72,79.8,107.41,0.0,69.23,35.178,126.908905,,155.41674925198149,,75.551605,,0 / 20,6604,2014-12-14 14:16:00:412
1.7608,-11.1492,2.5657,-1.1677,-9.7335,-0.255,3.101,-1.2346,2.6811,-12.76,36.71,17.14,304.89,83.0,102.32,0.0,69.23,35.178,126.908905,,155.41674925198149,,75.551605,,0 / 20,6654,2014-12-14 14:16:00:462
0.6879,-8.9652,0.6499,-0.8482,-9.7698,0.0512,1.1869,0.987,0.7863,-13.51,36.03,17.01,318.24,85.03,86.55,0.0,57.843,35.178,126.908905,,155.41674925198149,,75.551605,,0 / 20,6704,2014-12-14 14:16:00:512
0.6879,-10.3829,1.6461,-0.6445,-9.7832,0.2118,1.3747,-0.4647,1.3463,-14.63,34.53,17.26,318.24,85.03,86.55,0.0,57.843,35.178,126.908905,,155.41674925198149,,75.551605,,0 / 20,6754,2014-12-14 14:16:00:562
-0.8448,-9.1951,-0.1739,-0.5611,-9.7861,0.2961,-0.1234,0.6774,-0.3059,-13.88,34.15,16.76,341.21,86.29,60.06,0.0,57.843,35.178,126.908905,,155.41674925198149,,75.551605,,0 / 20,6804,2014-12-14 14:16:00:612
-0.4807,-9.8848,0.8223,-0.583,-9.7851,0.2866,-0.0185,-0.1143,0.0256,-14.63,34.9,17.01,339.6,86.2,63.82,0.0,57.843,35.178,126.908905,,155.41674925198149,,75.551605,,0 / 20,6854,2014-12-14 14:16:00:662
0.4772,-9.425,0.4966,-0.5015,-9.7871,0.3625,0.8922,0.1721,0.2581,-13.88,35.65,17.2,339.6,86.2,63.82,0.0,57.843,35.178,126.908905,,155.41674925198149,,75.551605,,0 / 20,6904,2014-12-14 14:16:00:712
1.1286,-9.9231,1.0714,-0.3378,-9.7928,0.3955,1.26,0.1352,0.2567,-13.51,34.53,17.45,346.63,86.38,54.14,0.0,57.843,35.178,126.908905,,155.41674925198149,,75.551605,,0 / 20,6954,2014-12-14 14:16:00:762
0.573,-9.5399,0.8606,-0.0877,-9.7933,0.5046,0.9133,0.0799,0.4333,-14.26,34.15,18.76,24.75,87.01,9.85,0.0,57.843,35.178,126.908905,,155.41674925198149,,75.551605,,0 / 20,7004,2014-12-14 14:16:00:812
0.0748,-9.5016,0.2284,-0.0278,-9.7923,0.5298,0.3575,0.064,0.0947,-12.76,35.28,18.76,24.75,87.01,9.85,0.0,61.002,35.178,126.908905,,155.41674925198149,,75.551605,,0 / 20,7054,2014-12-14 14:16:00:862
-0.1359,-9.8273,0.2667,-0.0121,-9.7939,0.4993,0.0256,0.0435,-0.2182,-12.76,35.65,19.7,27.87,86.9,3.0,0.0,61.002,35.178,126.908905,,155.41674925198149,,75.551605,,0 / 20,7104,2014-12-14 14:16:00:912
0.1706,-9.6932,0.1326,-0.0128,-9.7964,0.4478,0.0538,-0.032,-0.2318,-13.88,36.4,18.45,34.12,87.18,1.29,0.0,61.002,35.178,126.908905,,155.41674925198149,,75.551605,,0 / 20,7154,2014-12-14 14:16:00:962
0.573,-9.674,0.2667,0.075,-9.7982,0.4007,0.5717,-0.0336,-0.1047,-12.76,35.65,19.01,34.12,87.18,1.29,0.0,61.002,35.178,126.908905,,155.41674925198149,,75.551605,,0 / 20,7204,2014-12-14 14:16:01:012
0.4772,-9.6357,0.0751,0.1536,-9.7984,0.3718,0.3187,0.0544,-0.2056,-13.88,33.78,18.01,43.27,87.62,-10.6,0.0,61.002,35.178,126.908905,,155.41674925198149,,75.551605,,0 / 20,7254,2014-12-14 14:16:01:062
0.4389,-9.789,0.42,0.1927,-9.798,0.3647,0.2426,-0.0891,0.0089,-14.63,33.03,17.89,59.41,87.65,-22.44,0.0,61.002,35.178,126.908905,,155.41674925198149,,75.551605,,0 / 20,7304,2014-12-14 14:16:01:112
0.5155,-9.5974,-0.0781,0.2236,-9.7976,0.3574,0.1661,0.0394,-0.1245,-13.51,34.9,19.39,59.41,87.65,-22.44,0.0,61.002,35.178,126.908905,,155.41674925198149,,75.551605,,0 / 20,7354,2014-12-14 14:16:01:162
0.3431,-9.674,0.0943,0.2582,-9.7988,0.2951,0.0654,0.0595,-0.2711,-14.26,34.53,19.39,71.93,87.64,-38.86,0.0,52.425,35.178,126.908905,,155.41674925198149,,75.551605,,0 / 20,7404,2014-12-14 14:16:01:212
0.5921,-9.5399,-0.2314,0.2755,-9.7993,0.2615,0.0948,0.0462,-0.2089,-13.13,34.15,18.83,72.36,87.71,-41.19,0.0,52.425,35.178,126.908905,,155.41674925198149,,75.551605,,0 / 20,7454,2014-12-14 14:16:01:262
0.6496,-9.7315,-0.1548,0.3385,-9.7993,0.172,0.3099,-0.0129,-0.4359,-12.01,33.4,19.14,72.36,87.71,-41.19,0.0,52.425,35.178,126.908905,,155.41674925198149,,75.551605,,0 / 20,7504,2014-12-14 14:16:01:312
-0.0976,-9.2717,-0.5954,0.3445,-9.7996,0.1379,-0.0992,-0.0274,-0.0679,-11.32,33.03,20.51,87.62,87.78,-63.07,0.0,52.425,35.178,126.908905,,155.41674925198149,,75.551605,,0 / 20,7554,2014-12-14 14:16:01:362
0.8029,-9.9039,-0.0973,0.2903,-9.8021,0.0686,-0.3345,0.437,-0.5561,-10.95,31.96,23.51,99.24,88.26,-76.71,0.0,52.425,35.178,126.908905,,155.41674925198149,,75.551605,,0 / 20,7604,2014-12-14 14:16:01:412
0.1515,-10.0764,0.1709,0.3422,-9.8007,0.0128,0.0123,-0.29,-0.1441,-9.45,33.03,23.83,99.24,88.26,-76.71,0.0,52.425,35.178,126.908905,,155.41674925198149,,75.551605,,0 / 20,7654,2014-12-14 14:16:01:462
-0.1359,-10.038,0.4008,0.2914,-9.8021,0.0584,-0.399,-0.3335,0.3733,-9.45,33.78,23.64,105.85,88.0,-87.86,0.0,71.047,35.178,126.908905,,155.41674925198149,,75.551605,,0 / 20,7704,2014-12-14 14:16:01:512
0.9178,-9.5974,0.5349,0.3529,-9.7999,0.0863,0.5791,0.1137,0.0804,-10.57,33.4,24.08,96.89,88.29,-74.39,0.0,71.047,35.178,126.908905,,155.41674925198149,,75.551605,,0 / 20,7754,2014-12-14 14:16:01:562
0.573,-9.9422,-0.0973,0.3529,-9.7999,0.0863,0.5791,0.1137,0.0804,-11.32,32.34,21.01,96.89,88.29,-74.39,0.0,71.047,35.178,126.908905,,155.41674925198149,,75.551605,,0 / 20,7804,2014-12-14 14:16:01:612