ACCELEROMETER X (m/s²),ACCELEROMETER Y (m/s²),ACCELEROMETER Z (m/s²),GRAVITY X (m/s²),GRAVITY Y (m/s²),GRAVITY Z (m/s²),LINEAR ACCELERATION X (m/s²),LINEAR ACCELERATION Y (m/s²),LINEAR ACCELERATION Z (m/s²),MAGNETIC FIELD X (μT),MAGNETIC FIELD Y (μT),MAGNETIC FIELD Z (μT),ORIENTATION X (°),ORIENTATION Y (°),ORIENTATION Z (°),PROXIMITY (i),SOUND LEVEL (dB),LOCATION Latitude : ,LOCATION Longitude : ,LOCATION Altitude ( m),LOCATION Altitude-google ( m),LOCATION Speed ( Kmh),LOCATION Accuracy ( m),LOCATION ORIENTATION (°),Satellites in range,Time since start in ms ,YYYY-MO-DD HH-MI-SS_SSS
1.0902,-9.3292,-0.4422,0.401,-9.7881,0.4492,0.4867,0.0102,-1.5176,-9.07,31.9,0.95,113.14,86.25,-36.71,0.0,71.52,35.178017,126.90887,,155.97029321607747,,67.741936,,0 / 20,5,2014-12-14 14:16:29:025
0.6496,-9.5016,0.2092,0.4336,-9.7893,0.3899,0.4393,0.2823,-0.834,-8.32,33.03,0.45,126.62,86.59,-48.04,0.0,71.52,35.178017,126.90887,,155.97029321607747,,67.741936,,0 / 20,55,2014-12-14 14:16:29:075
-0.2892,-9.6166,0.6499,0.218,-9.782,0.6602,-0.5313,0.0564,-0.0924,-6.88,32.28,0.51,126.62,86.59,-48.04,0.0,71.52,35.178017,126.90887,,155.97029321607747,,67.741936,,0 / 20,104,2014-12-14 14:16:29:124
-0.2892,-9.6166,0.6499,0.218,-9.782,0.6602,-0.5313,0.0564,-0.0924,-6.88,32.28,0.51,126.62,86.59,-48.04,0.0,71.52,35.178017,126.90887,,155.97029321607747,,67.741936,,0 / 20,154,2014-12-14 14:16:29:174
-0.1167,-9.6549,0.6882,0.1569,-9.783,0.6618,-0.348,-0.0103,0.0186,-7.95,30.09,1.51,79.53,85.93,-18.27,0.0,70.903,35.178017,126.90887,,155.97029321607747,,67.741936,,0 / 20,205,2014-12-14 14:16:29:225
0.4772,-9.7124,0.8223,0.1902,-9.7791,0.7101,0.2894,-0.0266,0.0971,-5.01,34.15,1.26,79.53,85.93,-18.27,0.0,70.903,35.178017,126.90887,,155.97029321607747,,67.741936,,0 / 20,254,2014-12-14 14:16:29:274
1.2627,-9.8848,1.4162,0.3586,-9.7641,0.8389,0.7771,-0.1828,0.5077,-6.13,31.9,0.64,67.12,85.7,-15.0,0.0,70.903,35.178017,126.90887,,155.97029321607747,,67.741936,,0 / 20,304,2014-12-14 14:16:29:324
1.9715,-10.6703,1.9335,0.5228,-9.7473,0.9417,1.3122,-0.7917,0.91,-5.01,33.03,1.26,67.88,84.66,-23.14,0.0,70.903,35.178017,126.90887,,155.97029321607747,,67.741936,,0 / 20,354,2014-12-14 14:16:29:374
1.1094,-10.7277,1.8568,0.6134,-9.7284,1.0733,0.4388,-0.7655,0.9942,-5.01,29.71,0.95,65.72,82.76,-29.75,0.0,70.903,35.178017,126.90887,,155.97029321607747,,67.741936,,0 / 20,404,2014-12-14 14:16:29:424
2.872,-11.3025,1.2821,0.979,-9.6998,1.0608,2.2663,-0.8496,-0.9743,-6.51,30.46,1.95,65.72,82.76,-29.75,0.0,70.903,35.178017,126.90887,,155.97029321607747,,67.741936,,0 / 20,454,2014-12-14 14:16:29:474
0.1323,-10.4595,-1.6874,1.0139,-9.7093,0.9337,0.5398,-0.4118,-1.8357,-6.51,31.59,1.08,82.74,81.54,-42.7,0.0,70.903,35.178017,126.90887,,155.97029321607747,,67.741936,,0 / 20,504,2014-12-14 14:16:29:524
-1.5536,-10.1913,1.627,0.6959,-9.7566,0.7034,-1.4377,0.0245,0.3088,-6.13,31.21,-0.24,107.31,83.87,-49.34,0.0,63.253,35.178017,126.90887,,155.97029321607747,,67.741936,,0 / 20,554,2014-12-14 14:16:29:574
-1.5919,-9.5208,0.9947,0.4077,-9.7665,0.787,-2.0649,0.3661,0.3629,-7.26,30.46,-0.86,107.31,83.87,-49.34,0.0,63.253,35.178017,126.90887,,155.97029321607747,,67.741936,,0 / 20,604,2014-12-14 14:16:29:624
0.2281,-7.8732,0.3433,0.2344,-9.775,0.7512,-0.2733,2.2392,-0.4209,-7.2,28.21,-1.99,103.48,84.81,-27.39,0.0,63.253,35.178017,126.90887,,155.97029321607747,,67.741936,,0 / 20,654,2014-12-14 14:16:29:674
-0.4424,-6.762,0.0943,0.1967,-9.7781,0.7217,-0.579,2.6663,-0.611,-7.2,28.21,-1.99,103.48,84.81,-27.39,0.0,63.253,35.178017,126.90887,,155.97029321607747,,67.741936,,0 / 20,704,2014-12-14 14:16:29:724
-0.3275,-6.8003,1.0522,0.0746,-9.7812,0.7022,-0.3906,2.2957,-0.0152,-6.13,28.96,-2.42,103.95,85.63,-15.24,0.0,63.253,35.178017,126.90887,,155.97029321607747,,67.741936,,0 / 20,754,2014-12-14 14:16:29:774
1.0711,-8.2563,2.1634,0.0832,-9.7655,0.8937,0.209,1.0587,1.3621,-6.51,27.15,-1.55,96.57,85.87,-6.07,0.0,63.253,35.178017,126.90887,,155.97029321607747,,67.741936,,0 / 20,804,2014-12-14 14:16:29:824
1.3585,-8.697,2.604,0.2085,-9.7423,1.102,0.9317,0.3768,1.2458,-6.51,27.84,0.64,96.57,85.87,-6.07,0.0,62.763,35.178017,126.90887,,155.97029321607747,,67.741936,,0 / 20,854,2014-12-14 14:16:29:874
4.3855,-11.6857,5.631,0.6913,-9.6264,1.7392,2.9026,-2.4453,3.772,-5.38,26.4,1.33,62.7,80.81,-17.96,0.0,62.763,35.178017,126.90887,,155.97029321607747,,67.741936,,0 / 20,904,2014-12-14 14:16:29:924
1.4542,-9.6549,3.9068,1.1471,-9.4428,2.3851,0.3717,0.4666,1.7152,-5.76,27.84,1.82,46.48,75.9,-26.63,0.0,62.763,35.178017,126.90887,,155.97029321607747,,67.741936,,0 / 20,954,2014-12-14 14:16:29:974
-0.0018,-7.6432,-0.3655,1.0989,-9.4648,2.3196,-0.8545,1.269,-1.2984,-5.01,24.53,3.51,46.48,75.9,-26.63,0.0,62.763,35.178017,126.90887,,155.97029321607747,,67.741936,,0 / 20,1004,2014-12-14 14:16:30:024
0.1898,-5.8232,-9.3124,0.4714,-9.5312,2.2595,-2.9697,-8.1809,5.3127,-3.88,27.53,4.2,26.24,76.39,-11.78,0.0,62.763,35.178017,126.90887,,155.97029321607747,,67.741936,,0 / 20,1054,2014-12-14 14:16:30:074
-9.5043,-1.2827,-13.4123,-0.4169,-9.7861,0.4783,-3.2079,2.5491,-4.1226,-4.63,26.4,7.33,26.24,76.39,-11.78,0.0,62.763,35.178017,126.90887,,155.97029321607747,,67.741936,,0 / 20,1104,2014-12-14 14:16:30:124
-1.841,-9.0993,-3.6607,-0.1931,-9.8035,0.1545,0.2411,-1.5854,-3.0741,-2.45,26.03,7.7,337.41,86.29,41.08,0.0,62.763,35.178017,126.90887,,155.97029321607747,,67.741936,,0 / 20,1154,2014-12-14 14:16:30:174
0.1323,-8.9652,-2.3963,-0.2239,-9.8014,-0.2311,0.563,0.6999,-2.0534,-1.7,24.15,9.33,337.41,86.29,41.08,0.0,66.696,35.178017,126.90887,,155.97029321607747,,67.741936,,0 / 20,1204,2014-12-14 14:16:30:224
1.9907,-10.7277,-0.3464,-0.3046,-9.7906,-0.4706,-0.7612,0.139,-1.064,1.24,22.34,13.33,227.59,88.12,135.9,0.0,66.696,35.178017,126.90887,,155.97029321607747,,67.741936,,0 / 20,1254,2014-12-14 14:16:30:274
-0.27,-8.8311,-2.7411,-0.008,-9.7873,-0.6152,0.6515,0.4058,-1.7222,1.62,23.09,13.26,170.99,86.4,179.26,0.0,66.696,35.178017,126.90887,,155.97029321607747,,67.741936,,0 / 20,1304,2014-12-14 14:16:30:324
-0.7298,-9.061,-2.0323,-0.0838,-9.7687,-0.8584,-0.6992,0.4988,-1.3463,3.12,23.46,12.83,170.99,86.4,179.26,0.0,66.696,35.178017,126.90887,,155.97029321607747,,67.741936,,0 / 20,1354,2014-12-14 14:16:30:374
-0.8256,-9.3292,-1.4767,-0.3743,-9.7473,-1.0098,-1.6367,0.4858,-0.2162,4.24,21.96,13.2,166.53,84.95,174.42,0.0,66.696,35.178017,126.90887,,155.97029321607747,,67.741936,,0 / 20,1404,2014-12-14 14:16:30:424
-0.9789,-9.4633,-2.3005,-0.4131,-9.7367,-1.0939,-1.0102,0.0751,-1.028,6.8,20.09,15.45,174.9,83.15,159.31,0.0,66.696,35.178017,126.90887,,155.97029321607747,,67.741936,,0 / 20,1454,2014-12-14 14:16:30:474
1.2052,-11.8964,-1.0361,-0.5991,-9.7163,-1.1854,-1.5143,0.0537,-0.2283,7.18,19.78,16.14,174.9,83.15,159.31,0.0,66.696,35.178017,126.90887,,155.97029321607747,,67.741936,,0 / 20,1504,2014-12-14 14:16:30:524
2.5271,-12.1071,-1.0169,-0.5032,-9.7281,-1.1322,1.2036,-1.9052,0.2451,9.37,20.15,15.51,176.98,82.22,153.19,0.0,67.711,35.178017,126.90887,,155.97029321607747,,67.741936,,0 / 20,1554,2014-12-14 14:16:30:574
2.6804,-13.7356,-0.4805,0.0352,-9.7522,-1.0311,2.301,-3.1779,0.5163,13.05,21.21,15.89,134.39,83.96,-178.04,0.0,67.711,35.178017,126.90887,,155.97029321607747,,67.741936,,0 / 20,1604,2014-12-14 14:16:30:624
-1.2662,-13.5823,2.5082,0.775,-9.7759,-0.0458,-1.9858,-2.7978,4.9496,11.62,21.96,13.76,134.39,83.96,-178.04,0.0,67.711,35.178017,126.90887,,155.97029321607747,,67.741936,,0 / 20,1655,2014-12-14 14:16:30:675
-3.5461,-13.0076,-4.178,0.5209,-9.7885,-0.2912,-2.6792,-0.5545,-3.7622,9.37,26.03,11.95,50.51,85.46,-93.38,0.0,67.711,35.178017,126.90887,,155.97029321607747,,67.741936,,0 / 20,1704,2014-12-14 14:16:30:724
-3.5461,-13.0076,-4.178,0.5209,-9.7885,-0.2912,-2.6792,-0.5545,-3.7622,4.93,28.96,9.89,83.61,86.51,-119.21,0.0,67.711,35.178017,126.90887,,155.97029321607747,,67.741936,,0 / 20,1754,2014-12-14 14:16:30:774
-2.5115,-11.9156,-3.7757,-0.3764,-9.7662,-0.8067,-1.7965,-0.3316,-2.51,-0.2,28.96,6.7,83.61,86.51,-119.21,0.0,67.711,35.178017,126.90887,,155.97029321607747,,67.741936,,0 / 20,1804,2014-12-14 14:16:30:824
-1.2088,-8.2755,-4.5995,-0.5518,-9.7217,-1.1637,-1.0321,2.9375,-2.9979,-2.07,30.84,4.58,257.7,84.79,154.99,0.0,67.711,35.178017,126.90887,,155.97029321607747,,67.741936,,0 / 20,1854,2014-12-14 14:16:30:874
-3.8909,-3.6009,-4.4654,-0.92,-9.6082,-1.7341,-2.6874,6.1363,-2.2212,-6.51,30.84,4.58,286.86,82.45,154.63,0.0,69.669,35.178017,126.90887,,155.97029321607747,,67.741936,,0 / 20,1904,2014-12-14 14:16:30:924
-4.2549,-1.9341,-5.2317,-1.3772,-9.4518,-2.2221,-2.7594,7.4889,-2.5823,-7.57,30.84,2.39,286.86,82.45,154.63,0.0,69.669,35.178017,126.90887,,155.97029321607747,,67.741936,,0 / 20,1954,2014-12-14 14:16:30:974
-3.6993,-2.2598,-2.971,-2.1451,-9.0722,-3.0437,-2.0975,6.7196,-1.5173,-8.7,29.71,3.7,313.6,74.54,148.21,0.0,69.669,35.178017,126.90887,,155.97029321607747,,67.741936,,0 / 20,2005,2014-12-14 14:16:31:025
2.3164,-16.4178,10.1715,-2.3556,-9.1853,-2.5005,-0.6157,-2.82,6.9078,-8.32,28.96,3.26,329.26,69.49,136.71,0.0,69.669,35.178017,126.90887,,155.97029321607747,,67.741936,,0 / 20,2054,2014-12-14 14:16:31:074
26.724,-30.3841,38.6408,0.2286,-9.6769,1.5733,20.7214,-17.188,32.2985,-7.95,28.96,4.89,329.26,69.49,136.71,0.0,69.669,35.178017,126.90887,,155.97029321607747,,67.741936,,0 / 20,2104,2014-12-14 14:16:31:124
-0.4616,-5.3251,-0.8636,0.1099,-9.6009,1.9955,-1.7509,3.6788,-1.046,-9.82,28.21,3.76,56.14,80.67,-8.27,0.0,69.669,35.178017,126.90887,,155.97029321607747,,67.741936,,0 / 20,2154,2014-12-14 14:16:31:174
7.6232,-16.0154,-3.7565,-0.8967,-9.7139,1.0033,2.2527,-11.8491,7.163,-9.82,28.21,6.89,21.44,85.4,29.78,0.0,69.669,35.178017,126.90887,,155.97029321607747,,67.741936,,0 / 20,2204,2014-12-14 14:16:31:224
-17.2442,1.6485,-14.83,-1.5349,-9.6802,-0.3288,-11.0838,9.1986,-13.8736,-10.2,27.9,9.01,4.88,82.11,41.79,0.0,67.2,35.178017,126.90887,,155.97029321607747,,67.741936,,0 / 20,2254,2014-12-14 14:16:31:274
4.9027,-15.0,-1.0552,-1.605,-9.6118,-1.0986,6.2902,-4.4788,-0.1485,-8.32,26.78,13.76,300.77,80.79,102.09,0.0,67.2,35.178017,126.90887,,155.97029321607747,,67.741936,,0 / 20,2304,2014-12-14 14:16:31:324
-0.9214,-9.061,-0.9786,-1.2087,-9.6194,-1.4752,0.2867,0.7569,0.1028,-5.76,25.28,17.2,300.77,80.79,102.09,0.0,67.2,35.178017,126.90887,,155.97029321607747,,67.741936,,0 / 20,2354,2014-12-14 14:16:31:374
-2.3199,-8.8119,-1.3617,-1.3214,-9.6028,-1.487,-0.7231,0.7854,0.1218,-5.38,24.21,19.58,245.9,78.79,140.67,0.0,67.2,35.178017,126.90887,,155.97029321607747,,67.741936,,0 / 20,2404,2014-12-14 14:16:31:424
0.5155,-9.2142,-2.3771,-1.1166,-9.6161,-1.5669,1.7458,0.3479,-1.3746,-3.51,23.09,20.01,245.9,78.79,140.67,0.0,67.2,35.178017,126.90887,,155.97029321607747,,67.741936,,0 / 20,2454,2014-12-14 14:16:31:474
2.3355,-10.3446,-1.151,-0.7276,-9.6419,-1.6352,3.153,-0.7933,0.7298,-1.32,21.59,21.64,226.96,78.69,144.53,0.0,67.2,35.178017,126.90887,,155.97029321607747,,67.741936,,0 / 20,2504,2014-12-14 14:16:31:524
-1.1321,-9.5782,-0.8445,-0.552,-9.6742,-1.5084,-0.0119,0.0799,0.4772,-0.2,19.78,21.89,226.96,78.69,144.53,0.0,67.2,35.178017,126.90887,,155.97029321607747,,67.741936,,0 / 20,2554,2014-12-14 14:16:31:574
1.914,-10.5553,-0.787,-0.7852,-9.6981,-1.225,-0.648,-0.368,0.3704,0.18,20.84,23.39,203.86,80.57,159.9,0.0,68.446,35.178017,126.90887,,155.97029321607747,,67.741936,,0 / 20,2604,2014-12-14 14:16:31:624
2.0482,-11.1684,-0.6146,-0.6285,-9.7132,-1.1951,2.1727,-0.7149,0.3589,4.93,19.4,24.26,203.79,81.47,147.34,0.0,68.446,35.178017,126.90887,,155.97029321607747,,67.741936,,0 / 20,2654,2014-12-14 14:16:31:674
0.9944,-12.7394,0.0943,-0.3135,-9.7549,-0.9558,1.1269,-2.0759,0.9657,6.8,17.9,24.7,193.5,82.09,152.26,0.0,68.446,35.178017,126.90887,,155.97029321607747,,67.741936,,0 / 20,2704,2014-12-14 14:16:31:724
7.4316,-16.8009,4.0026,0.1869,-9.789,-0.5571,5.1414,-4.0985,3.6837,8.62,20.15,25.39,178.21,84.11,161.84,0.0,68.446,35.178017,126.90887,,155.97029321607747,,67.741936,,0 / 20,2754,2014-12-14 14:16:31:774
-3.2204,-15.0192,-5.5191,1.0372,-9.7473,-0.2905,0.8877,-0.6855,-5.0738,8.62,22.71,25.83,178.21,84.11,161.84,0.0,68.446,35.178017,126.90887,,155.97029321607747,,67.741936,,0 / 20,2804,2014-12-14 14:16:31:824
-4.2166,-16.935,-2.5496,0.7943,-9.7578,-0.5702,-3.7374,-3.217,-4.7664,7.55,26.4,26.89,83.36,83.69,-105.64,0.0,68.446,35.178017,126.90887,,155.97029321607747,,67.741936,,0 / 20,2854,2014-12-14 14:16:31:874
-3.5844,-14.5786,-3.3542,-0.1023,-9.7647,-0.9001,-3.4613,-0.8099,-2.1744,-2.45,38.96,22.14,178.66,85.38,-173.66,0.0,68.446,35.178017,126.90887,,155.97029321607747,,67.741936,,0 / 20,2904,2014-12-14 14:16:31:924
-1.8985,-8.2372,-4.5037,-0.3528,-9.7207,-1.2464,-1.6828,3.8041,-2.985,-6.13,41.9,18.14,178.66,85.38,-173.66,0.0,69.04,35.178017,126.90887,,155.97029321607747,,67.741936,,0 / 20,2954,2014-12-14 14:16:31:974
-1.9942,-5.8999,-4.542,-0.4821,-9.6579,-1.632,-1.1144,5.442,-2.4945,-9.82,43.78,15.64,244.23,82.41,164.2,0.0,69.04,35.178017,126.90887,,155.97029321607747,,67.741936,,0 / 20,3004,2014-12-14 14:16:32:024
-4.2741,-2.3556,-5.4041,-1.2696,-9.3582,-2.6425,-2.9643,7.0267,-2.6887,-14.26,45.21,11.51,283.55,76.82,159.18,0.0,69.04,35.178017,126.90887,,155.97029321607747,,67.741936,,0 / 20,3054,2014-12-14 14:16:32:074
-4.6381,-1.2444,-5.8831,-1.8168,-9.0605,-3.2829,-3.0288,7.4943,-2.765,-15.7,43.78,11.76,283.55,76.82,159.18,0.0,69.04,35.178017,126.90887,,155.97029321607747,,67.741936,,0 / 20,3104,2014-12-14 14:16:32:124
11.7614,-20.8433,19.2526,-2.5366,-8.9416,-3.128,-4.3026,0.8,3.8467,-15.01,44.46,14.32,304.65,67.5,151.04,0.0,69.04,35.178017,126.90887,,155.97029321607747,,67.741936,,0 / 20,3154,2014-12-14 14:16:32:174
7.0868,-19.1957,14.9611,0.4973,-9.6653,1.5827,10.1238,-10.7543,17.9435,-16.45,44.46,14.08,26.8,87.08,19.31,0.0,69.04,35.178017,126.90887,,155.97029321607747,,67.741936,,0 / 20,3204,2014-12-14 14:16:32:224
-0.3083,-5.2293,0.2092,0.3149,-9.6347,1.8012,-0.8736,5.4455,-0.5483,-17.2,44.84,12.64,26.8,87.08,19.31,0.0,69.04,35.178017,126.90887,,155.97029321607747,,67.741936,,0 / 20,3254,2014-12-14 14:16:32:274
-10.0599,-2.9112,-20.5392,-0.6143,-9.7871,-0.0707,-10.6619,3.2938,-17.4831,-18.32,45.96,11.2,50.5,79.25,-9.92,0.0,65.072,35.178017,126.90887,,155.97029321607747,,67.741936,,0 / 20,3304,2014-12-14 14:16:32:324
-6.8413,-27.7978,21.8389,-1.0626,-9.7262,0.6649,-7.7156,-13.9017,11.0292,-17.2,45.59,15.7,315.14,86.38,96.57,0.0,65.072,35.178017,126.90887,,155.97029321607747,,67.741936,,0 / 20,3354,2014-12-14 14:16:32:374
4.0598,-13.9655,-0.8828,-1.7455,-9.5669,-1.264,4.3213,-2.7934,0.2684,-16.07,43.4,17.58,300.01,79.78,117.35,0.0,65.072,35.178017,126.90887,,155.97029321607747,,67.741936,,0 / 20,3404,2014-12-14 14:16:32:424
-0.8831,-9.2142,-2.3771,-1.091,-9.6452,-1.3964,3.4484,1.0017,-3.8749,-12.01,42.28,21.39,300.01,79.78,117.35,0.0,65.072,35.178017,126.90887,,155.97029321607747,,67.741936,,0 / 20,3454,2014-12-14 14:16:32:474
-2.9522,-8.3713,-0.9403,-1.2163,-9.617,-1.4844,-1.5931,1.4326,0.8848,-10.2,41.15,23.89,255.82,78.93,144.43,0.0,65.072,35.178017,126.90887,,155.97029321607747,,67.741936,,0 / 20,3504,2014-12-14 14:16:32:524
1.914,-10.3446,-0.787,-1.1262,-9.6292,-1.4765,2.3865,-0.3315,0.0888,-6.51,38.96,28.7,255.82,78.93,144.43,0.0,65.072,35.178017,126.90887,,155.97029321607747,,67.741936,,0 / 20,3554,2014-12-14 14:16:32:574
2.1631,-9.789,-1.1319,-0.7217,-9.682,-1.3813,2.8407,-0.4627,1.213,-5.01,36.71,28.89,239.59,79.08,142.66,0.0,65.072,35.178017,126.90887,,155.97029321607747,,67.741936,,0 / 20,3604,2014-12-14 14:16:32:624
-2.9138,-8.9077,-0.9211,-0.4426,-9.7025,-1.3553,-0.4325,0.5283,0.2728,-0.57,35.28,30.7,203.99,81.64,161.91,0.0,70.04,35.178017,126.90887,,155.97029321607747,,67.741936,,0 / 20,3654,2014-12-14 14:16:32:674
-0.1167,-9.8273,-0.5379,-0.7764,-9.6868,-1.3167,-0.7855,-0.3976,0.2304,0.18,33.4,32.08,203.99,81.64,161.91,0.0,70.04,35.178017,126.90887,,155.97029321607747,,67.741936,,0 / 20,3704,2014-12-14 14:16:32:724
2.7379,-11.609,-0.1739,-0.5598,-9.7157,-1.2088,2.3406,-0.7474,0.7575,5.3,33.4,33.14,206.08,81.03,149.48,0.0,70.04,35.178017,126.90887,,155.97029321607747,,67.741936,,0 / 20,3754,2014-12-14 14:16:32:774
-0.6915,-12.3562,-0.9977,-0.3267,-9.735,-1.1369,0.382,-1.5608,0.0585,7.55,33.4,28.7,206.08,81.03,149.48,0.0,70.04,35.178017,126.90887,,155.97029321607747,,67.741936,,0 / 20,3804,2014-12-14 14:16:32:824
5.3817,-15.0192,5.6693,0.5209,-9.7655,-0.7308,6.6469,-4.71,3.2553,8.3,34.53,28.7,180.72,83.07,163.97,0.0,70.04,35.178017,126.90887,,155.97029321607747,,67.741936,,0 / 20,3854,2014-12-14 14:16:32:874
-0.4616,-11.36,-4.6953,0.6396,-9.7849,-0.1271,0.2466,-0.5449,-1.4488,7.18,38.21,22.95,120.29,84.75,-144.52,0.0,70.04,35.178017,126.90887,,155.97029321607747,,67.741936,,0 / 20,3904,2014-12-14 14:16:32:924
-3.2778,-13.3907,-5.3658,0.5559,-9.7833,-0.3859,-1.3462,-0.2476,-4.2218,4.55,39.71,20.83,120.29,84.75,-144.52,0.0,66.103,35.178017,126.90887,,155.97029321607747,,67.741936,,0 / 20,3954,2014-12-14 14:16:32:974
-2.7031,-14.4444,-3.5266,0.0729,-9.7832,-0.6734,-3.7428,-4.9433,-1.7033,-0.95,42.28,14.64,108.77,86.04,-124.77,0.0,66.103,35.178017,126.90887,,155.97029321607747,,67.741936,,0 / 20,4004,2014-12-14 14:16:33:024
-2.7606,-9.5591,-4.3121,-0.4419,-9.7349,-1.0988,-2.2057,1.7686,-2.6777,-7.57,43.03,10.83,242.17,85.16,167.64,0.0,66.103,35.178017,126.90887,,155.97029321607747,,67.741936,,0 / 20,4054,2014-12-14 14:16:33:074
-3.1054,-5.6508,-4.0439,-0.6274,-9.6778,-1.4552,-1.2282,4.6329,-2.5187,-7.95,41.53,9.08,242.17,85.16,167.64,0.0,66.103,35.178017,126.90887,,155.97029321607747,,67.741936,,0 / 20,4104,2014-12-14 14:16:33:124
-4.0059,-4.1756,-3.9481,-1.1958,-9.5224,-2.0159,-2.8976,6.8838,-1.9597,-13.51,40.78,5.01,293.1,80.7,156.68,0.0,66.103,35.178017,126.90887,,155.97029321607747,,67.741936,,0 / 20,4154,2014-12-14 14:16:33:174
-4.5231,-2.0874,-5.1551,-1.71,-9.3186,-2.5319,-2.8551,7.0863,-2.4991,-14.63,39.71,5.14,309.67,76.17,149.33,0.0,66.103,35.178017,126.90887,,155.97029321607747,,67.741936,,0 / 20,4204,2014-12-14 14:16:33:224
-3.9484,-1.7042,-5.0976,-2.2258,-9.0112,-3.1645,-2.1478,6.8585,-2.589,-14.63,38.21,6.2,309.67,76.17,149.33,0.0,69.113,35.178017,126.90887,,155.97029321607747,,67.741936,,0 / 20,4254,2014-12-14 14:16:33:274
22.4326,-26.974,37.6828,-1.1205,-9.7399,-0.2225,15.5169,-13.842,28.4577,-13.51,38.21,6.64,320.81,66.76,144.88,0.0,69.113,35.178017,126.90887,,155.97029321607747,,67.741936,,0 / 20,4304,2014-12-14 14:16:33:324
-3.661,-7.2218,-5.4616,0.2005,-9.6615,1.6688,17.9865,-14.2774,27.9439,-13.88,35.65,4.82,57.0,80.13,-6.85,0.0,69.113,35.178017,126.90887,,155.97029321607747,,67.741936,,0 / 20,4354,2014-12-14 14:16:33:374
-14.5621,-11.0343,-7.205,-0.2552,-9.6494,1.7306,-3.9699,2.8072,-6.3564,-13.51,37.09,6.58,39.75,79.72,8.39,0.0,69.113,35.178017,126.90887,,155.97029321607747,,67.741936,,0 / 20,4404,2014-12-14 14:16:33:424
-3.8526,-3.371,-11.9371,-0.8301,-9.7683,0.2473,0.085,5.6922,-10.601,-12.76,36.34,7.01,39.75,79.72,8.39,0.0,69.113,35.178017,126.90887,,155.97029321607747,,67.741936,,0 / 20,4454,2014-12-14 14:16:33:474
-1.2279,-10.6319,-4.6187,-1.4026,-9.6777,-0.739,-1.116,0.9865,-4.5469,-11.63,34.15,8.76,344.64,84.93,73.41,0.0,69.113,35.178017,126.90887,,155.97029321607747,,67.741936,,0 / 20,4504,2014-12-14 14:16:33:524
3.6191,-10.7661,-1.9557,-0.8554,-9.736,-0.8057,4.6857,-1.2606,-0.1046,-9.07,31.59,14.2,291.68,80.7,117.79,0.0,69.113,35.178017,126.90887,,155.97029321607747,,67.741936,,0 / 20,4554,2014-12-14 14:16:33:574
-1.9368,-8.8694,-0.9403,-0.6655,-9.7182,-1.1332,0.0788,1.3109,-2.2877,-7.95,30.09,15.51,249.4,82.3,149.58,0.0,69.935,35.178017,126.90887,,155.97029321607747,,67.741936,,0 / 20,4604,2014-12-14 14:16:33:624
-1.0363,-9.4058,-1.3809,-0.9141,-9.6979,-1.1335,-0.2418,0.6525,-0.0549,-4.63,31.21,20.14,249.4,82.3,149.58,0.0,69.935,35.178017,126.90887,,155.97029321607747,,67.741936,,0 / 20,4654,2014-12-14 14:16:33:674
2.6612,-10.0955,-0.8062,-0.6684,-9.7065,-1.2279,2.5045,0.0177,-0.4247,-2.07,30.09,19.64,235.5,81.46,141.12,0.0,69.935,35.178017,126.90887,,155.97029321607747,,67.741936,,0 / 20,4704,2014-12-14 14:16:33:724
0.8412,-9.9231,-0.8062,-0.3157,-9.7361,-1.1313,0.0437,0.0337,0.3025,-1.7,25.28,21.7,210.57,82.59,159.1,0.0,69.935,35.178017,126.90887,,155.97029321607747,,67.741936,,0 / 20,4754,2014-12-14 14:16:33:774
-1.6685,-9.789,-1.3426,-0.4434,-9.745,-1.0048,-1.069,0.1868,0.3428,0.18,27.15,20.76,210.57,82.59,159.1,0.0,69.935,35.178017,126.90887,,155.97029321607747,,67.741936,,0 / 20,4804,2014-12-14 14:16:33:824
0.3239,-9.8656,-0.9403,-0.4836,-9.7375,-1.0572,1.1844,0.0528,0.1138,2.74,25.28,20.26,201.23,83.57,156.19,0.0,69.935,35.178017,126.90887,,155.97029321607747,,67.741936,,0 / 20,4855,2014-12-14 14:16:33:875
-0.9789,-13.6781,-1.63,-0.3889,-9.7308,-1.1535,-0.4251,-0.5497,-1.4945,4.55,23.46,20.45,192.24,83.19,155.42,0.0,69.935,35.178017,126.90887,,155.97029321607747,,67.741936,,0 / 20,4910,2014-12-14 14:16:33:930
2.6037,-14.0038,-0.0781,-0.4289,-9.726,-1.1796,-0.7141,-3.1323,-0.7621,6.05,23.46,19.89,192.24,83.19,155.42,0.0,67.474,35.178017,126.90887,,155.97029321607747,,67.741936,,0 / 20,4954,2014-12-14 14:16:33:974
-1.3429,-11.3216,-3.7757,0.6704,-9.7808,-0.238,-0.5628,-0.3438,-1.5316,6.43,27.15,16.83,88.95,85.72,-114.83,0.0,67.474,35.178017,126.90887,,155.97029321607747,,67.741936,,0 / 20,5065,2014-12-14 14:16:34:085
-1.3429,-11.3216,-3.7757,0.6704,-9.7808,-0.238,-0.5628,-0.3438,-1.5316,6.43,27.15,16.83,88.95,85.72,-114.83,0.0,67.474,35.178017,126.90887,,155.97029321607747,,67.741936,,0 / 20,5067,2014-12-14 14:16:34:087
-4.8488,-16.1687,-2.4538,-0.0599,-9.7848,-0.6508,-4.7201,-4.382,-1.5839,3.49,28.59,14.39,88.95,85.72,-114.83,0.0,67.474,35.178017,126.90887,,155.97029321607747,,67.741936,,0 / 20,5104,2014-12-14 14:16:34:124
-2.2816,-12.7202,-3.7182,-0.4635,-9.7527,-0.9162,-1.9739,-0.631,-2.4253,-1.32,30.46,11.2,175.88,86.18,174.74,0.0,67.474,35.178017,126.90887,,155.97029321607747,,67.741936,,0 / 20,5154,2014-12-14 14:16:34:174
-1.4003,-7.011,-4.7336,-0.6339,-9.7051,-1.2567,-1.0051,3.2528,-2.9297,-4.26,33.4,10.64,242.15,83.99,153.16,0.0,67.474,35.178017,126.90887,,155.97029321607747,,67.741936,,0 / 20,5204,2014-12-14 14:16:34:224
-3.1054,-5.1144,-4.4845,-0.9539,-9.5809,-1.8617,-2.1322,5.9936,-2.3193,-6.13,34.15,9.76,242.15,83.99,153.16,0.0,69.699,35.178017,126.90887,,155.97029321607747,,67.741936,,0 / 20,5254,2014-12-14 14:16:34:274
-4.5615,-2.6238,-4.7528,-1.3817,-9.4303,-2.3089,-2.869,7.0429,-2.2557,-10.57,33.78,9.01,287.3,77.68,152.87,0.0,69.699,35.178017,126.90887,,155.97029321607747,,67.741936,,0 / 20,5305,2014-12-14 14:16:34:325
-4.868,-1.8,-5.2509,-1.6581,-9.3169,-2.5721,-3.105,7.2005,-2.3687,-11.63,36.71,10.89,293.7,74.07,149.1,0.0,69.699,35.178017,126.90887,,155.97029321607747,,67.741936,,0 / 20,5354,2014-12-14 14:16:34:374
-0.9022,-12.2604,4.7689,-2.5894,-8.9978,-2.9162,-0.2593,-1.511,5.1492,-12.01,33.4,12.89,299.51,66.41,144.88,0.0,69.699,35.178017,126.90887,,155.97029321607747,,67.741936,,0 / 20,5404,2014-12-14 14:16:34:424
26.9539,-30.9781,36.9357,-1.4008,-9.6448,-1.0886,14.2966,-12.844,22.5025,-11.63,31.59,11.07,299.51,66.41,144.88,0.0,69.699,35.178017,126.90887,,155.97029321607747,,67.741936,,0 / 20,5454,2014-12-14 14:16:34:474
-3.8526,-2.6046,-15.5389,0.0889,-9.6273,1.8647,-3.0391,2.6748,1.9803,-15.32,31.9,12.39,302.8,79.58,127.85,0.0,69.699,35.178017,126.90887,,155.97029321607747,,67.741936,,0 / 20,5504,2014-12-14 14:16:34:524
-10.8837,-20.9583,8.7347,-0.4251,-9.7754,0.6572,-7.1607,4.1174,-15.3796,-14.26,31.96,13.08,12.59,85.42,32.9,0.0,69.699,35.178017,126.90887,,155.97029321607747,,67.741936,,0 / 20,5554,2014-12-14 14:16:34:574
-13.5467,0.1159,-11.1516,-0.6812,-9.7379,0.9376,3.5607,-10.5607,-1.0523,-14.63,33.03,13.45,11.01,83.21,36.0,0.0,65.985,35.178017,126.90887,,155.97029321607747,,67.741936,,0 / 20,5604,2014-12-14 14:16:34:624
4.0023,-13.7931,-1.0169,-1.229,-9.7031,-0.7137,2.94,-1.2367,-0.9402,-14.26,32.28,15.7,11.01,83.21,36.0,0.0,65.985,35.178017,126.90887,,155.97029321607747,,67.741936,,0 / 20,5654,2014-12-14 14:16:34:674
-0.3083,-9.2909,-2.5112,-0.5982,-9.7257,-1.1062,0.9189,1.0059,-2.6097,-11.63,31.59,19.01,283.68,81.67,120.14,0.0,65.985,35.178017,126.90887,,155.97029321607747,,67.741936,,0 / 20,5704,2014-12-14 14:16:34:724
-2.1667,-8.8502,-1.5342,-0.6872,-9.7047,-1.2319,-0.5937,0.9892,0.3432,-9.82,27.9,23.57,236.91,82.2,153.04,0.0,65.985,35.178017,126.90887,,155.97029321607747,,67.741936,,0 / 20,5754,2014-12-14 14:16:34:774
0.7262,-9.4633,-3.4308,-0.6068,-9.7008,-1.3025,1.2569,0.666,-1.3429,-6.13,28.59,24.58,236.91,82.2,153.04,0.0,65.985,35.178017,126.90887,,155.97029321607747,,67.741936,,0 / 20,5804,2014-12-14 14:16:34:824
2.3547,-9.2909,-0.9019,-0.3497,-9.6937,-1.4422,2.1974,0.5625,-0.4616,-3.88,26.78,25.58,219.55,81.57,155.02,0.0,65.985,35.178017,126.90887,,155.97029321607747,,67.741936,,0 / 20,5854,2014-12-14 14:16:34:874
-2.2625,-8.4096,-0.4038,-0.1225,-9.7074,-1.3863,0.8015,0.937,0.6171,-3.51,27.53,26.89,219.55,81.57,155.02,0.0,65.985,35.178017,126.90887,,155.97029321607747,,67.741936,,0 / 20,5904,2014-12-14 14:16:34:924
-0.0593,-9.4825,-1.3809,-0.3038,-9.7244,-1.2302,0.2545,0.1978,0.0077,-1.32,25.28,28.64,195.73,81.84,174.95,0.0,70.576,35.178017,126.90887,,155.97029321607747,,67.741936,,0 / 20,5954,2014-12-14 14:16:34:974
-0.3849,-9.425,-1.7449,-0.3261,-9.7156,-1.2928,0.0342,0.3066,-0.4799,-0.57,24.53,28.2,198.12,82.58,166.13,0.0,70.576,35.178017,126.90887,,155.97029321607747,,67.741936,,0 / 20,6005,2014-12-14 14:16:35:025
-0.4041,-10.0764,-1.6108,-0.2475,-9.7064,-1.3767,0.0915,-0.1437,-0.1801,3.87,22.71,30.51,185.71,82.0,167.58,0.0,70.576,35.178017,126.90887,,155.97029321607747,,67.741936,,0 / 20,6054,2014-12-14 14:16:35:074
0.0557,-12.0497,1.0522,-0.2226,-9.7401,-1.1188,0.8237,-2.2898,1.8403,5.68,23.46,29.58,185.71,82.0,167.58,0.0,70.576,35.178017,126.90887,,155.97029321607747,,67.741936,,0 / 20,6104,2014-12-14 14:16:35:124
5.1135,-13.4674,0.784,0.1856,-9.7553,-0.9853,5.9518,-4.7471,1.4608,6.43,24.53,29.64,179.94,83.32,168.75,0.0,70.576,35.178017,126.90887,,155.97029321607747,,67.741936,,0 / 20,6154,2014-12-14 14:16:35:174
-3.3736,-11.2642,-4.657,0.1726,-9.7124,-1.345,-3.3537,-0.3962,-3.5858,4.55,29.71,27.2,134.52,83.98,-149.87,0.0,70.576,35.178017,126.90887,,155.97029321607747,,67.741936,,0 / 20,6204,2014-12-14 14:16:35:224
-5.7493,-14.2337,-3.4308,-0.1035,-9.689,-1.5108,-4.3499,-1.3211,-2.8657,0.49,31.59,26.01,134.52,83.98,-149.87,0.0,70.576,35.178017,126.90887,,155.97029321607747,,67.741936,,0 / 20,6254,2014-12-14 14:16:35:274
-5.7876,-13.1225,-3.5649,-0.7565,-9.6373,-1.6494,-5.6723,-2.7208,-1.6482,-2.07,35.28,24.26,191.35,81.12,176.08,0.0,66.79,35.178017,126.90887,,155.97029321607747,,67.741936,,0 / 20,6304,2014-12-14 14:16:35:324
-4.7914,-8.7353,-4.7144,-1.1924,-9.5213,-2.0234,-1.3378,0.3066,-2.6611,-6.51,34.15,22.58,191.35,81.12,176.08,0.0,66.79,35.178017,126.90887,,155.97029321607747,,67.741936,,0 / 20,6354,2014-12-14 14:16:35:374
-4.7914,-5.9765,-4.3887,-2.0167,-9.2307,-2.6261,-2.9502,4.4563,-1.7164,-13.51,35.28,18.76,258.08,76.14,149.49,0.0,66.79,35.178017,126.90887,,155.97029321607747,,67.741936,,0 / 20,6404,2014-12-14 14:16:35:424
-2.4924,-5.6508,-3.7948,-2.1322,-9.1746,-2.7294,-1.0713,4.2551,-0.6574,-15.01,35.28,18.58,284.87,70.27,142.48,0.0,66.79,35.178017,126.90887,,155.97029321607747,,67.741936,,0 / 20,6454,2014-12-14 14:16:35:474
-0.5382,-7.2218,0.8415,-2.3044,-9.1493,-2.6742,1.5197,2.2498,3.1348,-17.2,34.53,16.51,294.14,67.96,141.23,0.0,66.79,35.178017,126.90887,,155.97029321607747,,67.741936,,0 / 20,6504,2014-12-14 14:16:35:524
-1.8218,-8.1797,-0.2122,-2.2436,-9.2142,-2.4971,1.5018,1.6725,3.2364,-17.95,33.78,15.95,294.14,67.96,141.23,0.0,66.79,35.178017,126.90887,,155.97029321607747,,67.741936,,0 / 20,6554,2014-12-14 14:16:35:574
-2.6265,-11.9922,-2.4155,-1.9821,-9.3618,-2.1442,0.4151,-2.3963,0.1494,-17.2,35.28,17.89,292.84,69.98,138.06,0.0,68.418,35.178017,126.90887,,155.97029321607747,,67.741936,,0 / 20,6604,2014-12-14 14:16:35:624
-0.4807,-13.1034,6.3399,-1.9979,-9.4093,-1.9091,-0.8927,-3.8259,2.6331,-17.57,35.65,18.45,291.0,72.68,137.25,0.0,68.418,35.178017,126.90887,,155.97029321607747,,67.741936,,0 / 20,6654,2014-12-14 14:16:35:674
1.4351,-9.425,-0.9211,-1.797,-9.5532,-1.2951,2.6881,0.6083,0.0446,-17.2,34.9,19.64,294.04,76.25,122.94,0.0,68.418,35.178017,126.90887,,155.97029321607747,,67.741936,,0 / 20,6704,2014-12-14 14:16:35:724
1.9715,-10.9768,1.7611,-1.563,-9.6097,-1.1755,3.3162,-0.5605,1.7035,-17.2,35.65,19.58,294.04,76.25,122.94,0.0,68.418,35.178017,126.90887,,155.97029321607747,,67.741936,,0 / 20,6754,2014-12-14 14:16:35:774
1.2052,-10.0955,0.8989,-1.1309,-9.7083,-0.8003,2.8583,-0.6718,2.5988,-15.01,35.65,18.95,287.73,78.5,126.95,0.0,68.418,35.178017,126.90887,,155.97029321607747,,67.741936,,0 / 20,6804,2014-12-14 14:16:35:824
-0.7298,-9.0801,0.5541,-0.7595,-9.7657,-0.4735,0.1149,0.4857,0.9984,-17.57,33.78,17.26,291.34,84.76,121.94,0.0,68.418,35.178017,126.90887,,155.97029321607747,,67.741936,,0 / 20,6854,2014-12-14 14:16:35:874
-0.27,-10.2105,-0.1739,-0.6748,-9.7799,-0.2637,0.5419,-0.4019,0.7194,-17.2,35.96,17.7,291.34,84.76,121.94,0.0,68.418,35.178017,126.90887,,155.97029321607747,,67.741936,,0 / 20,6904,2014-12-14 14:16:35:924
0.094,-9.7124,-0.8253,-0.5925,-9.7845,-0.2871,0.6923,-0.1719,-0.401,-17.95,34.9,17.39,298.71,85.76,111.34,0.0,67.376,35.178017,126.90887,,155.97029321607747,,67.741936,,0 / 20,6954,2014-12-14 14:16:35:974
-0.0784,-9.8848,0.8798,-0.4643,-9.7948,-0.1287,0.3704,-0.113,1.004,-17.57,34.15,18.26,291.71,86.58,117.51,0.0,67.376,35.178017,126.90887,,155.97029321607747,,67.741936,,0 / 20,7004,2014-12-14 14:16:36:024
0.3814,-9.6357,0.4774,-0.426,-9.7972,-0.0595,0.5368,0.0764,0.9617,-17.57,33.4,19.2,307.98,87.49,97.95,0.0,67.376,35.178017,126.90887,,155.97029321607747,,67.741936,,0 / 20,7054,2014-12-14 14:16:36:074
0.3047,-9.4825,0.1134,-0.3285,-9.8011,-0.0313,0.6157,0.1896,-0.0518,-18.7,33.78,18.51,307.98,87.49,97.95,0.0,67.376,35.178017,126.90887,,155.97029321607747,,67.741936,,0 / 20,7104,2014-12-14 14:16:36:124
0.4389,-9.5016,0.305,-0.1726,-9.8051,0.0337,0.6966,-0.1343,0.3973,-18.32,31.59,19.64,308.32,88.07,95.44,0.0,67.376,35.178017,126.90887,,155.97029321607747,,67.741936,,0 / 20,7154,2014-12-14 14:16:36:174
0.1132,-9.6357,0.42,-0.0962,-9.8059,0.0699,0.3903,0.1426,0.1944,-17.95,32.65,18.95,349.62,89.31,53.99,0.0,67.376,35.178017,126.90887,,155.97029321607747,,67.741936,,0 / 20,7204,2014-12-14 14:16:36:224
0.1132,-9.5399,0.1518,-0.0512,-9.8059,0.1075,0.1781,0.125,0.0556,-17.57,35.65,20.08,349.62,89.31,53.99,0.0,67.376,35.178017,126.90887,,155.97029321607747,,67.741936,,0 / 20,7254,2014-12-14 14:16:36:274
0.3431,-9.6166,0.2476,6.0E-4,-9.8052,0.1693,0.2129,0.0063,0.2006,-17.2,34.15,18.95,16.08,89.3,25.48,0.0,63.358,35.178017,126.90887,,155.97029321607747,,67.741936,,0 / 20,7304,2014-12-14 14:16:36:324
0.5538,-9.7124,0.3433,0.0525,-9.8049,0.1785,0.4097,0.0732,0.0801,-17.57,34.9,17.45,61.68,88.91,-16.39,0.0,63.358,35.178017,126.90887,,155.97029321607747,,67.741936,,0 / 20,7354,2014-12-14 14:16:36:374
0.573,-9.789,0.2476,0.1681,-9.8029,0.2151,0.4274,-0.23,0.1137,-17.57,33.78,19.14,61.68,88.91,-16.39,0.0,63.358,35.178017,126.90887,,155.97029321607747,,67.741936,,0 / 20,7404,2014-12-14 14:16:36:424
0.6688,-9.5782,0.2284,0.1995,-9.8023,0.2123,0.4325,0.1223,-0.0406,-17.57,34.53,19.39,79.37,88.41,-38.01,0.0,63.358,35.178017,126.90887,,155.97029321607747,,67.741936,,0 / 20,7454,2014-12-14 14:16:36:474
0.3431,-9.7698,0.42,0.2705,-9.8005,0.2164,0.1654,0.0014,0.0632,-17.2,32.34,20.08,89.24,87.98,-51.34,0.0,63.358,35.178017,126.90887,,155.97029321607747,,67.741936,,0 / 20,7504,2014-12-14 14:16:36:524
0.4772,-9.6357,-0.0973,0.3268,-9.7999,0.1592,0.3239,-0.0442,-0.0209,-17.57,33.4,20.33,89.24,87.98,-51.34,0.0,63.358,35.178017,126.90887,,155.97029321607747,,67.741936,,0 / 20,7554,2014-12-14 14:16:36:574
0.5538,-9.7507,-0.4038,0.3312,-9.8005,0.1054,0.0082,-0.0309,-0.4212,-17.2,32.65,19.83,101.76,87.88,-64.02,0.0,63.358,35.178017,126.90887,,155.97029321607747,,67.741936,,0 / 20,7604,2014-12-14 14:16:36:624
0.5347,-9.7124,0.0751,0.3575,-9.8001,0.0285,-0.0153,0.1317,-0.3798,-16.07,31.9,22.83,118.14,87.9,-85.44,0.0,61.26,35.178017,126.90887,,155.97029321607747,,67.741936,,0 / 20,7654,2014-12-14 14:16:36:674
0.209,-9.8081,0.056,0.3208,-9.8013,0.0384,-0.0463,-0.2253,0.1507,-14.63,32.34,22.7,118.14,87.9,-85.44,0.0,61.26,35.178017,126.90887,,155.97029321607747,,67.741936,,0 / 20,7704,2014-12-14 14:16:36:724
0.3814,-9.8656,0.0368,0.3353,-9.8008,0.0494,0.2112,-0.3027,0.1538,-15.32,31.21,22.39,116.05,88.11,-83.18,0.0,61.26,35.178017,126.90887,,155.97029321607747,,67.741936,,0 / 20,7754,2014-12-14 14:16:36:774
0.1898,-9.5208,-0.1548,0.3585,-9.7995,0.1105,-0.0916,0.2267,-0.2477,-15.7,32.28,23.14,109.49,87.76,-77.09,0.0,61.26,35.178017,126.90887,,155.97029321607747,,67.741936,,0 / 20,7804,2014-12-14 14:16:36:824
1.0902,-9.4633,-1.0169,0.4118,-9.7979,0.0386,0.7277,0.3422,-0.9999,-16.45,33.4,19.83,120.6,87.58,-84.64,0.0,61.26,35.178017,126.90887,,155.97029321607747,,67.741936,,0 / 20,7854,2014-12-14 14:16:36:874