ACCELEROMETER X (m/s²),ACCELEROMETER Y (m/s²),ACCELEROMETER Z (m/s²),GRAVITY X (m/s²),GRAVITY Y (m/s²),GRAVITY Z (m/s²),LINEAR ACCELERATION X (m/s²),LINEAR ACCELERATION Y (m/s²),LINEAR ACCELERATION Z (m/s²),MAGNETIC FIELD X (μT),MAGNETIC FIELD Y (μT),MAGNETIC FIELD Z (μT),ORIENTATION X (°),ORIENTATION Y (°),ORIENTATION Z (°),PROXIMITY (i),SOUND LEVEL (dB),LOCATION Latitude : ,LOCATION Longitude : ,LOCATION Altitude ( m),LOCATION Altitude-google ( m),LOCATION Speed ( Kmh),LOCATION Accuracy ( m),LOCATION ORIENTATION (°),Satellites in range,Time since start in ms ,YYYY-MO-DD HH-MI-SS_SSS
0.4005,-9.8273,1.1671,-0.1029,-9.7443,1.0991,0.3397,-0.1831,0.0161,-7.2,35.53,1.01,47.76,83.31,8.16,0.0,70.165,35.17803,126.90885,,156.1362102110803,,64.51613,,0 / 20,5,2014-12-14 14:15:14:054
1.3968,-9.7698,1.9143,0.0306,-9.7378,1.1595,1.1231,-0.2286,0.6187,-6.45,35.9,3.32,47.76,83.31,8.16,0.0,70.165,35.17803,126.90885,,156.1362102110803,,64.51613,,0 / 20,55,2014-12-14 14:15:14:104
2.1248,-10.0572,2.0293,0.3125,-9.7187,1.2725,2.2406,0.4723,0.6016,-7.2,34.78,2.45,49.88,83.21,-1.51,0.0,70.165,35.17803,126.90885,,156.1362102110803,,64.51613,,0 / 20,105,2014-12-14 14:15:14:154
2.9486,-10.2488,2.4699,0.6224,-9.6794,1.4463,1.4945,-0.2293,0.9429,-7.57,34.09,2.58,59.35,80.76,-23.29,0.0,65.2,35.17803,126.90885,,156.1362102110803,,64.51613,,0 / 20,159,2014-12-14 14:15:14:208
2.9869,-10.9576,1.5695,1.1513,-9.625,1.4849,2.1194,-0.7045,0.6453,-7.95,33.34,2.45,59.35,80.76,-23.29,0.0,65.2,35.17803,126.90885,,156.1362102110803,,64.51613,,0 / 20,206,2014-12-14 14:15:14:255
0.0557,-10.2105,-1.8599,1.247,-9.6251,1.4043,1.5166,-1.0173,-1.0189,-8.32,34.84,0.89,71.16,78.95,-37.79,0.0,65.2,35.17803,126.90885,,156.1362102110803,,64.51613,,0 / 20,255,2014-12-14 14:15:14:304
0.1706,-11.0151,0.8031,0.993,-9.7042,1.0067,-1.4897,-0.7645,0.1644,-7.95,32.96,-0.24,94.88,80.72,-47.15,0.0,65.2,35.17803,126.90885,,156.1362102110803,,64.51613,,0 / 20,305,2014-12-14 14:15:14:354
-1.9559,-9.7698,1.7802,0.8481,-9.7135,1.0479,-2.1114,-0.3559,0.6291,-10.88,32.21,-2.93,125.57,82.1,-38.98,0.0,65.2,35.17803,126.90885,,156.1362102110803,,64.51613,,0 / 20,355,2014-12-14 14:15:14:404
-0.5191,-7.49,0.8798,0.4061,-9.7337,1.1228,-0.4663,2.489,-0.4366,-10.13,31.46,-4.61,125.57,82.1,-38.98,0.0,65.2,35.17803,126.90885,,156.1362102110803,,64.51613,,0 / 20,405,2014-12-14 14:15:14:454
0.6688,-6.8769,0.1901,0.4242,-9.7369,1.0875,0.1452,2.4707,-0.7789,-10.51,28.9,-4.11,104.62,83.01,-19.88,0.0,65.2,35.17803,126.90885,,156.1362102110803,,64.51613,,0 / 20,455,2014-12-14 14:15:14:504
-0.5574,-6.7237,1.2629,0.31,-9.7295,1.188,-1.1207,2.2516,1.3076,-11.26,28.53,-4.11,119.24,83.43,-23.82,0.0,66.759,35.17803,126.90885,,156.1362102110803,,64.51613,,0 / 20,505,2014-12-14 14:15:14:554
2.5463,-6.9344,3.083,0.2961,-9.7108,1.3356,-0.2332,2.0543,1.6502,-10.13,27.78,-4.11,103.31,81.98,-12.5,0.0,66.759,35.17803,126.90885,,156.1362102110803,,64.51613,,0 / 20,555,2014-12-14 14:15:14:604
1.4734,-9.0418,4.539,0.7669,-9.5423,2.1275,1.5904,-1.556,3.9484,-10.13,27.03,-2.8,103.31,81.98,-12.5,0.0,66.759,35.17803,126.90885,,156.1362102110803,,64.51613,,0 / 20,605,2014-12-14 14:15:14:654
3.0444,-9.9231,5.2479,0.9132,-9.4584,2.424,2.1665,-1.9954,4.5762,-7.95,25.21,-4.55,84.34,76.67,-19.82,0.0,66.759,35.17803,126.90885,,156.1362102110803,,64.51613,,0 / 20,656,2014-12-14 14:15:14:705
0.2281,-8.5245,2.1634,0.554,-9.3938,2.7604,-6.0758,-7.5336,2.8382,-9.07,25.96,-1.86,69.42,72.32,-22.7,0.0,66.759,35.17803,126.90885,,156.1362102110803,,64.51613,,0 / 20,705,2014-12-14 14:15:14:754
4.1939,-10.4212,0.2667,0.5127,-9.2966,3.079,0.1649,-12.2706,9.0529,-8.32,24.84,-1.67,57.37,71.44,-9.45,0.0,66.759,35.17803,126.90885,,156.1362102110803,,64.51613,,0 / 20,755,2014-12-14 14:15:14:804
-15.0219,2.5298,-11.4582,-0.1185,-9.6892,1.5084,-1.3488,2.9461,-4.8895,-7.2,25.59,-0.55,57.37,71.44,-9.45,0.0,66.759,35.17803,126.90885,,156.1362102110803,,64.51613,,0 / 20,805,2014-12-14 14:15:14:854
-0.7873,-12.1454,-2.971,0.2511,-9.7379,1.1318,5.101,-4.3324,-4.6742,-6.07,23.03,5.08,43.75,81.12,4.49,0.0,60.788,35.17803,126.90885,,156.1362102110803,,64.51613,,0 / 20,855,2014-12-14 14:15:14:904
1.7799,-8.6586,-2.5496,0.2969,-9.8001,0.2,-1.2618,0.9792,-2.4588,-4.26,22.28,5.51,52.4,86.19,-27.91,0.0,60.788,35.17803,126.90885,,156.1362102110803,,64.51613,,0 / 20,905,2014-12-14 14:15:14:954
-0.749,-9.1184,-1.5342,0.2969,-9.8001,0.2,-1.2618,0.9792,-2.4588,-4.63,22.28,6.45,52.4,86.19,-27.91,0.0,60.788,35.17803,126.90885,,156.1362102110803,,64.51613,,0 / 20,955,2014-12-14 14:15:15:004
-1.1513,-9.1568,-3.3734,0.0562,-9.8025,-0.2784,-1.2454,0.4602,-2.6932,-2.38,22.65,9.39,87.96,88.45,-66.94,0.0,60.788,35.17803,126.90885,,156.1362102110803,,64.51613,,0 / 20,1005,2014-12-14 14:15:15:054
0.2664,-9.6549,-2.6645,-0.078,-9.7876,-0.6064,-0.7352,0.8698,-2.1128,-1.32,22.28,9.83,173.91,88.34,-168.59,0.0,60.788,35.17803,126.90885,,156.1362102110803,,64.51613,,0 / 20,1055,2014-12-14 14:15:15:104
0.2281,-9.1568,-2.6645,-0.0873,-9.7512,-1.0375,-0.5187,0.202,-0.4099,1.3,20.78,11.39,180.66,84.92,174.26,0.0,60.788,35.17803,126.90885,,156.1362102110803,,64.51613,,0 / 20,1106,2014-12-14 14:15:15:155
-0.8831,-10.038,0.2667,-0.1423,-9.758,-0.9655,-0.7601,-0.3841,0.9603,1.3,18.96,12.26,180.66,84.92,174.26,0.0,69.794,35.17803,126.90885,,156.1362102110803,,64.51613,,0 / 20,1155,2014-12-14 14:15:15:204
0.0174,-10.3446,-0.8636,-0.2704,-9.7784,-0.6931,0.1221,-0.5587,0.6749,2.37,17.84,11.64,186.9,84.89,165.22,0.0,69.794,35.17803,126.90885,,156.1362102110803,,64.51613,,0 / 20,1205,2014-12-14 14:15:15:254
-1.2662,-9.9997,-2.4346,-0.3594,-9.7531,-0.9583,-0.8339,0.1615,-1.9684,4.62,16.71,12.89,180.31,85.65,158.68,0.0,69.794,35.17803,126.90885,,156.1362102110803,,64.51613,,0 / 20,1255,2014-12-14 14:15:15:304
-0.155,-10.9385,-1.6683,-0.4623,-9.7391,-1.0523,0.0036,-0.8202,-0.2359,6.8,17.46,12.01,170.77,83.51,157.64,0.0,69.794,35.17803,126.90885,,156.1362102110803,,64.51613,,0 / 20,1305,2014-12-14 14:15:15:354
2.5271,-12.9501,0.2284,-0.228,-9.7547,-0.9818,2.5065,-2.7593,0.9575,8.3,18.59,12.89,170.77,83.51,157.64,0.0,69.794,35.17803,126.90885,,156.1362102110803,,64.51613,,0 / 20,1355,2014-12-14 14:15:15:404
5.3242,-13.6973,3.2363,0.8016,-9.7621,-0.4794,5.3772,-3.2058,3.0016,9.43,17.84,13.33,155.65,84.1,166.93,0.0,69.794,35.17803,126.90885,,156.1362102110803,,64.51613,,0 / 20,1405,2014-12-14 14:15:15:454
-2.09,-13.5823,-3.5458,0.8781,-9.764,-0.2524,-0.446,-0.9345,0.2181,10.12,18.21,9.95,69.42,84.53,-120.88,0.0,69.794,35.17803,126.90885,,156.1362102110803,,64.51613,,0 / 20,1455,2014-12-14 14:15:15:504
-4.6764,-14.2146,-2.7986,0.1292,-9.7747,-0.7808,-3.991,-2.9536,-1.3688,7.93,26.34,8.2,75.76,84.75,-132.52,0.0,68.427,35.17803,126.90885,,156.1362102110803,,64.51613,,0 / 20,1505,2014-12-14 14:15:15:554
-2.1284,-14.6552,-1.4001,0.006,-9.7735,-0.8052,-2.0696,-2.5543,-0.6221,5.37,28.53,5.26,75.76,84.75,-132.52,0.0,68.427,35.17803,126.90885,,156.1362102110803,,64.51613,,0 / 20,1555,2014-12-14 14:15:15:604
-3.1629,-11.2833,-3.0668,-0.2451,-9.7541,-0.9833,-2.4089,-0.5232,-1.7578,1.68,28.9,3.45,107.35,84.07,166.0,0.0,68.427,35.17803,126.90885,,156.1362102110803,,64.51613,,0 / 20,1605,2014-12-14 14:15:15:654
-2.09,-7.1835,-3.814,-0.504,-9.6901,-1.421,-0.6757,3.8577,-2.1059,-1.32,31.09,1.2,107.35,84.07,166.0,0.0,68.427,35.17803,126.90885,,156.1362102110803,,64.51613,,0 / 20,1655,2014-12-14 14:15:15:704
-4.7147,-3.8307,-4.4079,-0.7814,-9.6171,-1.7524,-2.5279,4.7652,-2.0599,-4.26,32.59,-2.11,339.41,81.16,160.47,0.0,68.427,35.17803,126.90885,,156.1362102110803,,64.51613,,0 / 20,1705,2014-12-14 14:15:15:754
-5.0213,-2.6813,-4.9827,-1.3071,-9.4684,-2.1934,-3.6084,6.8965,-2.4451,-5.7,34.09,-1.8,342.96,74.91,149.21,0.0,68.427,35.17803,126.90885,,156.1362102110803,,64.51613,,0 / 20,1755,2014-12-14 14:15:15:804
-3.3353,-3.2177,-0.7487,-2.228,-9.115,-2.8502,-1.3204,4.9202,1.479,-6.45,31.84,-1.67,345.99,70.66,145.7,0.0,70.277,35.17803,126.90885,,156.1362102110803,,64.51613,,0 / 20,1805,2014-12-14 14:15:15:854
4.7303,-15.115,13.0453,-1.3826,-9.6763,-0.7922,11.3247,-9.6294,20.7095,-6.07,31.15,-1.24,345.99,70.66,145.7,0.0,70.277,35.17803,126.90885,,156.1362102110803,,64.51613,,0 / 20,1855,2014-12-14 14:15:15:904
1.0711,-4.2522,0.6882,0.03,-9.6456,1.7699,1.6495,-5.4259,9.6196,-8.32,30.4,-2.24,349.99,80.65,119.81,0.0,70.277,35.17803,126.90885,,156.1362102110803,,64.51613,,0 / 20,1906,2014-12-14 14:15:15:955
-11.6117,-31.9934,25.3449,-0.0172,-9.699,1.4486,-1.1077,7.9288,-9.2762,-9.38,30.03,-0.36,56.87,78.18,-1.78,0.0,70.277,35.17803,126.90885,,156.1362102110803,,64.51613,,0 / 20,1955,2014-12-14 14:15:16:004
4.0215,-31.7252,-1.6108,-1.2525,-9.5962,1.5856,-5.9517,-23.2652,17.3211,-8.32,31.15,1.14,56.87,78.18,-1.78,0.0,70.277,35.17803,126.90885,,156.1362102110803,,64.51613,,0 / 20,2005,2014-12-14 14:15:16:054
-12.4738,3.2386,-13.3932,-1.4177,-9.7027,-0.1337,-14.0048,14.9264,-16.9644,-8.32,29.28,5.7,25.23,78.11,38.31,0.0,70.277,35.17803,126.90885,,156.1362102110803,,64.51613,,0 / 20,2055,2014-12-14 14:15:16:104
2.0098,-17.5481,-0.9019,-0.8346,-9.7633,-0.3901,8.8201,-6.6785,1.5012,-6.82,30.78,8.26,321.02,81.65,95.39,0.0,70.277,35.17803,126.90885,,156.1362102110803,,64.51613,,0 / 20,2105,2014-12-14 14:15:16:154
0.1132,-8.6012,-4.293,-0.6132,-9.7467,-0.8921,0.9619,1.5952,-1.966,-5.76,26.34,13.33,250.33,83.66,145.5,0.0,69.13,35.17803,126.90885,,156.1362102110803,,64.51613,,0 / 20,2155,2014-12-14 14:15:16:204
-2.205,-8.697,-1.2276,-0.9624,-9.7105,-0.9746,0.4426,0.9762,-1.0997,-4.63,24.84,14.08,250.33,83.66,145.5,0.0,69.13,35.17803,126.90885,,156.1362102110803,,64.51613,,0 / 20,2205,2014-12-14 14:15:16:254
2.393,-10.2488,-4.0439,-0.7407,-9.7047,-1.1999,2.8384,-0.132,-2.0806,-2.01,26.34,16.08,243.73,81.97,135.36,0.0,69.13,35.17803,126.90885,,156.1362102110803,,64.51613,,0 / 20,2255,2014-12-14 14:15:16:304
0.2473,-9.8081,-0.9211,-0.0436,-9.7769,-0.7616,-1.4673,1.0645,-0.8627,-0.2,24.09,15.64,187.87,85.5,173.08,0.0,69.13,35.17803,126.90885,,156.1362102110803,,64.51613,,0 / 20,2305,2014-12-14 14:15:16:354
-4.5231,-8.3713,-2.4538,-0.3014,-9.7633,-0.8704,-3.7398,1.6482,-1.4683,0.18,22.28,18.7,187.87,85.5,173.08,0.0,69.13,35.17803,126.90885,,156.1362102110803,,64.51613,,0 / 20,2355,2014-12-14 14:15:16:404
-0.7681,-9.5016,-2.0898,-0.4646,-9.749,-0.9552,-2.3325,1.015,-1.153,0.93,22.65,19.83,206.38,83.78,154.06,0.0,69.13,35.17803,126.90885,,156.1362102110803,,64.51613,,0 / 20,2405,2014-12-14 14:15:16:454
0.094,-10.9193,0.3242,-0.3323,-9.7565,-0.9331,0.2478,-0.9792,0.8388,4.99,20.03,17.39,183.48,83.81,160.58,0.0,69.13,35.17803,126.90885,,156.1362102110803,,64.51613,,0 / 20,2455,2014-12-14 14:15:16:504
1.3393,-13.7164,-0.8445,-0.2315,-9.7642,-0.8813,0.6963,-2.2262,-0.2458,5.68,18.96,22.58,183.48,83.81,160.58,0.0,71.118,35.17803,126.90885,,156.1362102110803,,64.51613,,0 / 20,2505,2014-12-14 14:15:16:554
6.991,-14.7318,0.1518,0.3143,-9.7717,-0.7648,5.6659,-3.4743,0.8351,6.8,21.15,20.01,174.94,84.67,165.28,0.0,71.118,35.17803,126.90885,,156.1362102110803,,64.51613,,0 / 20,2556,2014-12-14 14:15:16:605
0.6688,-10.9002,-2.9902,0.777,-9.772,-0.2743,-0.4258,0.4167,-2.3621,7.93,24.15,18.95,100.49,84.57,-129.62,0.0,71.118,35.17803,126.90885,,156.1362102110803,,64.51613,,0 / 20,2605,2014-12-14 14:15:16:654
-3.6993,-14.1954,-3.45,0.4433,-9.7729,-0.681,-3.7977,-2.2671,-2.7071,7.55,28.15,19.14,100.49,84.57,-129.62,0.0,71.118,35.17803,126.90885,,156.1362102110803,,64.51613,,0 / 20,2655,2014-12-14 14:15:16:704
-3.1246,-15.0575,-2.9327,-0.0295,-9.7771,-0.7596,-3.0759,-4.1625,-0.7216,3.49,32.59,17.08,129.83,85.25,-146.94,0.0,71.118,35.17803,126.90885,,156.1362102110803,,64.51613,,0 / 20,2705,2014-12-14 14:15:16:754
-3.0671,-11.5515,-4.2163,-0.4713,-9.732,-1.1124,-2.3701,0.678,-2.6615,-3.88,38.53,14.64,232.36,82.92,157.04,0.0,71.118,35.17803,126.90885,,156.1362102110803,,64.51613,,0 / 20,2755,2014-12-14 14:15:16:804
-2.454,-6.647,-4.3504,-0.5906,-9.6791,-1.4616,-0.8207,4.1938,-2.5201,-7.95,40.71,13.08,253.3,82.92,157.04,0.0,71.118,35.17803,126.90885,,156.1362102110803,,64.51613,,0 / 20,2805,2014-12-14 14:15:16:854
-4.2358,-2.9112,-4.7144,-1.181,-9.5091,-2.0864,-2.9629,7.4167,-2.368,-12.01,41.84,9.57,253.3,82.92,157.04,0.0,68.852,35.17803,126.90885,,156.1362102110803,,64.51613,,0 / 20,2855,2014-12-14 14:15:16:904
-4.6764,-1.1103,-5.998,-1.72,-9.2693,-2.7003,-2.9544,8.1335,-3.1286,-14.2,43.28,6.2,308.72,75.85,150.49,0.0,68.852,35.17803,126.90885,,156.1362102110803,,64.51613,,0 / 20,2905,2014-12-14 14:15:16:954
-2.4924,-10.6511,3.2746,-2.5216,-8.9225,-3.1938,-2.7425,3.8581,2.271,-12.01,42.9,10.14,315.88,66.12,145.7,0.0,68.852,35.17803,126.90885,,156.1362102110803,,64.51613,,0 / 20,2955,2014-12-14 14:15:17:004
16.2444,-24.2343,29.5406,-0.8941,-9.7619,-0.2763,17.4696,-13.348,27.9521,-14.2,42.59,12.7,315.88,66.12,145.7,0.0,68.852,35.17803,126.90885,,156.1362102110803,,64.51613,,0 / 20,3005,2014-12-14 14:15:17:054
-0.7681,-10.1913,5.0946,-0.1582,-9.6431,1.7766,-0.3221,1.0571,1.5322,-14.95,44.03,9.26,320.53,84.52,107.17,0.0,68.852,35.17803,126.90885,,156.1362102110803,,64.51613,,0 / 20,3056,2014-12-14 14:15:17:105
0.573,-20.6134,4.9605,-1.3191,-9.6335,1.2753,-3.4058,-9.2248,5.8441,-16.45,44.03,10.14,320.53,84.52,107.17,0.0,68.852,35.17803,126.90885,,156.1362102110803,,64.51613,,0 / 20,3105,2014-12-14 14:15:17:154
1.3201,-6.0914,-8.8718,-0.6162,-9.7759,0.4716,3.144,3.5294,-8.6576,-16.07,45.53,11.07,5.11,79.22,45.97,0.0,68.852,35.17803,126.90885,,156.1362102110803,,64.51613,,0 / 20,3155,2014-12-14 14:15:17:204
5.3625,-15.115,0.6499,-1.4644,-9.6628,-0.8106,-1.9677,1.7247,-3.5665,-14.57,45.15,18.2,348.88,85.46,52.57,0.0,66.659,35.17803,126.90885,,156.1362102110803,,64.51613,,0 / 20,3205,2014-12-14 14:15:17:254
-0.7106,-8.6778,-3.9098,-0.8799,-9.7174,-0.9845,-0.1187,1.5157,-3.4336,-11.63,43.28,21.89,269.5,83.32,130.7,0.0,66.659,35.17803,126.90885,,156.1362102110803,,64.51613,,0 / 20,3255,2014-12-14 14:15:17:304
-2.3008,-9.2717,-0.9211,-0.8304,-9.7071,-1.1191,0.8352,0.8141,-0.0195,-9.45,43.28,24.7,269.5,83.32,130.7,0.0,66.659,35.17803,126.90885,,156.1362102110803,,64.51613,,0 / 20,3305,2014-12-14 14:15:17:354
0.8987,-9.8273,-0.4805,-0.8261,-9.7186,-1.0184,1.485,0.08,0.7593,-7.95,39.28,27.33,248.47,81.7,139.05,0.0,66.659,35.17803,126.90885,,156.1362102110803,,64.51613,,0 / 20,3355,2014-12-14 14:15:17:404
1.665,-10.038,-1.8599,-0.565,-9.7182,-1.1862,1.9416,0.1311,-1.3894,-2.76,37.4,28.76,217.6,82.3,154.53,0.0,66.659,35.17803,126.90885,,156.1362102110803,,64.51613,,0 / 20,3405,2014-12-14 14:15:17:454
-0.1742,-9.1568,-1.6108,-0.3488,-9.7227,-1.2318,-0.2869,0.8053,-0.4014,-1.32,38.15,29.26,217.6,82.3,154.53,0.0,66.659,35.17803,126.90885,,156.1362102110803,,64.51613,,0 / 20,3456,2014-12-14 14:15:17:505
-0.8831,-10.038,-1.4384,-0.4959,-9.7144,-1.2473,-0.8418,0.1997,-0.022,1.99,37.78,28.08,194.35,82.5,164.19,0.0,66.659,35.17803,126.90885,,156.1362102110803,,64.51613,,0 / 20,3505,2014-12-14 14:15:17:554
-1.477,-9.5208,-0.1739,-0.6159,-9.7201,-1.1445,-0.4691,0.1035,0.9666,4.99,35.21,31.64,199.83,82.12,154.34,0.0,68.492,35.17803,126.90885,,156.1362102110803,,64.51613,,0 / 20,3555,2014-12-14 14:15:17:604
1.55,-11.1492,-0.7104,-0.3578,-9.743,-1.0565,2.2485,-0.9572,0.5743,7.18,34.84,31.58,199.83,82.12,154.34,0.0,68.492,35.17803,126.90885,,156.1362102110803,,64.51613,,0 / 20,3605,2014-12-14 14:15:17:654
7.9872,-15.7089,1.7419,-0.0566,-9.7564,-0.99,2.9155,-3.1435,0.4909,9.37,34.84,31.83,183.43,83.47,161.29,0.0,68.492,35.17803,126.90885,,156.1362102110803,,64.51613,,0 / 20,3656,2014-12-14 14:15:17:705
6.8952,-15.0192,3.4087,0.8222,-9.74,-0.7917,7.3652,-4.9986,1.6874,12.37,35.53,30.14,159.07,84.2,176.73,0.0,68.492,35.17803,126.90885,,156.1362102110803,,64.51613,,0 / 20,3705,2014-12-14 14:15:17:754
-1.7452,-11.1492,-3.1626,0.622,-9.7779,-0.4192,-2.5893,-0.0732,-3.2451,7.55,41.84,22.45,77.49,85.26,-105.78,0.0,68.492,35.17803,126.90885,,156.1362102110803,,64.51613,,0 / 20,3755,2014-12-14 14:15:17:804
-3.7185,-14.9234,-2.6454,0.3975,-9.7802,-0.5999,-3.5859,-2.0434,-3.0767,6.43,43.28,20.26,77.49,85.26,-105.78,0.0,68.492,35.17803,126.90885,,156.1362102110803,,64.51613,,0 / 20,3805,2014-12-14 14:15:17:854
-2.4157,-13.2758,-2.8944,-0.0924,-9.7726,-0.8113,-2.0725,-1.6754,-1.5986,-0.95,45.15,15.14,142.52,85.79,-146.47,0.0,68.492,35.17803,126.90885,,156.1362102110803,,64.51613,,0 / 20,3855,2014-12-14 14:15:17:904
-0.4616,-8.3521,-4.4845,-0.332,-9.7169,-1.2812,-0.7993,2.2661,-2.8457,-5.76,46.65,9.83,243.63,84.36,168.3,0.0,68.434,35.17803,126.90885,,156.1362102110803,,64.51613,,0 / 20,3905,2014-12-14 14:15:17:954
-2.2816,-6.3596,-4.5229,-0.4413,-9.6543,-1.6643,-1.3091,4.6627,-2.5695,-10.51,46.28,6.83,243.63,84.36,168.3,0.0,68.434,35.17803,126.90885,,156.1362102110803,,64.51613,,0 / 20,3955,2014-12-14 14:15:18:004
-4.504,-2.2981,-4.906,-1.2746,-9.3755,-2.578,-3.2282,7.3009,-2.2521,-14.57,43.65,0.01,312.18,76.86,159.47,0.0,68.434,35.17803,126.90885,,156.1362102110803,,64.51613,,0 / 20,4005,2014-12-14 14:15:18:054
-5.3661,-2.1831,-2.7603,-1.8594,-9.1147,-3.104,-3.0852,7.0852,-1.7781,-14.2,43.28,3.45,319.01,72.95,153.69,0.0,68.434,35.17803,126.90885,,156.1362102110803,,64.51613,,0 / 20,4055,2014-12-14 14:15:18:104
-5.7876,-6.3596,0.6882,-2.4983,-9.0133,-2.9477,-3.209,2.3269,3.7787,-15.32,41.84,3.89,328.24,66.8,139.72,0.0,68.434,35.17803,126.90885,,156.1362102110803,,64.51613,,0 / 20,4105,2014-12-14 14:15:18:154
19.578,-25.039,31.4564,-0.5047,-9.7839,0.4377,18.2679,-14.9454,28.3716,-13.82,43.34,3.95,328.24,66.8,139.72,0.0,68.434,35.17803,126.90885,,156.1362102110803,,64.51613,,0 / 20,4155,2014-12-14 14:15:18:204
-6.7838,-6.5704,-10.1171,-0.5009,-9.6961,1.3799,-5.4364,2.8309,-7.2391,-14.2,41.09,6.01,19.21,86.09,49.06,0.0,66.941,35.17803,126.90885,,156.1362102110803,,64.51613,,0 / 20,4205,2014-12-14 14:15:18:254
8.0447,-13.6781,-4.178,-1.2503,-9.6114,1.4928,-1.3506,-10.4422,3.0487,-14.2,39.96,3.89,39.26,81.39,19.95,0.0,66.941,35.17803,126.90885,,156.1362102110803,,64.51613,,0 / 20,4255,2014-12-14 14:15:18:304
-5.7684,-1.3785,-13.2399,-0.903,-9.7579,0.3726,-1.192,7.3068,-11.8308,-13.13,38.53,4.7,39.26,81.39,19.95,0.0,66.941,35.17803,126.90885,,156.1362102110803,,64.51613,,0 / 20,4305,2014-12-14 14:15:18:354
5.0943,-14.8851,-0.3655,-0.8914,-9.7454,-0.6353,5.7519,-4.0988,-0.3001,-11.63,36.28,10.45,358.14,84.28,67.58,0.0,66.941,35.17803,126.90885,,156.1362102110803,,64.51613,,0 / 20,4355,2014-12-14 14:15:18:404
-0.4807,-9.2142,-3.3734,-0.5726,-9.7467,-0.9191,1.5139,0.9284,-3.0377,-9.07,34.09,12.2,285.5,83.59,125.48,0.0,66.941,35.17803,126.90885,,156.1362102110803,,64.51613,,0 / 20,4405,2014-12-14 14:15:18:454
-2.3966,-8.697,-1.7066,-0.7896,-9.7126,-1.1011,-1.6176,1.1699,-0.3826,-7.57,35.96,16.08,285.5,83.59,125.48,0.0,66.941,35.17803,126.90885,,156.1362102110803,,64.51613,,0 / 20,4455,2014-12-14 14:15:18:504
-0.4041,-9.3675,-2.243,-0.811,-9.713,-1.0815,0.4352,0.452,-0.0917,-4.26,34.09,13.08,252.29,82.06,144.36,0.0,66.941,35.17803,126.90885,,156.1362102110803,,64.51613,,0 / 20,4505,2014-12-14 14:15:18:554
0.458,-9.6549,-3.1626,-0.7714,-9.7038,-1.1885,0.6065,0.5581,-1.4953,-5.76,32.65,14.64,252.29,82.06,144.36,0.0,70.601,35.17803,126.90885,,156.1362102110803,,64.51613,,0 / 20,4555,2014-12-14 14:15:18:604
0.5155,-9.5974,-1.3043,-0.334,-9.7211,-1.2486,1.5977,0.2523,0.2276,-1.7,30.78,19.14,229.65,81.69,147.01,0.0,70.601,35.17803,126.90885,,156.1362102110803,,64.51613,,0 / 20,4605,2014-12-14 14:15:18:654
-0.1934,-9.8656,-0.3847,-0.3896,-9.7301,-1.1589,0.1613,0.0071,0.7308,0.18,29.28,18.7,202.46,82.27,162.23,0.0,70.601,35.17803,126.90885,,156.1362102110803,,64.51613,,0 / 20,4655,2014-12-14 14:15:18:704
0.3047,-10.7086,-0.7487,-0.4528,-9.7328,-1.1129,-0.8171,-0.2015,0.1564,2.74,28.59,19.64,202.46,82.27,162.23,0.0,70.601,35.17803,126.90885,,156.1362102110803,,64.51613,,0 / 20,4705,2014-12-14 14:15:18:754
-0.4616,-11.4557,-2.5496,-0.3809,-9.7385,-1.0891,1.183,-0.5432,0.2072,3.87,28.21,20.2,193.11,82.96,157.86,0.0,70.601,35.17803,126.90885,,156.1362102110803,,64.51613,,0 / 20,4755,2014-12-14 14:15:18:804
1.8183,-13.0842,-0.9977,-0.0488,-9.7429,-1.115,3.4308,-2.9103,0.2248,6.43,28.21,19.58,180.7,82.9,162.72,0.0,70.601,35.17803,126.90885,,156.1362102110803,,64.51613,,0 / 20,4805,2014-12-14 14:15:18:854
4.6728,-14.1762,5.267,0.6138,-9.7655,-0.6549,5.4662,-3.5934,4.6959,7.18,26.34,19.14,180.7,82.9,162.72,0.0,70.601,35.17803,126.90885,,156.1362102110803,,64.51613,,0 / 20,4855,2014-12-14 14:15:18:904
1.0902,-12.3945,2.1825,0.7874,-9.7743,-0.1123,-0.0526,-0.1037,-0.7074,5.68,29.65,16.7,111.07,84.75,-136.86,0.0,67.253,35.17803,126.90885,,156.1362102110803,,64.51613,,0 / 20,4905,2014-12-14 14:15:18:954
-4.14,-15.4407,-3.1435,0.4192,-9.7855,-0.4879,-3.8967,-2.5641,-3.182,4.24,31.9,14.95,73.96,85.35,-98.12,0.0,67.253,35.17803,126.90885,,156.1362102110803,,64.51613,,0 / 20,4955,2014-12-14 14:15:19:004
-1.477,-9.6549,-4.4271,-0.3204,-9.7216,-1.248,-0.8599,2.782,-2.8894,-3.51,35.59,8.26,245.02,83.57,165.94,0.0,67.253,35.17803,126.90885,,156.1362102110803,,64.51613,,0 / 20,5054,2014-12-14 14:15:19:103
-1.477,-9.6549,-4.4271,-0.3204,-9.7216,-1.248,-0.8599,2.782,-2.8894,-3.51,35.59,8.26,245.02,83.57,165.94,0.0,67.253,35.17803,126.90885,,156.1362102110803,,64.51613,,0 / 20,5065,2014-12-14 14:15:19:114
-3.0096,-5.7274,-4.0439,-0.4826,-9.6609,-1.6138,-1.7589,4.9676,-2.3573,-7.57,35.21,4.7,245.02,83.57,165.94,0.0,67.253,35.17803,126.90885,,156.1362102110803,,64.51613,,0 / 20,5105,2014-12-14 14:15:19:154
-4.5998,-2.7771,-4.542,-0.897,-9.5586,-2.0,-3.1293,6.6965,-2.0977,-10.2,37.09,4.2,308.96,77.08,155.84,0.0,67.253,35.17803,126.90885,,156.1362102110803,,64.51613,,0 / 20,5155,2014-12-14 14:15:19:204
-4.753,-1.8575,-5.3083,-1.7254,-9.2518,-2.7562,-3.1083,7.0307,-2.5316,-10.13,36.71,3.08,308.96,77.08,155.84,0.0,67.253,35.17803,126.90885,,156.1362102110803,,64.51613,,0 / 20,5205,2014-12-14 14:15:19:254
-6.6497,-6.3596,0.7457,-2.6052,-9.0475,-2.7435,-2.9636,-0.2115,4.4242,-10.51,36.34,5.51,320.18,70.63,147.95,0.0,69.314,35.17803,126.90885,,156.1362102110803,,64.51613,,0 / 20,5255,2014-12-14 14:15:19:304
12.2978,-22.1269,23.1417,-0.0171,-9.7447,1.1,24.1691,-17.893,34.3754,-9.82,33.34,4.2,328.62,67.31,136.48,0.0,69.314,35.17803,126.90885,,156.1362102110803,,64.51613,,0 / 20,5305,2014-12-14 14:15:19:354
0.8987,-1.8766,-6.5536,-0.0171,-9.7447,1.1,24.1691,-17.893,34.3754,-13.13,35.59,4.58,54.53,83.56,0.89,0.0,69.314,35.17803,126.90885,,156.1362102110803,,64.51613,,0 / 20,5355,2014-12-14 14:15:19:404
-21.7848,-17.4906,-1.0935,-1.3668,-9.6901,0.6353,-17.718,-3.5785,-7.2702,-11.63,34.46,8.39,54.53,83.56,0.89,0.0,69.314,35.17803,126.90885,,156.1362102110803,,64.51613,,0 / 20,5405,2014-12-14 14:15:19:454
15.8804,-22.2419,-3.4308,-0.823,-9.7279,0.9275,11.4295,-5.5051,-5.9713,-11.63,34.46,5.14,1.66,81.16,65.07,0.0,69.314,35.17803,126.90885,,156.1362102110803,,64.51613,,0 / 20,5455,2014-12-14 14:15:19:504
1.5883,-9.5208,-5.4233,-2.2191,-9.4764,-1.2014,1.2274,2.1142,-5.1287,-9.45,33.34,10.39,326.85,82.63,84.84,0.0,69.314,35.17803,126.90885,,156.1362102110803,,64.51613,,0 / 20,5505,2014-12-14 14:15:19:554
0.1706,-9.5974,-4.2355,-1.4726,-9.6168,-1.2321,4.3184,-2.558,-0.1476,-7.95,31.53,13.39,326.85,82.63,84.84,0.0,69.314,35.17803,126.90885,,156.1362102110803,,64.51613,,0 / 20,5555,2014-12-14 14:15:19:604
-0.0018,-8.7928,-0.8636,-1.2711,-9.612,-1.4709,1.3021,0.8042,-0.9238,-6.13,31.15,14.83,279.04,78.71,129.92,0.0,69.925,35.17803,126.90885,,156.1362102110803,,64.51613,,0 / 20,5605,2014-12-14 14:15:19:654
-1.8027,-8.6586,-0.2697,-1.2872,-9.6338,-1.3049,-0.2513,1.036,0.9719,-5.76,27.84,21.76,253.04,79.23,135.39,0.0,69.925,35.17803,126.90885,,156.1362102110803,,64.51613,,0 / 20,5655,2014-12-14 14:15:19:704
1.3393,-10.2105,-0.9211,-0.7644,-9.6885,-1.311,2.2428,-0.4322,0.3293,-2.45,28.96,21.76,223.94,81.1,149.75,0.0,69.925,35.17803,126.90885,,156.1362102110803,,64.51613,,0 / 20,5705,2014-12-14 14:15:19:754
-0.1934,-9.4058,-1.3617,-0.6403,-9.6999,-1.2929,0.3652,0.4725,0.1096,-1.32,27.09,21.76,223.94,81.1,149.75,0.0,69.925,35.17803,126.90885,,156.1362102110803,,64.51613,,0 / 20,5755,2014-12-14 14:15:19:804
-1.1896,-9.4441,-1.8982,-0.7618,-9.697,-1.248,-0.5221,0.3113,-0.4136,-1.7,25.65,23.7,216.9,81.54,153.65,0.0,69.925,35.17803,126.90885,,156.1362102110803,,64.51613,,0 / 20,5805,2014-12-14 14:15:19:854
-0.9789,-8.8885,-2.3771,-0.7929,-9.6752,-1.3903,-0.2376,0.843,-0.931,1.3,24.9,24.89,212.85,80.61,150.3,0.0,69.925,35.17803,126.90885,,156.1362102110803,,64.51613,,0 / 20,5855,2014-12-14 14:15:19:904
-1.8218,-8.9077,-1.5342,-0.8017,-9.6684,-1.4315,-0.0678,0.7717,-0.4784,3.12,23.78,25.01,212.85,80.61,150.3,0.0,67.73,35.17803,126.90885,,156.1362102110803,,64.51613,,0 / 20,5905,2014-12-14 14:15:19:954
2.393,-11.6473,-0.9786,-0.8274,-9.6582,-1.485,-0.489,0.2913,-0.3996,6.05,22.28,26.14,201.91,80.02,150.88,0.0,67.73,35.17803,126.90885,,156.1362102110803,,64.51613,,0 / 20,5955,2014-12-14 14:15:20:004
4.4621,-13.9846,-0.9786,-0.2548,-9.6902,-1.4853,5.0163,-4.1725,1.0262,7.55,21.21,27.51,194.54,78.84,151.79,0.0,67.73,35.17803,126.90885,,156.1362102110803,,64.51613,,0 / 20,6005,2014-12-14 14:15:20:054
2.7953,-13.7739,-2.4538,0.2597,-9.7387,-1.1232,3.0082,-2.7272,1.3174,8.99,22.65,26.2,194.54,78.84,151.79,0.0,67.73,35.17803,126.90885,,156.1362102110803,,64.51613,,0 / 20,6055,2014-12-14 14:15:20:104
-7.0329,-12.6627,-4.7144,-0.3683,-9.6721,-1.5763,-5.5484,-1.0675,-2.6536,5.68,27.84,23.57,141.83,83.25,-166.98,0.0,67.73,35.17803,126.90885,,156.1362102110803,,64.51613,,0 / 20,6105,2014-12-14 14:15:20:154
-7.052,-13.8697,-3.2584,-1.0927,-9.598,-1.6895,-5.83,-2.8943,-1.0325,3.12,32.28,23.45,187.53,80.5,166.85,0.0,67.73,35.17803,126.90885,,156.1362102110803,,64.51613,,0 / 20,6155,2014-12-14 14:15:20:204
-3.6227,-11.2833,-4.3313,-1.531,-9.5078,-1.8517,-2.3612,-0.134,-1.9771,-0.2,32.65,20.64,187.53,80.5,166.85,0.0,67.73,35.17803,126.90885,,156.1362102110803,,64.51613,,0 / 20,6205,2014-12-14 14:15:20:254
-4.2358,-9.9997,-3.8906,-1.7397,-9.4238,-2.0821,-2.0155,1.0639,-1.6467,-2.07,33.71,20.64,247.68,75.82,140.42,0.0,67.974,35.17803,126.90885,,156.1362102110803,,64.51613,,0 / 20,6255,2014-12-14 14:15:20:304
-1.7452,-6.9919,-4.0822,-2.1766,-9.2325,-2.4886,0.8301,3.2764,-1.2123,-6.13,34.84,19.33,275.54,71.33,137.88,0.0,67.974,35.17803,126.90885,,156.1362102110803,,64.51613,,0 / 20,6305,2014-12-14 14:15:20:354
-2.3199,-7.4517,-1.7641,-2.1296,-9.1704,-2.7457,0.3824,2.8815,0.0727,-7.95,35.21,17.14,275.54,71.33,137.88,0.0,67.974,35.17803,126.90885,,156.1362102110803,,64.51613,,0 / 20,6355,2014-12-14 14:15:20:404
-1.3237,-7.6624,-0.9019,-2.147,-9.222,-2.5525,0.6913,1.7087,1.6949,-10.51,34.84,16.26,291.11,69.16,141.41,0.0,67.974,35.17803,126.90885,,156.1362102110803,,64.51613,,0 / 20,6405,2014-12-14 14:15:20:454
-3.3545,-7.3559,-1.5533,-2.3093,-9.2123,-2.4434,-1.0317,1.829,1.0307,-12.76,35.96,16.26,291.11,69.16,141.41,0.0,67.974,35.17803,126.90885,,156.1362102110803,,64.51613,,0 / 20,6455,2014-12-14 14:15:20:504
-1.0938,-11.2642,0.056,-2.3395,-9.2824,-2.1294,0.9517,-1.3459,1.9857,-12.76,34.84,16.83,293.33,69.95,136.62,0.0,67.974,35.17803,126.90885,,156.1362102110803,,64.51613,,0 / 20,6505,2014-12-14 14:15:20:554
-0.5957,-19.713,7.6427,-1.9459,-9.5569,-1.0247,1.6988,-8.269,8.7511,-12.38,35.21,15.08,297.86,71.18,132.31,0.0,67.974,35.17803,126.90885,,156.1362102110803,,64.51613,,0 / 20,6555,2014-12-14 14:15:20:604
-2.4349,-6.3022,-2.5496,-1.8463,-9.6014,-0.7583,0.058,2.5995,-1.3223,-12.76,35.59,17.89,301.7,78.66,109.6,0.0,64.738,35.17803,126.90885,,156.1362102110803,,64.51613,,0 / 20,6605,2014-12-14 14:15:20:654
1.5883,-10.8427,0.7265,-1.4045,-9.6911,-0.5289,3.7679,-1.4727,2.3829,-11.63,34.09,16.26,301.7,78.66,109.6,0.0,64.738,35.17803,126.90885,,156.1362102110803,,64.51613,,0 / 20,6655,2014-12-14 14:15:20:704
0.4389,-9.5782,2.0484,-1.1696,-9.7359,-0.1197,0.9853,-0.1782,2.7481,-11.63,35.59,18.14,295.46,81.2,110.64,0.0,64.738,35.17803,126.90885,,156.1362102110803,,64.51613,,0 / 20,6705,2014-12-14 14:15:20:754
0.9944,-8.9269,0.3433,-0.8091,-9.7728,0.0869,1.7159,0.7096,0.3578,-10.88,35.21,16.89,306.5,83.11,95.84,0.0,64.738,35.17803,126.90885,,156.1362102110803,,64.51613,,0 / 20,6755,2014-12-14 14:15:20:804
-0.4233,-10.038,0.8606,-0.7021,-9.7796,0.1897,0.47,-0.1949,0.5496,-11.63,35.59,18.14,322.99,85.75,74.88,0.0,64.738,35.17803,126.90885,,156.1362102110803,,64.51613,,0 / 20,6805,2014-12-14 14:15:20:854
-0.5957,-9.4633,0.3817,-0.6755,-9.7803,0.2447,0.1026,0.0986,0.2292,-12.76,36.71,17.01,322.99,85.75,74.88,0.0,64.738,35.17803,126.90885,,156.1362102110803,,64.51613,,0 / 20,6855,2014-12-14 14:15:20:904
0.2473,-9.4825,1.397,-0.6516,-9.7802,0.3068,0.2425,0.0924,0.6455,-12.38,35.59,17.76,327.31,85.8,70.09,0.0,64.738,35.17803,126.90885,,156.1362102110803,,64.51613,,0 / 20,6905,2014-12-14 14:15:20:954
0.7454,-9.5782,1.5695,-0.4171,-9.7807,0.5781,1.1075,0.1145,1.0036,-11.63,34.84,16.14,353.18,85.86,44.53,0.0,57.926,35.17803,126.90885,,156.1362102110803,,64.51613,,0 / 20,6955,2014-12-14 14:15:21:004
0.937,-9.6166,1.5312,-0.325,-9.7804,0.6399,1.2754,0.0672,0.8505,-12.01,36.71,17.01,353.18,85.86,44.53,0.0,57.926,35.17803,126.90885,,156.1362102110803,,64.51613,,0 / 20,7005,2014-12-14 14:15:21:054
0.0557,-9.425,1.3204,-0.1176,-9.7692,0.8479,0.2606,0.1909,0.4757,-12.01,35.96,16.14,4.0,85.8,26.93,0.0,57.926,35.17803,126.90885,,156.1362102110803,,64.51613,,0 / 20,7055,2014-12-14 14:15:21:104
0.0557,-9.5974,0.9373,-0.1113,-9.7676,0.8668,0.0888,0.1528,0.2487,-10.88,36.34,16.89,22.23,84.89,7.32,0.0,57.926,35.17803,126.90885,,156.1362102110803,,64.51613,,0 / 20,7105,2014-12-14 14:15:21:154
0.1898,-9.7315,0.7265,-0.0858,-9.7679,0.8661,0.1833,0.0714,-0.0795,-10.88,35.59,18.39,22.52,84.91,5.66,0.0,57.926,35.17803,126.90885,,156.1362102110803,,64.51613,,0 / 20,7155,2014-12-14 14:15:21:204
-0.1167,-9.6357,0.9181,-0.056,-9.7713,0.8299,-0.0278,0.1393,-0.0727,-10.88,35.59,18.64,22.52,84.91,5.66,0.0,57.926,35.17803,126.90885,,156.1362102110803,,64.51613,,0 / 20,7205,2014-12-14 14:15:21:254
-0.0784,-9.6357,0.7074,-0.0508,-9.7705,0.8397,0.0732,-0.2038,0.0692,-10.57,35.21,18.89,23.55,85.08,3.46,0.0,50.773,35.17803,126.90885,,156.1362102110803,,64.51613,,0 / 20,7255,2014-12-14 14:15:21:304
0.1323,-9.6357,0.2284,-0.0499,-9.7733,0.806,0.0341,0.0176,-0.3308,-12.38,34.84,19.2,23.55,85.08,3.46,0.0,50.773,35.17803,126.90885,,156.1362102110803,,64.51613,,0 / 20,7305,2014-12-14 14:15:21:354
-0.0976,-9.3675,0.6116,-0.0423,-9.7822,0.691,-0.036,0.2953,-0.5769,-11.26,34.84,17.7,24.62,85.28,3.54,0.0,50.773,35.17803,126.90885,,156.1362102110803,,64.51613,,0 / 20,7356,2014-12-14 14:15:21:405
0.9944,-10.1913,0.4391,-0.0321,-9.785,0.6509,0.141,0.1362,-0.5627,-10.57,34.46,18.83,24.06,85.95,3.5,0.0,50.773,35.17803,126.90885,,156.1362102110803,,64.51613,,0 / 20,7405,2014-12-14 14:15:21:454
-0.021,-9.4825,-0.0781,0.0528,-9.7893,0.5813,0.8617,-0.5654,-0.1082,-10.88,34.46,18.64,24.06,85.95,3.5,0.0,50.773,35.17803,126.90885,,156.1362102110803,,64.51613,,0 / 20,7455,2014-12-14 14:15:21:504
-0.5765,-9.31,-0.1931,0.0656,-9.794,0.4935,-0.1362,0.2589,-0.5582,-10.2,34.46,21.76,27.46,86.59,-5.19,0.0,50.773,35.17803,126.90885,,156.1362102110803,,64.51613,,0 / 20,7505,2014-12-14 14:15:21:554
-0.1167,-9.5782,-0.4805,0.0221,-9.8017,0.3106,-0.1532,-0.0424,-0.7163,-8.32,32.65,21.95,28.78,87.09,-7.57,0.0,50.773,35.17803,126.90885,,156.1362102110803,,64.51613,,0 / 20,7555,2014-12-14 14:15:21:604
0.2473,-9.8465,-0.0973,0.0208,-9.803,0.2654,-0.0173,0.1285,-0.6273,-7.2,33.78,20.64,21.48,88.18,-4.06,0.0,69.547,35.17803,126.90885,,156.1362102110803,,64.51613,,0 / 20,7605,2014-12-14 14:15:21:654
0.4772,-10.0189,0.4391,0.0628,-9.8029,0.2627,0.385,-0.2943,0.2291,-6.82,31.9,21.51,21.48,88.18,-4.06,0.0,69.547,35.17803,126.90885,,156.1362102110803,,64.51613,,0 / 20,7655,2014-12-14 14:15:21:704
-0.7298,-9.3292,-0.7487,0.1867,-9.7988,0.3441,0.9172,-0.0467,0.7064,-9.07,33.03,18.76,32.3,88.42,-13.44,0.0,69.547,35.17803,126.90885,,156.1362102110803,,64.51613,,0 / 20,7705,2014-12-14 14:15:21:754
0.9944,-9.3483,-1.8407,0.1839,-9.8048,0.0411,-0.135,0.1398,-1.0705,-9.82,32.65,17.45,46.75,88.24,-18.41,0.0,69.547,35.17803,126.90885,,156.1362102110803,,64.51613,,0 / 20,7755,2014-12-14 14:15:21:804