ACCELEROMETER X (m/s²),ACCELEROMETER Y (m/s²),ACCELEROMETER Z (m/s²),GRAVITY X (m/s²),GRAVITY Y (m/s²),GRAVITY Z (m/s²),LINEAR ACCELERATION X (m/s²),LINEAR ACCELERATION Y (m/s²),LINEAR ACCELERATION Z (m/s²),MAGNETIC FIELD X (μT),MAGNETIC FIELD Y (μT),MAGNETIC FIELD Z (μT),ORIENTATION X (°),ORIENTATION Y (°),ORIENTATION Z (°),PROXIMITY (i),SOUND LEVEL (dB),LOCATION Latitude : ,LOCATION Longitude : ,LOCATION Altitude ( m),LOCATION Altitude-google ( m),LOCATION Speed ( Kmh),LOCATION Accuracy ( m),LOCATION ORIENTATION (°),Satellites in range,Time since start in ms ,YYYY-MO-DD HH-MI-SS_SSS
0.6879,-9.6932,0.8415,0.4845,-9.7725,0.6594,0.1528,-0.0122,0.3199,-9.45,34.84,1.7,107.13,85.77,-37.12,0.0,71.322,35.178005,126.90888,,155.68817084032057,,71.18387,,0 / 20,4,2014-12-14 14:17:04:452
0.7262,-9.6357,0.8606,0.503,-9.771,0.6672,0.257,-0.0188,0.1111,-7.95,34.84,2.2,91.46,85.21,-36.31,0.0,60.841,35.178005,126.90888,,155.68817084032057,,71.18387,,0 / 20,54,2014-12-14 14:17:04:502
0.6496,-9.789,0.7457,0.5397,-9.7659,0.7114,0.1157,-0.1269,0.0523,-7.95,35.59,3.08,84.6,84.92,-37.01,0.0,60.841,35.178005,126.90888,,155.68817084032057,,71.18387,,0 / 20,104,2014-12-14 14:17:04:552
0.2664,-9.4825,0.1518,0.5286,-9.77,0.6618,-0.178,0.1809,-0.4676,-7.57,35.96,-1.17,84.6,84.92,-37.01,0.0,60.841,35.178005,126.90888,,155.68817084032057,,71.18387,,0 / 20,154,2014-12-14 14:17:04:602
1.0328,-9.7124,1.2246,0.577,-9.7662,0.6776,0.4602,-0.0583,0.1658,-7.57,32.96,0.01,108.77,85.05,-38.62,0.0,60.841,35.178005,126.90888,,155.68817084032057,,71.18387,,0 / 20,204,2014-12-14 14:17:04:652
1.3776,-10.153,1.7802,0.6157,-9.7599,0.7312,0.5526,-0.2098,0.7621,-6.07,32.28,-0.24,99.0,84.41,-40.1,0.0,60.841,35.178005,126.90888,,155.68817084032057,,71.18387,,0 / 20,254,2014-12-14 14:17:04:702
3.7341,-10.8044,2.8339,0.7876,-9.7318,0.9172,2.101,-0.7526,1.673,-7.95,31.9,-1.24,99.0,84.41,-40.1,0.0,60.841,35.178005,126.90888,,155.68817084032057,,71.18387,,0 / 20,308,2014-12-14 14:17:04:756
5.6116,-11.8389,3.0255,1.1291,-9.6746,1.1393,2.9947,-1.1251,1.7526,-6.45,32.96,-0.42,110.07,82.92,-40.65,0.0,60.841,35.178005,126.90888,,155.68817084032057,,71.18387,,0 / 20,355,2014-12-14 14:17:04:803
-0.8639,-9.7507,-0.4996,1.2475,-9.6607,1.1334,-2.8283,0.9297,-2.1946,-7.95,32.59,-1.67,91.65,77.61,-49.1,0.0,64.083,35.178005,126.90888,,155.68817084032057,,71.18387,,0 / 20,404,2014-12-14 14:17:04:852
0.2856,-10.7277,0.5349,0.9991,-9.7088,0.9543,-1.5969,-0.6266,-1.0978,-9.76,30.78,-5.61,159.57,81.9,-46.32,0.0,64.083,35.178005,126.90888,,155.68817084032057,,71.18387,,0 / 20,454,2014-12-14 14:17:04:902
-0.5957,-8.7161,0.4008,0.7799,-9.7362,0.8762,-1.168,1.4521,-0.5803,-9.45,29.28,-5.17,159.57,81.9,-46.32,0.0,64.083,35.178005,126.90888,,155.68817084032057,,71.18387,,0 / 20,504,2014-12-14 14:17:04:952
-0.2508,-7.0302,0.4008,0.6944,-9.7476,0.8196,-0.8347,2.1191,-0.4645,-10.13,29.65,-1.99,134.07,83.13,-41.67,0.0,64.083,35.178005,126.90888,,155.68817084032057,,71.18387,,0 / 20,554,2014-12-14 14:17:05:002
-0.3275,-6.7045,0.1518,0.5346,-9.7615,0.7732,-0.93,2.5442,-0.3949,-10.88,28.21,-4.11,137.45,84.23,-36.99,0.0,64.083,35.178005,126.90888,,155.68817084032057,,71.18387,,0 / 20,604,2014-12-14 14:17:05:052
-0.3849,-6.4554,2.3741,0.3218,-9.7574,0.9273,-1.6319,2.3076,1.2642,-10.51,28.21,-2.55,137.45,84.23,-36.99,0.0,64.083,35.178005,126.90888,,155.68817084032057,,71.18387,,0 / 20,657,2014-12-14 14:17:05:105
2.7953,-7.1451,3.0255,0.4,-9.722,1.2218,1.4432,1.922,1.7752,-9.76,28.15,-3.99,117.41,84.26,-19.14,0.0,64.083,35.178005,126.90888,,155.68817084032057,,71.18387,,0 / 20,704,2014-12-14 14:17:05:152
3.3892,-11.8581,8.0258,0.7621,-9.582,1.943,1.4404,-3.0956,4.909,-7.95,25.21,-0.86,77.6,77.71,-21.42,0.0,62.925,35.178005,126.90888,,155.68817084032057,,71.18387,,0 / 20,754,2014-12-14 14:17:05:202
2.5079,-9.6357,4.3091,1.1213,-9.3924,2.5877,2.0011,-1.2752,3.3435,-6.82,25.96,-0.86,77.6,77.71,-21.42,0.0,62.925,35.178005,126.90888,,155.68817084032057,,71.18387,,0 / 20,804,2014-12-14 14:17:05:252
0.937,-19.8854,11.2253,0.7801,-9.4717,2.4184,-4.2648,-1.6285,-1.7499,-6.45,25.21,0.39,48.3,73.29,-23.43,0.0,62.925,35.178005,126.90888,,155.68817084032057,,71.18387,,0 / 20,854,2014-12-14 14:17:05:302
3.1019,-9.3675,-0.3655,0.9093,-9.3996,2.644,4.078,-4.6653,1.6704,-6.82,23.78,-0.05,54.85,73.43,-18.98,0.0,62.925,35.178005,126.90888,,155.68817084032057,,71.18387,,0 / 20,904,2014-12-14 14:17:05:352
4.7303,-15.2108,1.627,-0.063,-9.7713,0.8297,-5.14,5.7861,-11.1617,-5.76,24.15,1.76,54.85,73.43,-18.98,0.0,62.925,35.178005,126.90888,,155.68817084032057,,71.18387,,0 / 20,954,2014-12-14 14:17:05:402
-4.9638,-8.5629,-2.5112,-0.1168,-9.7921,0.5203,-2.8498,-2.9454,-1.8216,-5.76,24.15,3.95,45.98,85.13,4.34,0.0,62.925,35.178005,126.90888,,155.68817084032057,,71.18387,,0 / 20,1004,2014-12-14 14:17:05:452
0.1132,-8.3904,-1.9557,-0.3542,-9.8002,-0.0402,1.6544,0.0951,-2.0031,-4.63,23.78,6.58,343.71,87.01,54.15,0.0,62.925,35.178005,126.90888,,155.68817084032057,,71.18387,,0 / 20,1054,2014-12-14 14:17:05:502
1.4542,-10.3637,-1.1127,-0.1613,-9.7972,-0.4,1.4614,-0.8988,-1.7821,-2.07,21.53,9.33,218.24,87.48,158.04,0.0,65.333,35.178005,126.90888,,155.68817084032057,,71.18387,,0 / 20,1104,2014-12-14 14:17:05:552
-1.4387,-8.5437,-0.9786,-0.0492,-9.7943,-0.4886,-0.0257,-0.1722,-0.4291,-1.7,21.53,10.2,218.24,87.48,158.04,0.0,65.333,35.178005,126.90888,,155.68817084032057,,71.18387,,0 / 20,1154,2014-12-14 14:17:05:602
0.0557,-9.6932,-1.7258,-0.22,-9.7787,-0.7066,0.3506,-0.3467,-0.9151,-0.57,21.15,9.95,192.8,87.13,174.25,0.0,65.333,35.178005,126.90888,,155.68817084032057,,71.18387,,0 / 20,1204,2014-12-14 14:17:05:652
-1.1896,-9.2525,-1.1702,-0.2795,-9.7665,-0.8418,-0.863,0.0308,-0.4903,2.37,18.96,13.14,185.63,85.42,166.29,0.0,65.333,35.178005,126.90888,,155.68817084032057,,71.18387,,0 / 20,1254,2014-12-14 14:17:05:702
-0.0784,-10.1721,-0.423,-0.2855,-9.7657,-0.8483,0.3035,-0.7634,0.162,3.49,18.96,12.2,185.63,85.42,166.29,0.0,65.333,35.178005,126.90888,,155.68817084032057,,71.18387,,0 / 20,1304,2014-12-14 14:17:05:752
-1.6685,-9.2334,-1.1702,-0.4147,-9.7592,-0.8703,-1.102,0.0335,-0.3362,6.43,17.84,14.58,176.42,84.76,161.4,0.0,65.333,35.178005,126.90888,,155.68817084032057,,71.18387,,0 / 20,1354,2014-12-14 14:17:05:802
3.5808,-12.6053,-0.2506,-0.4649,-9.7573,-0.8662,0.097,-2.2435,0.1392,7.93,17.09,13.51,178.29,84.25,151.78,0.0,68.846,35.178005,126.90888,,155.68817084032057,,71.18387,,0 / 20,1404,2014-12-14 14:17:05:852
4.213,-14.5977,0.5924,-0.0693,-9.7779,-0.7477,3.4527,-2.5163,0.5394,7.93,17.09,13.51,178.29,84.25,151.78,0.0,68.846,35.178005,126.90888,,155.68817084032057,,71.18387,,0 / 20,1454,2014-12-14 14:17:05:902
0.5921,-13.2375,5.1521,0.5143,-9.779,-0.5261,5.0292,-4.6606,1.871,11.24,18.96,13.14,148.02,85.61,174.71,0.0,68.846,35.178005,126.90888,,155.68817084032057,,71.18387,,0 / 20,1504,2014-12-14 14:17:05:952
0.6496,-10.7086,-6.0172,0.9763,-9.7533,0.3013,-0.4097,-1.7089,2.9447,10.49,21.9,10.64,26.72,84.02,-72.85,0.0,68.846,35.178005,126.90888,,155.68817084032057,,71.18387,,0 / 20,1554,2014-12-14 14:17:06:002
-3.3162,-17.1458,-3.2776,0.7532,-9.7653,-0.491,-3.234,-3.8756,-4.3497,9.05,25.96,10.01,26.72,84.02,-72.85,0.0,68.846,35.178005,126.90888,,155.68817084032057,,71.18387,,0 / 20,1604,2014-12-14 14:17:06:052
-3.4503,-13.8122,-3.2393,0.0764,-9.7777,-0.7486,-3.1516,-2.431,-1.8936,3.49,29.28,9.26,80.05,84.74,-123.1,0.0,68.846,35.178005,126.90888,,155.68817084032057,,71.18387,,0 / 20,1654,2014-12-14 14:17:06:102
-2.8947,-10.1338,-3.9864,-0.2681,-9.7517,-1.0017,-2.8537,1.2238,-2.3453,0.18,30.78,6.14,170.33,85.6,-174.17,0.0,68.846,35.178005,126.90888,,155.68817084032057,,71.18387,,0 / 20,1704,2014-12-14 14:17:06:152
-4.4465,-3.6583,-3.6991,-0.957,-9.6235,-1.6256,-3.3904,6.5405,-1.6139,-5.76,31.53,3.58,293.92,81.66,158.58,0.0,70.712,35.178005,126.90888,,155.68817084032057,,71.18387,,0 / 20,1754,2014-12-14 14:17:06:202
-4.4848,-1.9724,-5.0401,-1.4496,-9.4759,-2.0679,-2.8799,7.6103,-2.4662,-7.95,29.28,1.76,293.92,81.66,158.58,0.0,70.712,35.178005,126.90888,,155.68817084032057,,71.18387,,0 / 20,1804,2014-12-14 14:17:06:252
-4.4082,-1.2252,-5.5766,-1.7033,-9.3616,-2.3725,-2.6179,7.637,-2.9333,-7.57,31.15,1.33,328.5,75.08,144.97,0.0,70.712,35.178005,126.90888,,155.68817084032057,,71.18387,,0 / 20,1854,2014-12-14 14:17:06:302
0.822,-15.3066,8.5431,-2.2563,-9.1584,-2.6838,1.1484,-2.4092,5.9244,-7.57,30.78,5.01,322.8,67.67,143.94,0.0,70.712,35.178005,126.90888,,155.68817084032057,,71.18387,,0 / 20,1904,2014-12-14 14:17:06:352
7.1443,-20.8625,21.0343,0.167,-9.6964,1.4567,15.7747,-14.9692,27.926,-8.32,29.65,5.26,322.8,67.67,143.94,0.0,70.712,35.178005,126.90888,,155.68817084032057,,71.18387,,0 / 20,1954,2014-12-14 14:17:06:402
-0.155,-6.6087,1.7419,0.1464,-9.6021,1.9872,-0.6813,3.3954,0.1744,-8.32,26.71,5.01,46.63,81.4,-6.54,0.0,70.712,35.178005,126.90888,,155.68817084032057,,71.18387,,0 / 20,2004,2014-12-14 14:17:06:452
7.2592,-17.778,-3.3351,-0.3457,-9.7424,1.0659,7.2433,-3.4382,-5.1878,-9.82,28.21,6.89,20.83,81.31,27.31,0.0,70.712,35.178005,126.90888,,155.68817084032057,,71.18387,,0 / 20,2054,2014-12-14 14:17:06:502
-14.3897,2.6831,-19.9453,-1.7409,-9.6097,-0.8907,-14.2542,12.7594,-15.2689,-10.51,26.34,10.64,20.83,81.31,27.31,0.0,70.712,35.178005,126.90888,,155.68817084032057,,71.18387,,0 / 20,2104,2014-12-14 14:17:06:552
2.2972,-11.1109,-2.3197,-0.9225,-9.7082,-1.0347,2.9911,0.0049,-2.0884,-7.57,23.4,12.83,288.42,79.58,122.56,0.0,66.969,35.178005,126.90888,,155.68817084032057,,71.18387,,0 / 20,2154,2014-12-14 14:17:06:602
0.9561,-8.7928,-4.7336,-0.8006,-9.6872,-1.2993,1.9203,1.6684,-3.7413,-6.82,25.21,14.01,252.26,81.05,148.36,0.0,66.969,35.178005,126.90888,,155.68817084032057,,71.18387,,0 / 20,2204,2014-12-14 14:17:06:652
-1.2662,-9.2717,0.3817,-0.8677,-9.6943,-1.1996,-0.7288,0.8018,1.5825,-4.63,21.9,18.7,230.5,80.96,152.45,0.0,66.969,35.178005,126.90888,,155.68817084032057,,71.18387,,0 / 20,2254,2014-12-14 14:17:06:702
2.4313,-9.9039,-2.4538,-0.5389,-9.7143,-1.2301,2.9462,0.0534,-0.979,-1.7,21.53,18.7,230.5,80.96,152.45,0.0,66.969,35.178005,126.90888,,155.68817084032057,,71.18387,,0 / 20,2304,2014-12-14 14:17:06:752
1.2244,-9.5782,-0.8253,-0.3949,-9.7235,-1.2117,2.0477,-0.1702,0.2572,-0.57,20.84,19.14,211.45,82.13,156.34,0.0,66.969,35.178005,126.90888,,155.68817084032057,,71.18387,,0 / 20,2355,2014-12-14 14:17:06:803
-2.3008,-9.8465,-0.8253,-0.3872,-9.7313,-1.1495,-1.7086,0.0742,0.2911,1.3,20.84,21.51,189.23,82.94,169.31,0.0,66.969,35.178005,126.90888,,155.68817084032057,,71.18387,,0 / 20,2404,2014-12-14 14:17:06:852
-1.9176,-9.5208,-0.0781,-0.4948,-9.7316,-1.1055,-1.5283,-0.2225,0.5958,2.74,19.71,22.64,189.23,82.94,169.31,0.0,71.035,35.178005,126.90888,,155.68817084032057,,71.18387,,0 / 20,2455,2014-12-14 14:17:06:903
1.301,-11.1301,-0.7487,-0.5704,-9.7403,-0.9858,0.163,-0.2814,0.7802,3.87,18.59,23.08,195.94,82.91,155.89,0.0,71.035,35.178005,126.90888,,155.68817084032057,,71.18387,,0 / 20,2504,2014-12-14 14:17:06:952
6.1097,-14.5786,2.7381,0.6634,-9.773,-0.4681,6.2263,-4.5051,3.3885,8.3,17.84,21.51,156.31,84.82,-177.98,0.0,71.035,35.178005,126.90888,,155.68817084032057,,71.18387,,0 / 20,2554,2014-12-14 14:17:07:002
6.8377,-15.2108,3.5619,1.2211,-9.7298,0.1035,2.8775,-3.0639,5.0868,8.68,18.96,22.64,156.31,84.82,-177.98,0.0,71.035,35.178005,126.90888,,155.68817084032057,,71.18387,,0 / 20,2604,2014-12-14 14:17:07:052
-2.9713,-13.9655,-6.4195,1.2655,-9.7233,0.1621,0.9756,-1.806,0.9929,7.18,21.53,22.2,61.64,82.82,-85.16,0.0,71.035,35.178005,126.90888,,155.68817084032057,,71.18387,,0 / 20,2655,2014-12-14 14:17:07:103
-1.9559,-17.2032,-1.515,0.8605,-9.7569,-0.4834,-4.779,-3.0847,-4.9234,5.37,25.21,23.95,61.64,82.82,-85.16,0.0,71.035,35.178005,126.90888,,155.68817084032057,,71.18387,,0 / 20,2707,2014-12-14 14:17:07:155
-2.7606,-15.9963,-1.7832,0.0909,-9.7851,-0.6429,-2.7694,-3.3166,-1.0437,1.62,31.15,22.83,106.81,84.22,-119.33,0.0,71.035,35.178005,126.90888,,155.68817084032057,,71.18387,,0 / 20,2754,2014-12-14 14:17:07:202
-2.1092,-7.0877,-4.0631,-0.5059,-9.709,-1.2841,-1.3949,4.6832,-2.513,-7.2,40.34,12.64,239.79,84.26,162.22,0.0,69.126,35.178005,126.90888,,155.68817084032057,,71.18387,,0 / 20,2804,2014-12-14 14:17:07:252
-4.7722,-3.4859,-4.0247,-0.8985,-9.6288,-1.6279,-3.5353,7.2221,-2.004,-12.76,40.71,10.83,239.79,84.26,162.22,0.0,69.126,35.178005,126.90888,,155.68817084032057,,71.18387,,0 / 20,2854,2014-12-14 14:17:07:302
-4.6189,-1.8191,-4.8486,-1.4156,-9.475,-2.0954,-3.054,8.0361,-2.4305,-14.2,42.21,9.7,289.38,79.07,151.1,0.0,69.126,35.178005,126.90888,,155.68817084032057,,71.18387,,0 / 20,2904,2014-12-14 14:17:07:352
-4.8105,-2.8154,-1.994,-2.4727,-8.929,-3.2139,-2.2682,5.7223,0.0967,-14.2,42.21,13.7,300.03,70.07,144.34,0.0,69.126,35.178005,126.90888,,155.68817084032057,,71.18387,,0 / 20,2954,2014-12-14 14:17:07:402
2.393,-17.9504,10.8996,-1.8377,-9.5315,-1.394,8.5297,-11.0125,18.27,-14.95,41.84,15.7,300.03,70.07,144.34,0.0,69.126,35.178005,126.90888,,155.68817084032057,,71.18387,,0 / 20,3004,2014-12-14 14:17:07:452
-1.7452,-13.2758,8.0067,0.1518,-9.7345,1.1773,26.194,-20.3946,35.6433,-15.32,45.15,13.26,306.86,76.4,127.18,0.0,69.126,35.178005,126.90888,,155.68817084032057,,71.18387,,0 / 20,3054,2014-12-14 14:17:07:502
-6.9946,0.7098,-21.8994,0.1348,-9.6553,1.711,0.8858,6.5069,-2.2215,-17.88,45.15,12.26,306.86,76.4,127.18,0.0,69.126,35.178005,126.90888,,155.68817084032057,,71.18387,,0 / 20,3104,2014-12-14 14:17:07:552
5.3817,-9.5782,-5.7682,-0.197,-9.8046,-0.0327,8.4687,-1.8071,-3.0165,-17.88,45.15,13.14,43.28,79.92,-4.51,0.0,68.055,35.178005,126.90888,,155.68817084032057,,71.18387,,0 / 20,3154,2014-12-14 14:17:07:602
-16.7078,2.3957,-14.9258,-1.7111,-9.5003,-1.7281,-12.4576,10.3595,-10.8202,-16.82,42.59,13.95,312.77,88.83,99.42,0.0,68.055,35.178005,126.90888,,155.68817084032057,,71.18387,,0 / 20,3204,2014-12-14 14:17:07:652
3.1976,-10.3254,-3.2009,-1.7639,-9.4586,-1.8498,4.1924,-1.6692,-0.3946,-12.01,41.09,19.76,281.57,74.69,137.07,0.0,68.055,35.178005,126.90888,,155.68817084032057,,71.18387,,0 / 20,3254,2014-12-14 14:17:07:702
-0.7106,-8.6395,-3.7757,-0.9648,-9.5147,-2.1701,0.0924,0.7805,-1.232,-11.63,40.71,21.76,281.57,74.69,137.07,0.0,68.055,35.178005,126.90888,,155.68817084032057,,71.18387,,0 / 20,3304,2014-12-14 14:17:07:752
-0.2125,-9.8081,-1.4192,-1.0186,-9.5265,-2.0923,-0.6819,0.4647,1.2208,-9.07,40.34,22.64,247.84,75.99,156.03,0.0,68.055,35.178005,126.90888,,155.68817084032057,,71.18387,,0 / 20,3354,2014-12-14 14:17:07:802
1.7799,-10.3063,-1.1319,-0.7231,-9.6005,-1.8651,2.5742,-0.6038,0.5889,-6.82,39.65,25.08,247.84,75.99,156.03,0.0,68.055,35.178005,126.90888,,155.68817084032057,,71.18387,,0 / 20,3404,2014-12-14 14:17:07:852
0.9561,-9.4633,-1.7449,-0.5912,-9.6219,-1.7998,1.8326,-0.2163,0.9193,-2.07,37.78,28.95,219.4,78.23,158.81,0.0,70.62,35.178005,126.90888,,155.68817084032057,,71.18387,,0 / 20,3454,2014-12-14 14:17:07:902
-2.7414,-9.6357,0.1901,-0.5954,-9.6575,-1.5963,-1.9668,-0.0638,1.4948,0.55,37.4,29.39,200.03,79.43,166.86,0.0,70.62,35.178005,126.90888,,155.68817084032057,,71.18387,,0 / 20,3504,2014-12-14 14:17:07:952
-0.27,-9.5974,-0.0015,-0.7351,-9.6755,-1.4195,-0.1888,-0.0881,1.3453,2.74,35.59,31.08,198.94,80.0,159.55,0.0,70.62,35.178005,126.90888,,155.68817084032057,,71.18387,,0 / 20,3554,2014-12-14 14:17:08:002
0.5921,-10.9385,-1.3234,-0.337,-9.707,-1.3531,3.3064,-1.9122,0.1144,7.18,36.28,31.83,198.94,80.0,159.55,0.0,70.62,35.178005,126.90888,,155.68817084032057,,71.18387,,0 / 20,3604,2014-12-14 14:17:08:052
1.7991,-14.6552,0.1901,-0.2326,-9.7171,-1.3013,-0.3755,-3.0382,-0.0306,7.93,34.84,30.95,179.42,81.83,166.01,0.0,70.62,35.178005,126.90888,,155.68817084032057,,71.18387,,0 / 20,3654,2014-12-14 14:17:08:102
5.9948,-14.5594,5.8992,0.7311,-9.7599,-0.6161,6.4317,-4.1082,5.3916,9.74,35.21,28.76,137.48,83.92,-161.36,0.0,70.62,35.178005,126.90888,,155.68817084032057,,71.18387,,0 / 20,3704,2014-12-14 14:17:08:152
3.2743,-11.6473,-1.3043,0.9354,-9.7619,0.0059,1.1412,-1.0172,2.8509,7.55,37.78,22.83,137.48,83.92,-161.36,0.0,66.092,35.178005,126.90888,,155.68817084032057,,71.18387,,0 / 20,3754,2014-12-14 14:17:08:202
-3.5269,-18.3719,-2.3005,0.2079,-9.7789,-0.7068,-4.226,-6.0108,-1.4696,1.62,40.03,17.95,65.71,84.53,-89.64,0.0,66.092,35.178005,126.90888,,155.68817084032057,,71.18387,,0 / 20,3804,2014-12-14 14:17:08:252
-3.1054,-12.816,-3.3542,0.0748,-9.7778,-0.748,-2.2937,-4.1787,-1.0416,-2.38,40.71,13.95,169.42,85.69,-163.61,0.0,66.092,35.178005,126.90888,,155.68817084032057,,71.18387,,0 / 20,3854,2014-12-14 14:17:08:302
-1.9751,-9.5016,-4.2547,-0.4018,-9.7099,-1.3144,-1.1794,4.1682,-2.3601,-9.82,40.34,7.95,263.17,84.04,167.09,0.0,66.092,35.178005,126.90888,,155.68817084032057,,71.18387,,0 / 20,3904,2014-12-14 14:17:08:352
-3.661,-5.6316,-3.2393,-0.5149,-9.6847,-1.4533,-1.7357,4.8937,-1.7551,-12.01,40.34,7.14,263.17,84.04,167.09,0.0,66.092,35.178005,126.90888,,155.68817084032057,,71.18387,,0 / 20,3954,2014-12-14 14:17:08:402
-4.2932,-2.7771,-4.1014,-0.9417,-9.5994,-1.7709,-3.2484,7.2567,-1.8451,-13.51,39.28,3.76,295.8,80.95,160.49,0.0,66.092,35.178005,126.90888,,155.68817084032057,,71.18387,,0 / 20,4004,2014-12-14 14:17:08:452
-5.1362,-0.6122,-5.9023,-1.7942,-9.2918,-2.5719,-3.3316,7.8288,-2.7786,-14.95,38.9,2.39,324.78,71.35,145.1,0.0,66.092,35.178005,126.90888,,155.68817084032057,,71.18387,,0 / 20,4054,2014-12-14 14:17:08:502
-5.481,-3.6966,-1.2276,-2.4357,-8.958,-3.1609,-2.9957,6.593,-1.3828,-15.32,37.03,7.14,324.78,71.35,145.1,0.0,68.695,35.178005,126.90888,,155.68817084032057,,71.18387,,0 / 20,4104,2014-12-14 14:17:08:552
5.7074,-18.4868,12.5089,-2.2773,-9.2981,-2.1281,4.0172,-6.8937,10.3368,-13.51,36.65,5.76,321.46,65.99,142.38,0.0,68.695,35.178005,126.90888,,155.68817084032057,,71.18387,,0 / 20,4154,2014-12-14 14:17:08:602
0.1706,-3.8499,-2.0514,0.1948,-9.6006,1.9903,-0.038,5.4306,-1.2992,-13.82,35.59,5.26,59.27,79.6,-10.85,0.0,68.695,35.178005,126.90888,,155.68817084032057,,71.18387,,0 / 20,4204,2014-12-14 14:17:08:652
-7.9908,-27.1272,19.9998,-1.077,-9.7285,0.6058,-12.7513,-5.5948,-5.1393,-13.82,33.34,8.83,59.27,79.6,-10.85,0.0,68.695,35.178005,126.90888,,155.68817084032057,,71.18387,,0 / 20,4255,2014-12-14 14:17:08:703
-8.2015,-3.735,-6.4962,-1.7545,-9.5867,-1.0897,-10.1981,8.9663,-9.3097,-12.76,34.84,8.01,357.3,82.76,60.64,0.0,68.695,35.178005,126.90888,,155.68817084032057,,71.18387,,0 / 20,4304,2014-12-14 14:17:08:752
2.8336,-15.1725,0.5732,-1.7149,-9.5817,-1.1918,0.4964,-0.3837,-1.5461,-12.38,32.59,13.14,300.44,77.84,121.84,0.0,68.695,35.178005,126.90888,,155.68817084032057,,71.18387,,0 / 20,4354,2014-12-14 14:17:08:802
1.6267,-8.7161,-5.2509,-1.1296,-9.6831,-1.0644,3.9917,-0.8442,-0.0314,-9.07,32.28,13.39,300.44,77.84,121.84,0.0,68.695,35.178005,126.90888,,155.68817084032057,,71.18387,,0 / 20,4404,2014-12-14 14:17:08:852
-1.6685,-8.6203,-0.6146,-1.0096,-9.6609,-1.3481,-0.2575,1.1265,0.6189,-6.45,28.59,18.14,274.07,80.89,133.3,0.0,69.5,35.178005,126.90888,,155.68817084032057,,71.18387,,0 / 20,4454,2014-12-14 14:17:08:902
-0.5957,-9.2909,-1.6683,-1.0862,-9.6555,-1.3275,-0.3042,0.9424,-0.0163,-3.88,28.59,18.89,245.45,79.93,140.71,0.0,69.5,35.178005,126.90888,,155.68817084032057,,71.18387,,0 / 20,4504,2014-12-14 14:17:08:952
1.5883,-9.5208,-0.4038,-0.5308,-9.715,-1.2276,2.1525,0.334,1.1682,-2.76,25.96,21.39,227.6,80.67,149.41,0.0,69.5,35.178005,126.90888,,155.68817084032057,,71.18387,,0 / 20,4554,2014-12-14 14:17:09:002
-1.4195,-9.9997,-0.3272,-0.4107,-9.7308,-1.146,0.0367,-0.0735,0.6664,-1.32,26.34,22.2,227.6,80.67,149.41,0.0,69.5,35.178005,126.90888,,155.68817084032057,,71.18387,,0 / 20,4604,2014-12-14 14:17:09:052
-2.5115,-9.789,-0.672,-0.6359,-9.7275,-1.0687,-1.7785,0.1593,0.3782,0.18,25.96,22.26,203.19,82.87,160.29,0.0,69.5,35.178005,126.90888,,155.68817084032057,,71.18387,,0 / 20,4654,2014-12-14 14:17:09:102
1.4159,-10.5745,-0.6912,-0.6267,-9.7328,-1.0244,1.3579,-0.3918,0.4142,3.12,23.78,22.89,203.19,82.87,160.29,0.0,69.5,35.178005,126.90888,,155.68817084032057,,71.18387,,0 / 20,4704,2014-12-14 14:17:09:152
4.213,-14.1379,1.991,-0.1267,-9.7651,-0.8928,1.3434,-3.7223,1.3526,5.68,22.28,23.64,201.9,82.97,148.55,0.0,69.5,35.178005,126.90888,,155.68817084032057,,71.18387,,0 / 20,4754,2014-12-14 14:17:09:202
6.3588,-15.0575,4.2708,0.8502,-9.7682,-0.1747,4.8525,-3.9795,4.5867,6.8,22.28,22.26,169.47,84.72,171.92,0.0,67.041,35.178005,126.90888,,155.68817084032057,,71.18387,,0 / 20,4804,2014-12-14 14:17:09:252
0.3814,-12.088,-2.8752,0.8369,-9.7705,-0.0815,-0.4969,-0.8537,-1.8107,5.68,24.84,18.83,169.47,84.72,171.92,0.0,67.041,35.178005,126.90888,,155.68817084032057,,71.18387,,0 / 20,4854,2014-12-14 14:17:09:302
-3.6419,-18.3144,-2.0898,0.3894,-9.7832,-0.5542,-4.5866,-3.1927,-3.2231,3.87,28.9,17.14,74.47,85.08,-95.56,0.0,67.041,35.178005,126.90888,,155.68817084032057,,71.18387,,0 / 20,4904,2014-12-14 14:17:09:352
-2.2433,-16.1112,-1.3617,-0.0395,-9.7864,-0.6292,-2.5289,-4.5213,-0.613,0.55,30.03,15.76,136.11,86.04,-144.91,0.0,67.041,35.178005,126.90888,,155.68817084032057,,71.18387,,0 / 20,4954,2014-12-14 14:17:09:402
-2.2242,-6.6662,-4.3504,-0.7094,-9.6879,-1.3458,-1.3796,5.3054,-2.7144,-6.45,32.28,12.39,241.14,84.68,156.74,0.0,67.041,35.178005,126.90888,,155.68817084032057,,71.18387,,0 / 20,5030,2014-12-14 14:17:09:478
-3.297,-5.1335,-4.3313,-0.8588,-9.6461,-1.5443,-2.0793,6.1252,-2.5354,-8.32,32.28,11.95,241.14,84.68,156.74,0.0,67.041,35.178005,126.90888,,155.68817084032057,,71.18387,,0 / 20,5054,2014-12-14 14:17:09:502
-4.2358,-1.8383,-5.4425,-1.7975,-9.2703,-2.6459,-2.7945,8.0467,-3.4444,-12.01,32.65,9.95,278.01,79.62,150.92,0.0,67.041,35.178005,126.90888,,155.68817084032057,,71.18387,,0 / 20,5104,2014-12-14 14:17:09:552
-5.3661,-1.2061,-5.1551,-2.0969,-9.0642,-3.1007,-2.8737,8.4934,-4.418,-12.76,32.65,10.26,301.03,70.96,145.81,0.0,69.436,35.178005,126.90888,,155.68817084032057,,71.18387,,0 / 20,5154,2014-12-14 14:17:09:602
-3.0863,-13.3716,5.7268,-0.5026,-9.7934,-0.0886,27.3867,-21.6064,34.7923,-11.26,31.15,6.7,319.42,63.06,142.05,0.0,69.436,35.178005,126.90888,,155.68817084032057,,71.18387,,0 / 20,5204,2014-12-14 14:17:09:652
3.3318,-16.8009,14.4822,0.0134,-9.7374,1.1637,7.1899,-9.0655,18.5919,-14.2,31.9,12.14,319.42,63.06,142.05,0.0,69.436,35.178005,126.90888,,155.68817084032057,,71.18387,,0 / 20,5258,2014-12-14 14:17:09:706
-2.4732,-6.4938,2.7764,-0.1893,-9.6995,1.4335,-3.0025,1.6778,3.8608,-15.32,31.9,10.39,39.23,81.52,7.52,0.0,69.436,35.178005,126.90888,,155.68817084032057,,71.18387,,0 / 20,5304,2014-12-14 14:17:09:752
13.0642,-12.0688,-2.5879,-0.7227,-9.7395,0.8894,4.4224,-15.3879,0.8544,-14.2,32.28,11.51,18.19,86.1,29.14,0.0,69.436,35.178005,126.90888,,155.68817084032057,,71.18387,,0 / 20,5354,2014-12-14 14:17:09:802
-13.1252,0.3457,-10.4428,-1.4841,-9.623,-1.1684,-11.5287,9.9612,-10.164,-14.95,30.4,15.39,18.19,86.1,29.14,0.0,69.436,35.178005,126.90888,,155.68817084032057,,71.18387,,0 / 20,5404,2014-12-14 14:17:09:852
1.7799,-14.0613,-0.7295,-1.287,-9.64,-1.2588,3.9007,-3.6332,0.6905,-12.76,30.78,16.26,286.95,78.9,128.21,0.0,70.314,35.178005,126.90888,,155.68817084032057,,71.18387,,0 / 20,5456,2014-12-14 14:17:09:904
-1.113,-9.2142,-1.1319,-0.8318,-9.6327,-1.64,2.1714,0.7469,-3.8846,-10.13,29.65,19.76,286.95,78.9,128.21,0.0,70.314,35.178005,126.90888,,155.68817084032057,,71.18387,,0 / 20,5504,2014-12-14 14:17:09:952
-1.6685,-8.6395,-1.0361,-0.8738,-9.6255,-1.6604,-0.6355,1.108,0.8694,-9.82,30.03,20.64,245.67,79.19,153.11,0.0,70.314,35.178005,126.90888,,155.68817084032057,,71.18387,,0 / 20,5554,2014-12-14 14:17:10:002
1.2052,-9.789,-1.7641,-0.6577,-9.6805,-1.4234,1.9027,0.0403,-0.1235,-6.82,27.46,23.64,237.32,79.82,148.71,0.0,70.314,35.178005,126.90888,,155.68817084032057,,71.18387,,0 / 20,5604,2014-12-14 14:17:10:052
2.1056,-9.8081,-0.6337,-0.3058,-9.7106,-1.3348,2.4753,0.0428,0.6383,-5.76,25.59,25.83,237.32,79.82,148.71,0.0,70.314,35.178005,126.90888,,155.68817084032057,,71.18387,,0 / 20,5654,2014-12-14 14:17:10:102
-1.9942,-8.9652,-0.6912,-0.3305,-9.7242,-1.2255,-1.2045,0.7042,0.8715,-4.26,25.96,25.58,205.25,81.97,167.1,0.0,70.314,35.178005,126.90888,,155.68817084032057,,71.18387,,0 / 20,5704,2014-12-14 14:17:10:152
-0.6149,-8.8119,-1.1319,-0.4786,-9.725,-1.1685,-0.2603,0.9844,0.0733,-0.57,23.78,28.01,206.42,82.67,158.61,0.0,70.314,35.178005,126.90888,,155.68817084032057,,71.18387,,0 / 20,5755,2014-12-14 14:17:10:203
-1.0938,-8.7928,-1.7449,-0.4549,-9.7144,-1.2625,0.3969,0.9974,-0.9311,0.55,24.9,28.45,206.42,82.67,158.61,0.0,68.395,35.178005,126.90888,,155.68817084032057,,71.18387,,0 / 20,5804,2014-12-14 14:17:10:252
-2.205,-9.2142,-1.9557,-0.6037,-9.6929,-1.3617,-1.4553,0.5299,-0.6347,2.37,22.28,27.76,197.76,82.14,160.18,0.0,68.395,35.178005,126.90888,,155.68817084032057,,71.18387,,0 / 20,5854,2014-12-14 14:17:10:302
4.9411,-13.4674,-2.9136,0.6516,-9.7384,-0.9538,5.1583,-3.0911,-0.4841,6.43,24.53,27.58,176.22,83.83,171.31,0.0,68.395,35.178005,126.90888,,155.68817084032057,,71.18387,,0 / 20,5904,2014-12-14 14:17:10:352
-5.5002,-13.5632,-5.7107,0.4779,-9.707,-1.31,-4.8898,-3.1951,-4.0398,4.62,28.21,28.45,176.22,83.83,171.31,0.0,68.395,35.178005,126.90888,,155.68817084032057,,71.18387,,0 / 20,5954,2014-12-14 14:17:10:402
-6.4006,-13.2375,-4.5229,-0.2808,-9.6665,-1.6277,-5.9165,-2.2032,-2.8099,1.3,29.65,25.95,153.29,81.83,-159.96,0.0,68.395,35.178005,126.90888,,155.68817084032057,,71.18387,,0 / 20,6004,2014-12-14 14:17:10:452
-6.2282,-14.5977,-2.7795,-0.921,-9.6143,-1.6994,-4.9844,-2.9045,-1.0871,-2.38,31.53,24.95,153.29,81.83,-159.96,0.0,68.395,35.178005,126.90888,,155.68817084032057,,71.18387,,0 / 20,6056,2014-12-14 14:17:10:504
-3.3353,-9.2717,-5.0401,-1.3927,-9.4557,-2.1955,-1.5961,2.1208,-2.3069,-6.82,34.46,21.08,230.98,78.63,151.55,0.0,68.395,35.178005,126.90888,,155.68817084032057,,71.18387,,0 / 20,6104,2014-12-14 14:17:10:552
-4.753,-5.7466,-5.27,-1.7392,-9.303,-2.5688,-2.6061,4.8648,-2.2982,-10.13,35.21,20.2,264.51,74.63,147.61,0.0,69.479,35.178005,126.90888,,155.68817084032057,,71.18387,,0 / 20,6154,2014-12-14 14:17:10:602
-2.6456,-4.5971,-3.7182,-2.2824,-8.9857,-3.1966,-0.9183,5.5732,-1.2816,-13.82,35.96,16.64,288.22,69.77,144.78,0.0,69.479,35.178005,126.90888,,155.68817084032057,,71.18387,,0 / 20,6204,2014-12-14 14:17:10:652
-1.2279,-6.6279,-0.6912,-2.2896,-9.0027,-3.1431,1.0946,2.5672,2.3328,-15.32,34.09,18.95,288.22,69.77,144.78,0.0,69.479,35.178005,126.90888,,155.68817084032057,,71.18387,,0 / 20,6254,2014-12-14 14:17:10:702
1.5117,-14.0613,9.4627,-2.0362,-9.3694,-2.0589,2.8866,-3.7051,10.2323,-17.2,34.84,17.83,291.75,66.64,143.93,0.0,69.479,35.178005,126.90888,,155.68817084032057,,71.18387,,0 / 20,6304,2014-12-14 14:17:10:752
-3.3928,-9.5208,5.2862,-2.011,-9.4356,-1.7596,-7.0249,2.1733,-1.722,-15.7,34.84,18.2,283.37,76.87,137.15,0.0,69.479,35.178005,126.90888,,155.68817084032057,,71.18387,,0 / 20,6356,2014-12-14 14:17:10:804
1.1094,-9.6166,0.5349,-1.7765,-9.5163,-1.5666,1.8949,-0.0686,-0.7084,-16.45,34.84,18.01,283.37,76.87,137.15,0.0,69.479,35.178005,126.90888,,155.68817084032057,,71.18387,,0 / 20,6404,2014-12-14 14:17:10:852
-1.0938,-9.7507,1.2821,-1.5048,-9.6084,-1.2586,1.1471,-0.1768,2.33,-16.07,34.46,19.64,285.35,76.02,131.41,0.0,69.479,35.178005,126.90888,,155.68817084032057,,71.18387,,0 / 20,6455,2014-12-14 14:17:10:903
0.6688,-9.1568,1.0905,-1.0136,-9.7297,-0.6904,1.7002,0.5382,1.9019,-16.07,34.46,18.45,288.4,79.49,127.31,0.0,66.171,35.178005,126.90888,,155.68817084032057,,71.18387,,0 / 20,6504,2014-12-14 14:17:10:952
0.6304,-9.9997,1.9718,-0.7931,-9.7674,-0.372,1.5913,-0.4294,2.1803,-16.45,33.34,18.89,288.4,79.49,127.31,0.0,66.171,35.178005,126.90888,,155.68817084032057,,71.18387,,0 / 20,6554,2014-12-14 14:17:11:002
0.4389,-9.4633,-0.4805,-0.6163,-9.783,-0.2877,1.0116,0.6294,0.145,-16.82,34.09,18.45,290.08,84.88,115.13,0.0,66.171,35.178005,126.90888,,155.68817084032057,,71.18387,,0 / 20,6604,2014-12-14 14:17:11:052
-0.5191,-9.9806,-0.0398,-0.4938,-9.7901,-0.2821,0.052,-0.2223,0.2153,-17.2,33.71,18.45,286.93,86.61,120.88,0.0,66.171,35.178005,126.90888,,155.68817084032057,,71.18387,,0 / 20,6654,2014-12-14 14:17:11:102
-0.8831,-9.6166,0.5158,-0.5359,-9.7901,-0.1905,-0.3476,0.1648,0.6544,-17.88,34.09,19.95,286.93,86.61,120.88,0.0,66.171,35.178005,126.90888,,155.68817084032057,,71.18387,,0 / 20,6704,2014-12-14 14:17:11:152
0.1132,-9.6932,0.42,-0.5075,-9.793,-0.1015,0.4757,0.0974,0.3154,-17.2,32.65,19.51,296.24,86.68,109.57,0.0,66.171,35.178005,126.90888,,155.68817084032057,,71.18387,,0 / 20,6754,2014-12-14 14:17:11:202
0.0557,-9.5782,0.784,-0.4101,-9.7981,-0.0088,0.6488,-0.1983,0.7729,-16.45,35.59,18.39,304.03,86.97,101.32,0.0,66.171,35.178005,126.90888,,155.68817084032057,,71.18387,,0 / 20,6804,2014-12-14 14:17:11:252
0.2473,-9.8081,0.5924,-0.3069,-9.8012,0.1164,0.5093,-0.0732,0.4605,-16.45,34.46,19.33,325.29,87.93,76.41,0.0,56.418,35.178005,126.90888,,155.68817084032057,,71.18387,,0 / 20,6854,2014-12-14 14:17:11:302
0.094,-9.5399,0.4008,-0.2479,-9.8024,0.1505,0.2859,0.1301,0.2196,-16.07,34.46,17.7,325.29,87.93,76.41,0.0,56.418,35.178005,126.90888,,155.68817084032057,,71.18387,,0 / 20,6905,2014-12-14 14:17:11:353
-0.3466,-9.4441,-0.2889,-0.2623,-9.802,0.1468,-0.1235,0.2108,-0.3582,-16.82,33.34,20.2,343.68,88.3,55.27,0.0,56.418,35.178005,126.90888,,155.68817084032057,,71.18387,,0 / 20,6955,2014-12-14 14:17:11:403
-0.0018,-9.6549,0.0177,-0.2324,-9.8034,0.1027,0.2798,-0.0192,-0.2908,-16.07,33.34,19.33,340.11,88.24,60.77,0.0,56.418,35.178005,126.90888,,155.68817084032057,,71.18387,,0 / 20,7004,2014-12-14 14:17:11:452
0.3431,-9.7315,-0.1356,-0.1547,-9.8053,0.049,0.514,-0.0327,-0.4896,-16.82,33.34,18.89,336.2,88.77,66.26,0.0,56.418,35.178005,126.90888,,155.68817084032057,,71.18387,,0 / 20,7054,2014-12-14 14:17:11:502
-0.4041,-9.1759,-0.6912,-0.1335,-9.8057,-0.0073,-0.1321,0.3498,-0.5599,-16.07,32.65,20.64,336.2,88.77,66.26,0.0,56.418,35.178005,126.90888,,155.68817084032057,,71.18387,,0 / 20,7104,2014-12-14 14:17:11:552
0.2856,-9.7698,0.2284,-0.2302,-9.8038,-0.0503,-0.588,-0.3066,0.2276,-14.57,32.65,21.95,301.97,89.22,93.14,0.0,56.418,35.178005,126.90888,,155.68817084032057,,71.18387,,0 / 20,7154,2014-12-14 14:17:11:602
0.2473,-9.8848,-0.4422,-0.1684,-9.8052,-0.0235,0.5069,-0.0899,-0.0756,-13.13,32.28,24.83,301.97,89.22,93.14,0.0,66.008,35.178005,126.90888,,155.68817084032057,,71.18387,,0 / 20,7204,2014-12-14 14:17:11:652
-0.0976,-9.9231,-0.0781,-0.1335,-9.8055,-0.0619,0.1085,-0.1439,-0.1357,-12.38,32.28,24.26,289.72,89.01,97.95,0.0,66.008,35.178005,126.90888,,155.68817084032057,,71.18387,,0 / 20,7254,2014-12-14 14:17:11:702
0.6688,-9.6932,-1.0744,0.0536,-9.8063,0.0699,0.462,-0.1403,-0.9088,-14.2,31.53,22.95,284.28,89.55,107.57,0.0,66.008,35.178005,126.90888,,155.68817084032057,,71.18387,,0 / 20,7304,2014-12-14 14:17:11:752
-0.7298,-9.789,-1.9365,0.0456,-9.8052,-0.1619,-0.1395,0.3459,-1.912,-15.32,33.34,19.58,284.28,89.55,107.57,0.0,66.008,35.178005,126.90888,,155.68817084032057,,71.18387,,0 / 20,7354,2014-12-14 14:17:11:802
-0.5957,-9.6166,-0.5762,-0.0268,-9.803,-0.2655,-0.6985,-0.2018,-0.0794,-17.2,33.34,20.2,205.15,89.02,-164.26,0.0,66.008,35.178005,126.90888,,155.68817084032057,,71.18387,,0 / 20,7404,2014-12-14 14:17:11:852
-0.0593,-9.5591,-0.308,-0.1088,-9.8027,-0.255,-0.4692,0.0633,0.1309,-15.7,34.09,21.08,242.27,88.38,156.89,0.0,66.008,35.178005,126.90888,,155.68817084032057,,71.18387,,0 / 20,7454,2014-12-14 14:17:11:902
0.3814,-9.789,-0.0781,-0.0603,-9.8034,-0.2436,0.443,-0.0393,0.1672,-16.45,32.65,21.26,242.27,88.38,156.89,0.0,66.008,35.178005,126.90888,,155.68817084032057,,71.18387,,0 / 20,7504,2014-12-14 14:17:11:952
0.1898,-9.7698,0.1326,-0.0159,-9.8047,-0.1931,0.2447,-0.0395,0.3499,-16.07,31.9,20.83,232.63,88.53,166.09,0.0,73.085,35.178005,126.90888,,155.68817084032057,,71.18387,,0 / 20,7554,2014-12-14 14:17:12:002
-0.021,-9.7315,-0.0015,-0.0134,-9.8055,-0.1507,-0.0246,-0.0639,0.2506,-15.7,32.96,20.64,232.63,88.53,166.09,0.0,73.085,35.178005,126.90888,,155.68817084032057,,71.18387,,0 / 20,7604,2014-12-14 14:17:12:052
-0.1934,-9.5208,-0.2697,-0.02,-9.8055,-0.1485,-0.0984,0.1751,-0.0911,-16.07,32.65,21.33,223.13,89.12,174.93,0.0,73.085,35.178005,126.90888,,155.68817084032057,,71.18387,,0 / 20,7655,2014-12-14 14:17:12:103
-0.0593,-9.7124,-0.0398,-0.0698,-9.8055,-0.1334,-0.0585,-0.0059,0.1065,-16.07,31.9,20.01,238.35,89.05,161.33,0.0,73.085,35.178005,126.90888,,155.68817084032057,,71.18387,,0 / 20,7704,2014-12-14 14:17:12:152
0.1323,-9.7507,-0.0781,-0.052,-9.8057,-0.127,0.1784,-0.0509,0.035,-14.57,32.96,21.08,238.35,89.05,161.33,0.0,73.085,35.178005,126.90888,,155.68817084032057,,71.18387,,0 / 20,7754,2014-12-14 14:17:12:202
0.1515,-9.7315,-0.0015,-0.0306,-9.8058,-0.1229,0.1604,-0.0166,0.0665,-15.32,32.65,21.08,238.69,89.2,157.73,0.0,73.085,35.178005,126.90888,,155.68817084032057,,71.18387,,0 / 20,7804,2014-12-14 14:17:12:252
-0.0018,-9.7124,-0.0973,-0.0153,-9.806,-0.1084,0.0614,-0.032,0.0986,-14.95,32.96,20.64,238.69,89.2,157.73,0.0,73.085,35.178005,126.90888,,155.68817084032057,,71.18387,,0 / 20,7854,2014-12-14 14:17:12:302
-0.1742,-9.6166,-0.2697,-0.0327,-9.8058,-0.1251,-0.1665,0.104,-0.1468,-16.07,32.65,20.83,225.92,89.36,171.96,0.0,59.801,35.178005,126.90888,,155.68817084032057,,71.18387,,0 / 20,7904,2014-12-14 14:17:12:352
-0.0593,-9.7507,-0.1165,-0.056,-9.8055,-0.1395,-0.0548,-0.0017,-0.072,-14.95,32.65,19.95,239.74,89.12,158.13,0.0,59.801,35.178005,126.90888,,155.68817084032057,,71.18387,,0 / 20,7954,2014-12-14 14:17:12:402
-0.1934,-9.789,-0.0398,-0.0498,-9.8055,-0.1408,0.0328,0.0049,-0.0649,-16.45,34.09,21.51,239.74,89.12,158.13,0.0,59.801,35.178005,126.90888,,155.68817084032057,,71.18387,,0 / 20,8004,2014-12-14 14:17:12:452
-0.2317,-9.6549,-0.1739,-0.067,-9.8055,-0.1316,-0.1106,-0.0344,0.0238,-15.7,33.03,22.2,243.96,89.14,153.01,0.0,59.801,35.178005,126.90888,,155.68817084032057,,71.18387,,0 / 20,8054,2014-12-14 14:17:12:502
0.094,-9.674,-0.3464,-0.0632,-9.8052,-0.1591,0.1007,-0.0393,-0.0509,-16.07,32.59,20.64,248.06,89.09,150.3,0.0,59.801,35.178005,126.90888,,155.68817084032057,,71.18387,,0 / 20,8104,2014-12-14 14:17:12:552
0.4389,-9.4825,-1.2468,-0.0523,-9.8037,-0.2352,0.2033,0.2633,-0.8664,-16.45,32.28,21.45,248.06,89.09,150.3,0.0,59.801,35.178005,126.90888,,155.68817084032057,,71.18387,,0 / 20,8154,2014-12-14 14:17:12:602
0.7454,-9.7124,-1.2851,-0.0235,-9.8022,-0.2941,0.3984,0.2511,-0.8059,-16.82,31.53,21.95,231.51,88.59,167.46,0.0,59.801,35.178005,126.90888,,155.68817084032057,,71.18387,,0 / 20,8204,2014-12-14 14:17:12:652
-1.1321,-9.5782,-0.7678,-0.1228,-9.7966,-0.4255,-0.9985,0.1015,-0.4759,-14.2,31.53,23.64,231.51,88.59,167.46,0.0,59.801,35.178005,126.90888,,155.68817084032057,,71.18387,,0 / 20,8255,2014-12-14 14:17:12:703
-0.1167,-10.038,-0.2314,-0.1403,-9.7948,-0.4614,0.027,-0.316,0.1571,-11.26,32.59,25.33,225.98,87.41,163.9,0.0,56.265,35.178005,126.90888,,155.68817084032057,,71.18387,,0 / 20,8304,2014-12-14 14:17:12:752
0.0365,-9.8656,-0.2122,-0.1316,-9.7967,-0.4224,0.1749,-0.0841,0.1617,-10.51,31.9,25.83,222.02,87.18,163.09,0.0,56.265,35.178005,126.90888,,155.68817084032057,,71.18387,,0 / 20,8356,2014-12-14 14:17:12:804
0.822,-9.7698,-0.6529,0.0168,-9.7967,-0.4404,0.7748,-0.0931,0.1816,-11.63,31.9,24.95,219.82,87.38,167.79,0.0,56.265,35.178005,126.90888,,155.68817084032057,,71.18387,,0 / 20,8404,2014-12-14 14:17:12:852
0.2856,-10.3063,-0.2889,0.0836,-9.7998,-0.3578,0.3405,-0.2338,9.0E-4,-12.76,31.15,22.83,219.82,87.38,167.79,0.0,56.265,35.178005,126.90888,,155.68817084032057,,71.18387,,0 / 20,8454,2014-12-14 14:17:12:902
0.573,-9.2909,-2.4921,0.0264,-9.791,-0.5537,-0.5734,-0.1254,-0.7073,-14.57,31.9,22.39,199.05,87.85,-166.85,0.0,56.265,35.178005,126.90888,,155.68817084032057,,71.18387,,0 / 20,8504,2014-12-14 14:17:12:952