sep=;
ACCELEROMETER X (m/s²);ACCELEROMETER Y (m/s²);ACCELEROMETER Z (m/s²);GRAVITY X (m/s²);GRAVITY Y (m/s²);GRAVITY Z (m/s²);LINEAR ACCELERATION X (m/s²);LINEAR ACCELERATION Y (m/s²);LINEAR ACCELERATION Z (m/s²);GYROSCOPE X (rad/s);GYROSCOPE Y (rad/s);GYROSCOPE Z (rad/s);LIGHT (lux);MAGNETIC FIELD X (μT);MAGNETIC FIELD Y (μT);MAGNETIC FIELD Z (μT);ORIENTATION X (°);ORIENTATION Y (°);ORIENTATION Z (°);PROXIMITY (i);ATMOSPHERIC PRESSURE (hPa);SOUND LEVEL (dB);LOCATION Latitude : ;LOCATION Longitude : ;LOCATION Altitude ( m);LOCATION Speed ( Kmh);LOCATION Accuracy ( m);Satellites in range;Temperature (F);Level (%);Voltage (Volt);Time since start in ms ;YYYY-MO-DD HH-MI-SS_SSS
0.632069;-9.35654;-0.871489;-0.204986;-9.790438;-0.525067;0.837055;0.433898;-0.346423;-0.074831;0.034208;0.067806;17.0;-28.74;51.48;-5.22;310.7545;86.8602;155.0739;0.0;1018.06;38.40607;;;;;;0 / 0;85.5;36.0;3.717;19;2014-11-17 17:22:36:205
0.766145;-9.615114;-0.737414;-0.186469;-9.788402;-0.568163;0.952613;0.173288;-0.169251;-0.072693;-0.027184;0.024435;15.0;-28.5;51.96;-5.22;305.7937;86.705;158.6744;0.0;1018.06;38.40607;;;;;;0 / 0;85.5;36.0;3.717;84;2014-11-17 17:22:36:270
0.220267;-9.634268;-0.411803;-0.160948;-9.785606;-0.621592;0.381215;0.15134;0.20979;-0.106596;-0.062308;-0.016188;17.0;-28.8;51.96;-5.04;300.0053;86.2459;165.4833;0.0;1018.08;38.40607;;;;;;0 / 0;85.5;36.0;3.717;151;2014-11-17 17:22:36:337
0.325611;-9.730036;-0.459687;-0.114512;-9.778726;-0.730616;0.440123;0.048691;0.270929;-0.120035;-0.051618;0.021686;12.0;-29.64;51.66;-3.78;295.6641;85.963;168.6186;0.0;1018.08;38.40607;;;;;;0 / 0;85.5;36.0;3.717;249;2014-11-17 17:22:36:435
0.593762;-9.500192;-0.344765;-0.078849;-9.773562;-0.80104;0.672611;0.27337;0.456276;-0.185092;-0.168599;-0.016493;12.0;-29.46;51.36;-3.48;291.8098;85.6751;171.0923;0.0;1018.11;38.40607;;;;;;0 / 0;85.5;36.0;3.717;313;2014-11-17 17:22:36:499
0.507571;-9.471462;-0.699107;-0.038218;-9.76584;-0.89292;0.545789;0.294378;0.193813;-0.167988;-0.16585;-0.025656;12.0;-29.88;51.18;-3.0;291.8098;85.6751;171.0923;0.0;1018.11;35.4334;;;;;;0 / 0;85.5;36.0;3.717;375;2014-11-17 17:22:36:561
0.459687;-9.366116;-0.881066;-0.007194;-9.756478;-0.990706;0.46688;0.390361;0.109639;-0.171348;-0.302378;-0.012523;9.0;-30.24;51.0;-1.56;284.8337;84.7711;177.5492;0.0;1018.11;35.4334;;;;;;0 / 0;85.5;36.0;3.717;435;2014-11-17 17:22:36:621
0.057461;-9.519346;-0.086191;-0.004883;-9.747204;-1.078129;0.062343;0.227859;0.991938;-0.232129;-0.179289;-0.05681;12.0;-30.18;51.06;-1.02;281.9798;84.2017;179.584;0.0;1018.11;35.4334;;;;;;0 / 0;85.5;36.0;3.717;497;2014-11-17 17:22:36:683
0.201113;-9.643844;0.679953;0.010268;-9.740404;-1.137895;0.190845;0.09656;1.817849;-0.087048;-0.446848;0.131947;13.0;-30.66;51.0;0.18;280.312;83.3365;-179.483;0.0;1018.11;35.4334;;;;;;0 / 0;85.5;36.0;3.717;566;2014-11-17 17:22:36:752
-0.794875;-9.337386;-1.053449;-0.068215;-9.738514;-1.152003;-0.72666;0.401127;0.098554;-0.036346;-0.715018;0.305127;0.0;-31.08;50.94;1.62;280.6448;83.2419;176.6112;0.0;1018.11;35.4334;;;;;;0 / 0;85.5;36.0;3.717;637;2014-11-17 17:22:36:823
0.143652;-9.184156;1.953669;-0.242399;-9.740544;-1.110595;0.386051;0.556388;3.064264;-0.052229;-1.089783;0.278249;15.0;-30.66;51.0;2.58;280.6448;83.2419;176.6112;0.0;1018.11;35.4334;;;;;;0 / 0;85.5;36.0;3.717;693;2014-11-17 17:22:36:879
0.325611;-8.408436;-3.600879;-0.464029;-9.74288;-1.015542;0.789641;1.334444;-2.585337;-0.264199;-1.019534;0.19395;0.0;-29.64;51.84;4.5;285.5338;83.3436;167.6877;0.0;1018.11;58.70415;;;;;;0 / 0;85.5;36.0;3.717;755;2014-11-17 17:22:36:941
4.386178;-7.623138;-4.280833;-0.557507;-9.725164;-1.131703;4.943685;2.102027;-3.14913;0.06689;-1.539991;0.577573;0.0;-29.1;52.14;6.0;296.1283;82.6087;153.7739;0.0;1018.11;58.70415;;;;;;0 / 0;85.5;36.0;3.717;813;2014-11-17 17:22:36:999
-4.865018;-12.765882;-1.043872;-0.866277;-9.687476;-1.254088;-3.99874;-3.078406;0.210216;-0.507629;-0.861015;0.259618;0.0;-27.06;52.5;9.42;300.4729;81.0586;145.3647;0.0;1018.11;58.70415;;;;;;0 / 0;85.5;36.0;3.717;878;2014-11-17 17:22:37:064
4.232949;-6.502651;-3.505111;-1.024233;-9.633318;-1.52333;5.257182;3.130666;-1.981781;-0.759611;-1.719586;0.38454;12.0;-26.16;52.5;12.12;300.4729;81.0586;145.3647;0.0;1018.11;58.70415;;;;;;0 / 0;85.5;36.0;3.717;939;2014-11-17 17:22:37:125
-0.47884;-11.530476;-1.177947;-1.192929;-9.54642;-1.90084;0.714088;-1.984055;0.722893;-0.990518;-0.165544;0.230602;12.0;-24.06;52.44;17.94;291.3745;79.2116;146.0845;0.0;1018.11;58.70415;;;;;;0 / 0;85.5;36.0;3.717;993;2014-11-17 17:22:37:179
-0.68953;-6.110002;0.459687;-1.343273;-9.410756;-2.409081;0.653743;3.300754;2.868768;-0.882089;-0.574519;0.021075;0.0;-22.92;52.2;20.88;284.3822;73.6643;150.8565;0.0;1018.12;58.70415;;;;;;0 / 0;85.5;36.0;3.717;1048;2014-11-17 17:22:37:234
-1.187524;-8.044517;-1.541866;-1.396396;-9.27106;-2.875396;0.208872;1.226543;1.333531;-1.354288;0.025045;0.174402;0.0;-21.84;51.84;23.46;284.3822;73.6643;150.8565;0.0;1018.12;58.70415;;;;;;0 / 0;85.5;36.0;3.717;1108;2014-11-17 17:22:37:294
-2.403778;-2.442086;4.242526;-1.427725;-9.010146;-3.598505;-0.976053;6.568062;7.841031;-1.232726;0.453262;0.147219;0.0;-21.42;50.1;27.24;277.7106;70.9765;154.0971;0.0;1018.12;63.5493;;;;;;0 / 0;85.5;36.0;3.717;1169;2014-11-17 17:22:37:355
-5.401319;3.026271;-13.867216;-0.840796;-9.38405;-2.720853;-4.560523;12.410322;-11.146362;-4.04179;-0.850324;-0.417221;0.0;-22.08;47.04;32.46;273.7324;66.7483;158.359;0.0;1018.11;63.5493;;;;;;0 / 0;85.5;36.0;3.717;1241;2014-11-17 17:22:37:427
0.459687;-8.820238;-4.865018;-0.715154;-9.223948;-3.252336;1.174841;0.40371;-1.612681;-1.3381;-5.152343;1.252579;0.0;-21.42;43.62;37.44;242.5108;70.1494;167.5986;0.0;1018.11;63.5493;;;;;;0 / 0;85.5;36.0;3.717;1296;2014-11-17 17:22:37:482
-7.354987;-7.297527;-13.388376;-1.871811;-8.733486;-4.048813;-5.483176;1.43596;-9.339562;-1.858863;-1.686293;1.977982;0.0;-11.58;36.12;48.6;239.2001;62.9447;155.1884;0.0;1018.11;63.5493;;;;;;0 / 0;85.5;36.0;3.717;1361;2014-11-17 17:22:37:547
-2.145205;-3.696647;-17.803284;-3.350841;-8.051288;-4.485419;1.205637;4.354641;-13.317864;-2.258979;-0.859182;2.310598;0.0;-4.62;32.94;51.78;239.2001;62.9447;155.1884;0.0;1018.27;63.5493;;;;;;0 / 0;85.5;36.0;3.717;1416;2014-11-17 17:22:37:602
-10.160992;-2.99754;-16.405067;-4.520254;-6.716599;-5.533983;-5.640737;3.719059;-10.871086;-3.98559;2.617863;2.511878;0.0;6.84;28.5;50.76;237.9534;55.1853;143.2384;0.0;1018.27;63.5493;;;;;;0 / 0;85.5;36.0;3.717;1479;2014-11-17 17:22:37:665
-6.473921;-7.517793;-10.228028;-2.492923;-6.661536;-6.751271;-3.980998;-0.856256;-3.476758;-1.328326;-0.010385;1.288009;0.0;8.1;25.44;50.4;212.5152;42.788;159.7332;0.0;1018.27;68.192;;;;;;0 / 0;85.5;36.0;3.717;1545;2014-11-17 17:22:37:731
-3.667917;3.189077;-14.997278;-3.076922;-5.692358;-7.368851;-0.590995;8.881436;-7.628428;-1.544267;-6.256176;0.875981;0.0;9.0;15.66;51.0;214.8378;35.4828;157.3367;0.0;1017.96;68.192;;;;;;0 / 0;85.5;36.0;3.717;1608;2014-11-17 17:22:37:794
-4.912902;2.825158;-1.905785;-5.517089;-4.826412;-6.514431;0.604188;7.651571;4.608647;0.601397;-2.96911;-0.111483;0.0;18.3;6.72;52.56;226.4015;29.4825;139.7387;0.0;1017.96;68.192;;;;;;0 / 0;85.5;36.0;3.717;1673;2014-11-17 17:22:37:859
-6.943185;3.016694;-4.098873;-4.190848;-4.919621;-7.375938;-2.752336;7.936315;3.277065;0.197004;-0.616058;0.142026;0.0;25.44;4.62;53.34;226.4015;29.4825;139.7387;0.0;1017.96;68.192;;;;;;0 / 0;85.5;36.0;3.717;1726;2014-11-17 17:22:37:912
-7.096413;1.742979;-4.309563;-4.552086;-4.273022;-7.56242;-2.544328;6.016002;3.252857;0.492357;-0.729068;-0.089186;0.0;29.88;4.5;53.1;184.2324;25.8316;148.9548;0.0;1017.62;68.192;;;;;;0 / 0;85.5;36.0;3.717;1776;2014-11-17 17:22:37:962
-11.15698;1.426944;-5.506664;-5.507721;-3.682972;-7.229878;-5.649258;5.109917;1.723214;0.372933;-1.823127;-0.164323;0.0;35.7;6.0;51.3;187.2354;22.0588;142.6999;0.0;1017.62;68.192;;;;;;0 / 0;85.5;36.0;3.717;1835;2014-11-17 17:22:38:021
-7.76679;1.426944;-2.06859;-6.114671;-3.207785;-6.963571;-1.652119;4.63473;4.894981;0.045204;-1.237002;-0.36713;0.0;37.86;6.96;50.04;187.2354;22.0588;142.6999;0.0;1017.62;69.36496;;;;;;0 / 0;85.5;36.0;3.717;1892;2014-11-17 17:22:38:078
-7.613561;0.804452;-1.11091;-6.516601;-2.899217;-6.730445;-1.09696;3.703669;5.619536;0.003665;1.002735;-0.172569;0.0;42.54;8.64;47.88;183.7729;19.093;138.7138;0.0;1018.31;69.36496;;;;;;0 / 0;85.5;36.0;3.717;1964;2014-11-17 17:22:38:150
-10.199298;0.708684;-5.382165;-6.747322;-2.416134;-6.693752;-3.451977;3.124818;1.311587;-0.153327;1.850005;0.013744;6.0;41.88;9.18;47.58;212.8911;14.2632;134.7717;0.0;1018.31;69.36496;;;;;;0 / 0;85.5;36.0;3.717;2030;2014-11-17 17:22:38:216
-9.078812;0.699107;-5.343858;-7.029652;-1.998251;-6.539221;-2.04916;2.697358;1.195363;-0.085827;0.680504;0.094379;0.0;36.72;9.6;49.98;256.8314;11.7572;132.93;0.0;1018.31;69.36496;;;;;;0 / 0;85.5;36.0;3.717;2089;2014-11-17 17:22:38:275
-8.03494;0.871489;-4.730942;-7.323702;-1.681972;-6.301172;-0.711239;2.553462;1.57023;-0.040317;0.009468;0.102625;0.0;33.48;9.3;51.36;256.8314;11.7572;132.93;0.0;1018.15;69.36496;;;;;;0 / 0;85.5;36.0;3.717;2145;2014-11-17 17:22:38:331
-8.676586;0.957681;-5.286397;-7.526538;-1.379376;-6.133423;-1.150049;2.337056;0.847026;-0.014355;-0.324369;0.044593;0.0;32.82;8.88;51.6;272.0357;8.0859;129.1768;0.0;1018.15;69.36496;;;;;;0 / 0;85.5;36.0;3.717;2195;2014-11-17 17:22:38:381
-8.676586;0.881066;-4.721366;-7.728462;-1.13632;-5.928746;-0.948125;2.017386;1.207381;0.031765;-0.652099;-0.028711;0.0;32.52;8.58;51.48;272.0357;8.0859;129.1768;0.0;1018.15;61.19409;;;;;;0 / 0;85.5;36.0;3.717;2248;2014-11-17 17:22:38:434
-8.360553;0.766145;-3.342306;-7.948936;-0.932982;-5.666955;-0.411616;1.699126;2.324649;0.030849;-0.825279;-0.001222;0.0;34.56;8.4;50.22;276.4631;6.6539;127.493;0.0;1018.04;61.19409;;;;;;0 / 0;85.5;36.0;3.717;2301;2014-11-17 17:22:38:487
-9.59596;0.335188;-3.265691;-8.12548;-0.802608;-5.431644;-1.47048;1.137796;2.165954;-0.032376;-0.396757;0.158825;0.0;36.18;8.46;49.68;276.9447;5.4592;125.4858;0.0;1018.04;61.19409;;;;;;0 / 0;85.5;36.0;3.717;2371;2014-11-17 17:22:38:557
-9.011774;0.92895;-3.533841;-8.240915;-0.578353;-5.284238;-0.77086;1.507304;1.750397;-0.027489;-0.122784;0.125227;0.0;39.24;9.12;48.84;285.2024;3.381;122.6688;0.0;1018.04;61.19409;;;;;;0 / 0;85.5;36.0;3.717;2429;2014-11-17 17:22:38:615
-8.848968;0.90022;-3.543418;-8.336417;-0.413912;-5.148128;-0.512552;1.314132;1.60471;-0.021075;0.138972;0.099266;0.0;39.78;9.24;48.24;288.1311;2.419;121.6973;0.0;1018.14;61.19409;;;;;;0 / 0;85.5;36.0;3.717;2503;2014-11-17 17:22:38:689
-8.743624;0.871489;-3.62961;-8.422262;-0.279832;-5.015735;-0.321362;1.151321;1.386126;0.004581;0.142637;0.073609;0.0;39.54;9.18;47.88;288.1311;2.419;121.6973;0.0;1018.14;61.19409;;;;;;0 / 0;85.5;36.0;3.717;2553;2014-11-17 17:22:38:739
-8.868122;0.948104;-3.725378;-8.499124;-0.151853;-4.890012;-0.368999;1.099957;1.164634;0.020769;0.13378;0.04612;0.0;39.0;8.88;47.52;290.0931;0.8872;119.9142;0.0;1018.14;53.65064;;;;;;0 / 0;85.5;36.0;3.717;2604;2014-11-17 17:22:38:790
-8.96389;0.775721;-3.878607;-8.557824;-0.053273;-4.788652;-0.406067;0.828994;0.910046;0.029627;0.136834;0.033598;0.0;38.04;9.0;48.06;290.4329;0.3113;119.2298;0.0;1018.11;53.65064;;;;;;0 / 0;85.5;36.0;3.717;2673;2014-11-17 17:22:38:859
-8.896852;0.766145;-3.849876;-8.614534;0.040045;-4.686004;-0.282319;0.7261;0.836128;0.013134;0.008552;0.067501;0.0;37.8;8.94;48.6;290.4329;0.3113;119.2298;0.0;1018.11;53.65064;;;;;;0 / 0;85.5;36.0;3.717;2732;2014-11-17 17:22:38:918
-8.93516;0.814029;-3.849876;-8.664132;0.126699;-4.592077;-0.271029;0.68733;0.742201;0.007025;-0.013439;0.07758;0.0;37.98;9.06;48.66;290.8847;-0.7403;117.9241;0.0;1018.11;53.65064;;;;;;0 / 0;85.5;36.0;3.717;2787;2014-11-17 17:22:38:973
-8.781932;0.804452;-3.792415;-8.700818;0.201715;-4.519455;-0.081113;0.602737;0.72704;6.11E-4;-0.004581;0.078191;0.0;38.82;8.64;48.48;292.4354;-1.1786;117.4487;0.0;1018.07;53.65064;;;;;;0 / 0;85.5;36.0;3.717;2854;2014-11-17 17:22:39:040
-8.8777;0.823605;-3.734954;-8.736984;0.270714;-4.44547;-0.140715;0.552891;0.710516;0.007636;0.023824;0.082161;0.0;38.88;8.76;48.78;292.4354;-1.1786;117.4487;0.0;1018.07;53.65064;;;;;;0 / 0;85.5;36.0;3.717;2908;2014-11-17 17:22:39:094
-8.810662;0.890643;-3.782838;-8.761336;0.336591;-4.392729;-0.049325;0.554052;0.60989;0.009468;0.033292;0.064446;0.0;38.7;9.12;48.96;292.1335;-1.5819;116.9675;0.0;1018.07;53.65064;;;;;;0 / 0;85.5;36.0;3.717;2981;2014-11-17 17:22:39:167
-8.96389;0.842759;-3.773262;-8.790956;0.386672;-4.328966;-0.172934;0.456087;0.555705;-0.004581;-0.019853;0.051313;0.0;38.46;9.18;48.6;292.7815;-2.2597;116.2172;0.0;1018.07;56.77458;;;;;;0 / 0;85.5;36.0;3.717;3049;2014-11-17 17:22:39:235
-8.743624;0.814029;-3.86903;-8.805998;0.433038;-4.29386;0.062374;0.380991;0.42483;0.013439;0.087965;0.04948;0.0;38.52;9.18;48.72;293.086;-2.5309;115.9942;0.0;1018.07;56.77458;;;;;;0 / 0;85.5;36.0;3.717;3107;2014-11-17 17:22:39:293