sep=;
ACCELEROMETER X (m/s²);ACCELEROMETER Y (m/s²);ACCELEROMETER Z (m/s²);GRAVITY X (m/s²);GRAVITY Y (m/s²);GRAVITY Z (m/s²);LINEAR ACCELERATION X (m/s²);LINEAR ACCELERATION Y (m/s²);LINEAR ACCELERATION Z (m/s²);GYROSCOPE X (rad/s);GYROSCOPE Y (rad/s);GYROSCOPE Z (rad/s);LIGHT (lux);MAGNETIC FIELD X (μT);MAGNETIC FIELD Y (μT);MAGNETIC FIELD Z (μT);ORIENTATION X (°);ORIENTATION Y (°);ORIENTATION Z (°);PROXIMITY (i);ATMOSPHERIC PRESSURE (hPa);SOUND LEVEL (dB);LOCATION Latitude : ;LOCATION Longitude : ;LOCATION Altitude ( m);LOCATION Speed ( Kmh);LOCATION Accuracy ( m);Satellites in range;Temperature (F);Level (%);Voltage (Volt);Time since start in ms ;YYYY-MO-DD HH-MI-SS_SSS
0.536301;-9.490616;0.095768;-0.783588;-9.766614;0.411871;1.319889;0.275999;-0.316102;-0.155465;0.005498;-0.004581;17.0;-30.48;50.82;-5.46;32.6112;84.8209;62.2726;0.0;1018.03;63.94652;;;;;;0 / 0;85.5;36.0;3.717;13;2014-11-17 17:22:26:862
0.469264;-9.80665;0.23942;-0.756405;-9.77205;0.324487;1.225669;-0.034599;-0.085067;-0.088575;-0.047953;0.004276;15.0;-30.54;50.88;-4.8;32.6112;84.8209;62.2726;0.0;1018.03;41.19849;;;;;;0 / 0;85.5;36.0;3.717;65;2014-11-17 17:22:26:914
0.92895;-9.643844;-0.354342;-0.737072;-9.775492;0.258597;1.666022;0.131648;-0.612939;-0.15852;-0.010385;-0.027489;12.0;-30.54;50.7;-4.08;28.8673;85.1855;66.7814;0.0;1018.03;41.19849;;;;;;0 / 0;85.5;36.0;3.717;127;2014-11-17 17:22:26:976
0.957681;-9.59596;-0.162806;-0.697146;-9.780506;0.161581;1.654827;0.184546;-0.324386;-0.135001;-0.050091;-0.011912;15.0;-30.66;50.52;-3.84;18.3037;85.8152;76.9507;0.0;1018.03;41.19849;;;;;;0 / 0;85.5;36.0;3.717;189;2014-11-17 17:22:27:038
0.871489;-9.586384;-0.248997;-0.668367;-9.783532;0.078742;1.539857;0.197148;-0.327738;-0.156381;-0.013744;-0.005498;17.0;-31.2;50.28;-2.94;11.0609;86.0649;83.2809;0.0;1018.03;41.19849;;;;;;0 / 0;85.5;36.0;3.717;241;2014-11-17 17:22:27:090
0.995988;-9.720458;-0.373495;-0.63867;-9.785818;-0.016521;1.634658;0.06536;-0.356975;-0.134696;-0.03879;0.004887;15.0;-31.2;50.34;-2.94;11.0609;86.0649;83.2809;0.0;1018.03;41.19849;;;;;;0 / 0;85.5;36.0;3.717;298;2014-11-17 17:22:27:147
1.015142;-9.442732;-0.71826;-0.607967;-9.785994;-0.187336;1.623109;0.343263;-0.530925;-0.118813;-0.140804;0.025962;0.0;-32.1;50.28;-2.22;355.1298;86.2908;98.9272;0.0;1018.03;41.19849;;;;;;0 / 0;85.5;36.0;3.717;399;2014-11-17 17:22:27:248
0.890643;-9.557652;-0.47884;-0.575947;-9.784972;-0.304895;1.46659;0.22732;-0.173945;-0.21197;-0.100487;-0.017715;12.0;-32.16;50.28;-0.96;336.2442;86.1897;117.8959;0.0;1018.05;33.36052;;;;;;0 / 0;85.5;36.0;3.717;455;2014-11-17 17:22:27:304
1.101333;-9.710882;-0.622492;-0.544757;-9.782584;-0.417958;1.646089;0.071702;-0.204534;-0.212276;-0.208305;-0.006109;17.0;-32.16;49.86;-0.42;336.2442;86.1897;117.8959;0.0;1018.05;33.36052;;;;;;0 / 0;85.5;36.0;3.717;517;2014-11-17 17:22:27:366
0.076614;-9.634268;-0.248997;-0.532342;-9.777616;-0.534086;0.608957;0.143348;0.285089;-0.246179;-0.200058;-0.029932;15.0;-32.04;49.74;1.02;325.9523;85.9851;127.4968;0.0;1018.05;33.36052;;;;;;0 / 0;85.5;36.0;3.717;581;2014-11-17 17:22:27:430
0.373495;-9.758766;0.248997;-0.531204;-9.772024;-0.629116;0.9047;0.013258;0.878113;-0.179594;-0.381485;0.060781;15.0;-31.8;49.86;1.92;316.0278;85.5899;135.0937;0.0;1018.05;33.36052;;;;;;0 / 0;85.5;36.0;3.717;640;2014-11-17 17:22:27:489
0.833182;-9.586384;-0.134075;-0.596135;-9.767756;-0.637147;1.429317;0.181373;0.503072;0.054367;-0.425162;0.238237;12.0;-32.16;49.62;3.24;313.4091;84.8954;136.9047;0.0;1018.05;33.36052;;;;;;0 / 0;85.5;36.0;3.717;705;2014-11-17 17:22:27:554
0.976834;-9.662998;-1.436521;-0.694321;-9.758582;-0.677045;1.671156;0.095585;-0.759476;-0.385761;-0.413861;0.063835;15.0;-32.04;49.74;3.96;313.4091;84.8954;136.9047;0.0;1018.05;33.36052;;;;;;0 / 0;85.5;36.0;3.717;782;2014-11-17 17:22:27:631
0.919373;-9.308656;-1.723825;-0.748594;-9.743788;-0.8177;1.667967;0.435132;-0.906125;-0.115454;-0.762971;0.111483;15.0;-31.5;49.8;5.64;313.1158;84.3248;134.2782;0.0;1018.11;44.38022;;;;;;0 / 0;85.5;36.0;3.717;854;2014-11-17 17:22:27:703
1.915361;-8.916006;-1.541866;-0.826036;-9.73105;-0.891467;2.741397;0.815043;-0.650399;-0.356134;-0.69547;0.18326;12.0;-30.84;50.1;7.98;307.0632;82.881;137.1817;0.0;1018.11;44.38022;;;;;;0 / 0;85.5;36.0;3.717;911;2014-11-17 17:22:27:760
-2.748543;-9.854534;-0.440533;-0.982191;-9.699924;-1.056957;-1.766353;-0.15461;0.616424;-0.235489;-0.780075;0.482889;17.0;-30.36;50.46;9.54;307.0632;82.881;137.1817;0.0;1018.11;44.38022;;;;;;0 / 0;85.5;36.0;3.717;961;2014-11-17 17:22:27:810
0.383072;-7.278373;-2.681506;-1.234385;-9.659172;-1.16063;1.617457;2.380799;-1.520876;-0.252593;-0.849408;0.189979;12.0;-29.16;50.82;12.36;303.8112;81.5393;137.0998;0.0;1018.13;44.38022;;;;;;0 / 0;85.5;36.0;3.717;1020;2014-11-17 17:22:27:869
3.524265;-12.852074;0.411803;-1.390586;-9.626966;-1.248266;4.914851;-3.225107;1.660069;0.196699;-1.131933;0.795957;0.0;-28.14;51.12;13.38;307.3378;79.0151;131.9129;0.0;1018.13;44.38022;;;;;;0 / 0;85.5;36.0;3.717;1084;2014-11-17 17:22:27:933
-1.177947;-9.548076;-1.599327;-1.593232;-9.614532;-1.092152;0.415284;0.066455;-0.507175;-0.87201;0.397368;0.015577;0.0;-25.44;51.84;15.84;308.3052;78.6401;124.4304;0.0;1018.13;44.38022;;;;;;0 / 0;85.5;36.0;3.717;1140;2014-11-17 17:22:27:989
1.283292;-9.844956;0.584185;-1.597145;-9.56991;-1.427017;2.880438;-0.275047;2.011202;0.168599;-0.696997;-0.090103;0.0;-24.6;52.02;16.5;308.3052;78.6401;124.4304;0.0;1018.15;60.71816;;;;;;0 / 0;85.5;36.0;3.717;1206;2014-11-17 17:22:28:055
-8.283937;-7.010222;1.742979;-1.791411;-9.55771;-1.269414;-6.492526;2.547488;3.012393;-0.235183;-0.157298;0.322842;0.0;-24.24;51.96;17.46;301.7912;77.3848;131.7801;0.0;1018.15;60.71816;;;;;;0 / 0;85.5;36.0;3.717;1264;2014-11-17 17:22:28:113
4.070143;0.469264;-5.784391;-2.103089;-9.440658;-1.619059;6.173232;9.909922;-4.165332;-1.189049;-0.457233;-0.048869;11.0;-23.94;52.08;17.82;307.0383;74.2974;127.5908;0.0;1018.15;60.71816;;;;;;0 / 0;85.5;36.0;3.717;1337;2014-11-17 17:22:28:186
-3.246537;-4.252102;-0.296881;-2.051643;-9.24981;-2.53024;-1.194894;4.997709;2.233359;-3.07479;-1.388497;0.222966;0.0;-23.16;51.78;21.0;296.5729;70.5993;140.9632;0.0;1018.13;60.71816;;;;;;0 / 0;85.5;36.0;3.717;1390;2014-11-17 17:22:28:239
-9.83538;-7.690176;0.785298;-1.385822;-9.614506;-1.345803;-8.449558;1.92433;2.131101;-4.114483;-1.780978;0.144775;0.0;-22.08;50.64;25.26;296.5729;70.5993;140.9632;0.0;1018.13;60.71816;;;;;;0 / 0;85.5;36.0;3.717;1442;2014-11-17 17:22:28:291
-9.89284;-4.58729;-12.80419;-2.742146;-9.092818;-2.443707;-7.150695;4.505528;-10.360482;-1.873218;-2.923296;1.939192;0.0;-20.16;48.3;31.2;273.7143;78.6393;134.1607;0.0;1018.13;60.71816;;;;;;0 / 0;85.5;36.0;3.717;1498;2014-11-17 17:22:28:347
-6.521805;-11.099518;-18.071434;-4.405314;-8.330679;-2.713554;-2.116491;-2.76884;-15.35788;-1.905594;-3.45933;2.982855;0.0;-9.48;42.54;42.66;283.6518;58.1566;121.632;0.0;1018.13;67.06505;;;;;;0 / 0;85.5;36.0;3.717;1560;2014-11-17 17:22:28:409
-7.565677;-4.309563;-15.409082;-3.609506;-7.606308;-5.028515;-3.956171;3.296745;-10.380568;-3.035695;-3.037222;2.009136;0.0;8.58;36.06;47.28;241.3868;50.8619;144.3289;0.0;1018.13;67.06505;;;;;;0 / 0;85.5;36.0;3.717;1630;2014-11-17 17:22:28:479
-0.699107;-0.373495;-5.21936;-5.227198;-6.216414;-5.495725;4.528092;5.842919;0.276365;-1.021061;-0.848797;2.094657;0.0;16.92;31.98;48.18;241.3868;50.8619;144.3289;0.0;1018.13;67.06505;;;;;;0 / 0;85.5;36.0;3.717;1681;2014-11-17 17:22:28:530
-19.278112;0.718261;-8.494628;-6.25577;-5.152348;-5.521692;-13.022342;5.87061;-2.972936;-1.749823;-0.144775;1.583974;0.0;27.6;22.74;48.9;233.4075;39.3383;136.4345;0.0;1017.94;67.06505;;;;;;0 / 0;85.5;36.0;3.717;1741;2014-11-17 17:22:28:590
-10.821792;-0.325611;-6.090849;-5.700319;-5.629679;-5.655396;-5.121473;5.304068;-0.435453;-1.506088;-0.935846;1.977065;0.0;30.12;18.06;49.02;218.2878;35.0343;134.7734;0.0;1017.94;67.06505;;;;;;0 / 0;85.5;36.0;3.717;1811;2014-11-17 17:22:28:660
-11.836932;0.162806;-4.434061;-6.36184;-5.204787;-5.348603;-5.475093;5.367594;0.914542;0.887282;-3.411071;1.172861;0.0;34.92;9.96;48.54;213.6847;32.0555;130.0548;0.0;1017.94;67.06505;;;;;;0 / 0;85.5;36.0;3.717;1870;2014-11-17 17:22:28:719
-4.165911;3.217807;-5.315128;-6.569877;-4.784241;-5.488002;2.403967;8.002049;0.172874;-0.086132;-0.788627;-0.332922;12.0;41.88;6.24;47.22;199.9554;29.1998;129.873;0.0;1018.12;68.24628;;;;;;0 / 0;85.5;36.0;3.717;1932;2014-11-17 17:22:28:781
-6.799533;3.399767;4.309563;-7.111625;-4.219846;-5.271443;0.312093;7.619612;9.581008;-0.191201;-0.902553;0.104763;0.0;50.22;5.22;45.0;194.7033;25.4869;126.5474;0.0;1018.12;68.24628;;;;;;0 / 0;85.5;36.0;3.717;2000;2014-11-17 17:22:28:849
-7.881712;1.37906;1.130063;-7.736632;-3.782979;-4.690841;-0.14508;5.16204;5.820905;0.026267;-0.363465;-0.310625;15.0;52.2;5.52;43.62;194.7033;25.4869;126.5474;0.0;1018.12;68.24628;;;;;;0 / 0;85.5;36.0;3.717;2061;2014-11-17 17:22:28:910
-12.53604;1.599327;-2.260126;-8.183314;-3.153599;-4.388458;-4.352726;4.752926;2.128332;0.145691;0.499993;-0.096822;0.0;52.56;5.94;43.02;218.9839;18.7584;118.2033;0.0;1017.83;68.24628;;;;;;0 / 0;85.5;36.0;3.717;2113;2014-11-17 17:22:28:962
-9.184156;0.756568;-1.187524;-8.682312;-2.212057;-3.986813;-0.501845;2.968625;2.799289;-0.140804;0.353996;-0.334449;0.0;51.9;7.38;42.18;233.2303;15.3079;116.7917;0.0;1017.83;68.24628;;;;;;0 / 0;85.5;36.0;3.717;2186;2014-11-17 17:22:29:035
-9.270348;0.833182;-2.662352;-8.80509;-1.838817;-3.906348;-0.465258;2.672;1.243996;-0.053756;0.853073;-0.092546;0.0;49.62;8.58;43.02;253.1127;13.0362;114.664;0.0;1018.1;68.24628;;;;;;0 / 0;85.5;36.0;3.717;2248;2014-11-17 17:22:29:097
-9.270348;0.833182;-2.662352;-8.80509;-1.838817;-3.906348;-0.465258;2.672;1.243996;-0.026573;0.728762;-0.045204;0.0;47.94;8.82;44.28;253.1127;13.0362;114.664;0.0;1018.1;63.6989;;;;;;0 / 0;85.5;36.0;3.717;2303;2014-11-17 17:22:29:152
-9.979032;1.082179;-2.576161;-8.959026;-1.487352;-3.700541;-1.020006;2.569532;1.12438;0.093768;0.099571;-0.094379;0.0;46.32;8.76;45.12;269.6233;8.7236;112.4432;0.0;1018.1;63.6989;;;;;;0 / 0;85.5;36.0;3.717;2355;2014-11-17 17:22:29:204
-9.739612;0.852336;-2.5187;-9.075958;-1.225134;-3.506625;-0.663653;2.07747;0.987925;0.06353;-0.058643;-0.033292;0.0;44.82;8.88;45.66;273.4613;7.1767;111.1247;0.0;1018.1;63.6989;;;;;;0 / 0;85.5;36.0;3.717;2408;2014-11-17 17:22:29:257
-9.165004;0.92895;-2.557007;-9.135232;-0.964218;-3.433396;-0.029772;1.893169;0.876389;0.029322;-0.012523;0.039706;0.0;44.82;9.06;45.42;277.0642;5.6426;110.5983;0.0;1018.12;63.6989;;;;;;0 / 0;85.5;36.0;3.717;2472;2014-11-17 17:22:29:321
-9.20331;0.938527;-2.671929;-9.228826;-0.563174;-3.268331;0.025515;1.501701;0.596402;-0.024129;0.092241;0.102931;0.0;44.64;9.3;45.72;279.0366;4.4726;109.8267;0.0;1018.12;63.6989;;;;;;0 / 0;85.5;36.0;3.717;2558;2014-11-17 17:22:29:407
-9.35654;0.976834;-2.557007;-9.268018;-0.393439;-3.181111;-0.088523;1.370273;0.624104;-0.011606;0.019853;0.092852;0.0;44.94;9.06;45.72;279.0366;4.4726;109.8267;0.0;1018.07;63.6989;;;;;;0 / 0;85.5;36.0;3.717;2620;2014-11-17 17:22:29:469
-9.14585;0.890643;-2.537854;-9.29158;-0.25411;-3.126074;0.14573;1.144753;0.58822;-0.007941;0.005498;0.061087;0.0;45.3;8.88;45.48;283.4767;2.2993;108.944;0.0;1018.07;65.64212;;;;;;0 / 0;85.5;36.0;3.717;2683;2014-11-17 17:22:29:532
-9.346964;0.967258;-2.54743;-9.311108;-0.121701;-3.075527;-0.035855;1.088958;0.528096;0.01741;0.062919;0.054672;0.0;44.88;9.18;45.24;284.8803;1.4848;108.5951;0.0;1018.07;65.64212;;;;;;0 / 0;85.5;36.0;3.717;2743;2014-11-17 17:22:29:592
-9.251194;0.871489;-2.537854;-9.330008;-0.01163;-3.020136;0.078814;0.883119;0.482283;0.011912;0.042455;0.059254;0.0;44.88;9.6;45.18;288.9346;0.0679;107.9368;0.0;1018.11;65.64212;;;;;;0 / 0;85.5;36.0;3.717;2813;2014-11-17 17:22:29:662
-9.270348;0.871489;-2.54743;-9.343446;0.085675;-2.977095;0.073098;0.785815;0.429665;-0.002443;0.02474;0.061087;0.0;45.18;9.78;45.06;288.9346;0.0679;107.9368;0.0;1018.11;65.64212;;;;;;0 / 0;85.5;36.0;3.717;2882;2014-11-17 17:22:29:731
-9.414;0.746991;-2.164358;-9.371844;0.157129;-2.883437;-0.042156;0.589862;0.719079;-0.001222;-0.048869;0.069944;0.0;45.3;10.02;45.24;289.7578;-0.5006;107.6734;0.0;1018.11;65.64212;;;;;;0 / 0;85.5;36.0;3.717;2949;2014-11-17 17:22:29:798