ACCELEROMETER X (m/s²),ACCELEROMETER Y (m/s²),ACCELEROMETER Z (m/s²),GRAVITY X (m/s²),GRAVITY Y (m/s²),GRAVITY Z (m/s²),LINEAR ACCELERATION X (m/s²),LINEAR ACCELERATION Y (m/s²),LINEAR ACCELERATION Z (m/s²),MAGNETIC FIELD X (μT),MAGNETIC FIELD Y (μT),MAGNETIC FIELD Z (μT),ORIENTATION X (°),ORIENTATION Y (°),ORIENTATION Z (°),PROXIMITY (i),SOUND LEVEL (dB),LOCATION Latitude : ,LOCATION Longitude : ,LOCATION Altitude ( m),LOCATION Altitude-google ( m),LOCATION Speed ( Kmh),LOCATION Accuracy ( m),LOCATION ORIENTATION (°),Satellites in range,Time since start in ms ,YYYY-MO-DD HH-MI-SS_SSS
1.9907,-9.4825,0.9756,0.8497,-9.7601,0.4344,1.0915,0.0971,0.5772,-8.01,38.71,5.7,103.35,86.08,-65.31,0.0,58.318,35.178047,126.90884,,156.03581158888048,,64.51613,,0 / 22,3,2014-12-14 14:34:41:246
0.8987,-9.2334,0.0177,0.95,-9.7499,0.4545,0.5021,0.1004,0.1194,-8.01,37.59,3.76,102.36,84.42,-62.92,0.0,58.318,35.178047,126.90884,,156.03581158888048,,64.51613,,0 / 22,53,2014-12-14 14:34:41:296
0.5347,-9.31,-0.0015,0.9149,-9.7561,0.3903,-0.3422,0.2646,-0.3184,-7.26,37.21,4.26,102.36,84.42,-62.92,0.0,58.318,35.178047,126.90884,,156.03581158888048,,64.51613,,0 / 22,103,2014-12-14 14:34:41:346
1.2435,-9.6932,0.8606,0.9088,-9.756,0.4062,-0.0762,-0.0703,0.221,-5.82,37.59,3.64,90.71,84.18,-66.89,0.0,58.318,35.178047,126.90884,,156.03581158888048,,64.51613,,0 / 22,154,2014-12-14 14:34:41:397
3.7724,-10.5936,2.2592,0.9824,-9.7454,0.4827,0.8992,-0.4025,0.6511,-6.88,38.34,3.95,92.14,83.59,-63.84,0.0,58.318,35.178047,126.90884,,156.03581158888048,,64.51613,,0 / 22,203,2014-12-14 14:34:41:446
2.5654,-9.6932,0.784,1.2559,-9.6967,0.7528,-0.6495,0.5282,0.1443,-6.2,38.34,3.39,92.14,83.59,-63.84,0.0,58.318,35.178047,126.90884,,156.03581158888048,,64.51613,,0 / 22,253,2014-12-14 14:34:41:496
2.029,-12.8543,1.8568,1.3806,-9.6777,0.7793,1.4339,-1.6068,0.961,-8.01,34.28,4.26,87.53,81.41,-59.06,0.0,58.318,35.178047,126.90884,,156.03581158888048,,64.51613,,0 / 22,303,2014-12-14 14:34:41:546
0.7645,-11.609,3.083,1.309,-9.6657,1.015,-0.5458,-1.7368,1.6336,-8.76,36.15,1.82,92.01,80.36,-56.08,0.0,63.575,35.178047,126.90884,,156.03581158888048,,64.51613,,0 / 22,353,2014-12-14 14:34:41:596
2.3547,-11.5707,4.3857,1.2595,-9.6402,1.2844,0.1161,-1.2126,2.4752,-8.76,35.78,0.58,92.01,80.36,-56.08,0.0,63.575,35.178047,126.90884,,156.03581158888048,,64.51613,,0 / 22,403,2014-12-14 14:34:41:646
3.5233,-9.061,3.9259,1.5404,-9.5195,1.7822,1.8277,0.4049,2.1624,-10.63,30.59,-2.3,101.82,79.43,-44.44,0.0,63.575,35.178047,126.90884,,156.03581158888048,,64.51613,,0 / 22,453,2014-12-14 14:34:41:696
3.0827,-7.7582,3.5428,1.7817,-9.4247,2.0424,1.6233,2.1083,1.7538,-10.95,30.96,-5.67,131.87,76.1,-40.84,0.0,63.575,35.178047,126.90884,,156.03581158888048,,64.51613,,0 / 22,503,2014-12-14 14:34:41:746
1.3776,-5.8807,4.8264,1.8773,-9.3069,2.455,-0.6183,3.4664,1.7848,-13.2,25.78,-8.49,134.28,71.63,-37.4,0.0,63.575,35.178047,126.90884,,156.03581158888048,,64.51613,,0 / 22,553,2014-12-14 14:34:41:796
1.0328,-5.0186,4.9413,1.8804,-9.1913,2.8554,-0.5035,3.5118,2.0664,-12.45,25.03,-9.3,134.28,71.63,-37.4,0.0,63.575,35.178047,126.90884,,156.03581158888048,,64.51613,,0 / 22,603,2014-12-14 14:34:41:846
2.4696,-3.7541,3.8876,2.0191,-8.9243,3.5285,0.5045,5.0355,1.5011,-13.95,23.59,-9.18,127.86,67.07,-30.13,0.0,63.575,35.178047,126.90884,,156.03581158888048,,64.51613,,0 / 22,653,2014-12-14 14:34:41:896
2.9294,-3.2752,2.0676,2.2226,-8.7835,3.7524,0.499,3.9598,-0.4631,-11.32,22.84,-8.05,100.08,63.59,-30.64,0.0,68.595,35.178047,126.90884,,156.03581158888048,,64.51613,,0 / 22,703,2014-12-14 14:34:41:946
-9.3702,-6.9344,14.2714,2.2684,-8.7335,3.8407,-4.2748,7.4289,-3.2646,-11.7,24.34,-8.67,100.08,63.59,-30.64,0.0,68.595,35.178047,126.90884,,156.03581158888048,,64.51613,,0 / 22,754,2014-12-14 14:34:41:997
-11.2094,14.178,-10.0405,1.1294,-8.82,4.1355,9.8663,-25.0609,11.3641,-9.13,25.4,-1.86,63.63,62.94,-30.57,0.0,68.595,35.178047,126.90884,,156.03581158888048,,64.51613,,0 / 22,803,2014-12-14 14:34:42:046
-0.2317,-17.1649,-0.0398,1.2265,-9.0227,3.641,0.8405,-5.4075,-3.7957,-8.01,24.34,1.01,40.14,64.08,-15.28,0.0,68.595,35.178047,126.90884,,156.03581158888048,,64.51613,,0 / 22,853,2014-12-14 14:34:42:096
-1.0172,-10.7469,-2.8369,0.1672,-9.5525,2.2116,-1.7775,-2.1413,-5.1261,-6.2,26.53,4.26,40.14,64.08,-15.28,0.0,68.595,35.178047,126.90884,,156.03581158888048,,64.51613,,0 / 22,903,2014-12-14 14:34:42:146
-1.7452,-11.7623,-1.6108,-0.0402,-9.6701,1.6304,-1.513,-2.1029,-3.5965,-1.76,25.78,3.2,14.4,76.93,-4.32,0.0,68.595,35.178047,126.90884,,156.03581158888048,,64.51613,,0 / 22,953,2014-12-14 14:34:42:196
2.757,-19.1191,-10.6535,-0.1796,-9.7806,0.6909,-0.6881,-1.7456,-6.9079,4.93,21.34,6.39,313.7,85.83,14.57,0.0,68.595,35.178047,126.90884,,156.03581158888048,,64.51613,,0 / 22,1003,2014-12-14 14:34:42:246
9.0984,-29.1389,0.8989,0.6568,-9.7581,-0.7197,7.9996,-19.9034,-3.6206,7.12,20.59,10.01,313.7,85.83,14.57,0.0,68.978,35.178047,126.90884,,156.03581158888048,,64.51613,,0 / 22,1053,2014-12-14 14:34:42:296
0.4963,-17.3565,8.9646,1.1377,-9.7399,0.1052,0.3031,-2.7688,7.7088,10.12,18.4,14.39,93.48,84.3,-137.62,0.0,68.978,35.178047,126.90884,,156.03581158888048,,64.51613,,0 / 22,1104,2014-12-14 14:34:42:347
13.9071,-4.2139,4.0792,2.0925,-9.5745,0.3484,10.4729,8.629,2.6419,11.55,16.9,14.76,42.26,83.31,-84.72,0.0,68.978,35.178047,126.90884,,156.03581158888048,,64.51613,,0 / 22,1154,2014-12-14 14:34:42:397
4.3855,-5.9956,10.1715,3.119,-9.1273,1.7704,7.7796,5.4433,13.3781,11.93,16.9,16.33,42.26,83.31,-84.72,0.0,68.978,35.178047,126.90884,,156.03581158888048,,64.51613,,0 / 22,1203,2014-12-14 14:34:42:446
3.1402,-5.6125,7.9875,3.535,-8.6439,2.993,-0.1378,4.2606,3.1285,9.74,19.84,13.51,20.38,68.55,-60.42,0.0,68.978,35.178047,126.90884,,156.03581158888048,,64.51613,,0 / 22,1253,2014-12-14 14:34:42:496
12.8151,-23.947,-8.8335,3.7728,-8.6656,2.6162,5.2839,-2.7312,-6.0498,6.37,22.46,11.33,15.55,62.08,-55.26,0.0,68.978,35.178047,126.90884,,156.03581158888048,,64.51613,,0 / 22,1303,2014-12-14 14:34:42:546
-8.4314,-37.1662,-5.5383,2.5621,-9.3893,1.2029,-13.1219,-21.9116,-7.7589,0.49,22.84,11.95,15.55,62.08,-55.26,0.0,68.978,35.178047,126.90884,,156.03581158888048,,64.51613,,0 / 22,1353,2014-12-14 14:34:42:596
-5.5194,-10.6703,-10.0596,1.0242,-9.7446,-0.4062,-6.5152,2.8698,-9.6724,-9.13,26.9,11.76,53.6,73.22,-64.85,0.0,72.799,35.178047,126.90884,,156.03581158888048,,64.51613,,0 / 22,1403,2014-12-14 14:34:42:646
-9.6576,2.2999,-10.6535,0.3073,-9.7196,-1.2668,-10.0129,17.0972,-8.7071,-11.7,30.21,10.45,156.82,83.55,-111.63,0.0,72.799,35.178047,126.90884,,156.03581158888048,,64.51613,,0 / 22,1453,2014-12-14 14:34:42:696
-14.4471,10.9594,-12.3969,-0.7479,-9.3993,-2.6952,-9.8908,22.862,-11.062,-14.32,32.09,11.76,275.58,73.43,164.49,0.0,72.799,35.178047,126.90884,,156.03581158888048,,64.51613,,0 / 22,1503,2014-12-14 14:34:42:746
5.8798,-6.2639,11.1295,-1.4336,-9.2664,-2.8722,6.4554,4.6683,13.0041,-12.45,33.15,13.95,275.58,73.43,164.49,0.0,72.799,35.178047,126.90884,,156.03581158888048,,64.51613,,0 / 22,1554,2014-12-14 14:34:42:797
7.47,-12.8926,17.5475,-0.3161,-9.6995,-1.4106,15.7433,-3.7946,20.8248,-13.95,32.4,16.14,278.26,70.89,153.47,0.0,72.799,35.178047,126.90884,,156.03581158888048,,64.51613,,0 / 22,1603,2014-12-14 14:34:42:846
20.306,-38.6605,33.0082,-0.0033,-9.8053,-0.1625,1.199,-13.0594,9.8621,-10.63,33.9,21.45,278.26,70.89,153.47,0.0,72.799,35.178047,126.90884,,156.03581158888048,,64.51613,,0 / 22,1653,2014-12-14 14:34:42:896
-6.8988,10.1356,-14.8109,1.1022,-9.738,-0.3553,18.1591,-18.855,-3.4989,-11.32,35.03,23.51,206.34,89.05,178.85,0.0,72.799,35.178047,126.90884,,156.03581158888048,,64.51613,,0 / 22,1703,2014-12-14 14:34:42:946
7.5466,-28.3534,-5.27,-2.3963,-8.8832,-3.3935,9.7104,-19.3988,-2.3233,-3.95,32.84,31.83,273.27,58.38,132.24,0.0,71.395,35.178047,126.90884,,156.03581158888048,,64.51613,,0 / 22,1753,2014-12-14 14:34:42:996
7.6041,-19.2723,3.3895,-0.9655,-9.2895,-2.9907,11.4074,-14.3178,2.6967,1.99,27.28,34.95,273.27,58.38,132.24,0.0,71.395,35.178047,126.90884,,156.03581158888048,,64.51613,,0 / 22,1803,2014-12-14 14:34:43:046
5.1135,-8.5629,9.9225,0.0825,-9.6756,-1.596,4.6507,6.5017,13.9206,8.24,25.03,36.58,192.08,71.31,162.11,0.0,71.395,35.178047,126.90884,,156.03581158888048,,64.51613,,0 / 22,1853,2014-12-14 14:34:43:096
11.0142,-4.827,8.8496,1.2243,-9.7239,-0.3418,12.0208,6.0397,10.5611,8.62,25.4,35.83,160.68,80.62,-177.04,0.0,71.395,35.178047,126.90884,,156.03581158888048,,64.51613,,0 / 22,1903,2014-12-14 14:34:43:146
7.2017,-3.1794,5.2479,2.6087,-9.4081,0.9239,4.6372,7.6653,4.6594,10.49,32.09,31.51,48.23,76.28,-74.64,0.0,71.395,35.178047,126.90884,,156.03581158888048,,64.51613,,0 / 22,1953,2014-12-14 14:34:43:196
2.7187,-4.3672,5.7651,2.7819,-9.3311,1.1668,1.0185,7.3338,3.2104,10.8,35.03,30.2,48.23,76.28,-74.64,0.0,71.395,35.178047,126.90884,,156.03581158888048,,64.51613,,0 / 22,2003,2014-12-14 14:34:43:246
14.9608,-25.3455,-18.3168,3.2449,-9.2472,0.3614,9.398,-18.8833,-10.8244,6.05,38.34,24.51,38.4,72.08,-67.24,0.0,72.724,35.178047,126.90884,,156.03581158888048,,64.51613,,0 / 22,2053,2014-12-14 14:34:43:296
-8.5847,-27.7403,-8.2396,1.1109,-9.7329,-0.455,-13.4361,-17.1098,-6.0079,-7.26,41.28,11.76,67.92,74.57,-85.58,0.0,72.724,35.178047,126.90884,,156.03581158888048,,64.51613,,0 / 22,2103,2014-12-14 14:34:43:346
-6.075,-11.0534,-6.8219,0.2265,-9.7276,-1.2222,-7.441,6.0819,-4.5754,-14.7,39.46,9.01,67.92,74.57,-85.58,0.0,72.724,35.178047,126.90884,,156.03581158888048,,64.51613,,0 / 22,2153,2014-12-14 14:34:43:396
-10.558,7.7217,-8.4695,-0.8736,-9.5933,-1.8374,-12.1977,15.6999,-5.1326,-16.51,36.84,7.33,248.76,82.72,-169.5,0.0,72.724,35.178047,126.90884,,156.03581158888048,,64.51613,,0 / 22,2203,2014-12-14 14:34:43:446
-11.4393,9.0436,-7.0134,-2.1051,-9.1777,-2.7401,-8.2805,19.8625,-4.1196,-16.51,36.84,9.89,308.03,69.37,142.47,0.0,72.724,35.178047,126.90884,,156.03581158888048,,64.51613,,0 / 22,2253,2014-12-14 14:34:43:496
1.3968,-1.7808,4.1367,-2.6651,-8.9911,-2.8684,1.6602,10.0641,5.5471,-15.01,35.4,10.01,308.03,69.37,142.47,0.0,72.724,35.178047,126.90884,,156.03581158888048,,64.51613,,0 / 22,2303,2014-12-14 14:34:43:546
0.4963,2.8555,-12.3203,-0.9463,-9.7119,-0.9766,0.9895,9.2699,-7.2174,-13.95,34.28,11.33,313.15,66.47,137.1,0.0,72.724,35.178047,126.90884,,156.03581158888048,,64.51613,,0 / 22,2353,2014-12-14 14:34:43:596
22.1452,-23.9661,-25.7886,-1.3641,-8.7079,-4.2991,8.1018,-6.2421,-20.89,-11.01,31.71,13.33,279.29,82.03,135.9,0.0,70.39,35.178047,126.90884,,156.03581158888048,,64.51613,,0 / 22,2403,2014-12-14 14:34:43:646
-35.6745,4.8288,-17.1673,-2.1668,-9.4087,-1.7181,-26.8241,2.5898,6.3222,-12.45,30.21,13.51,279.29,82.03,135.9,0.0,70.39,35.178047,126.90884,,156.03581158888048,,64.51613,,0 / 22,2453,2014-12-14 14:34:43:696
23.5821,-39.2544,1.7036,-5.0409,-7.6582,-3.4803,-11.6978,-3.215,-14.9119,-8.38,29.09,16.14,284.89,73.62,128.41,0.0,70.39,35.178047,126.90884,,156.03581158888048,,64.51613,,0 / 22,2503,2014-12-14 14:34:43:746
7.0676,-19.9812,1.033,-0.937,-9.2317,-3.1729,7.0202,-6.6087,8.9399,0.49,25.4,22.33,248.84,61.54,148.07,0.0,70.39,35.178047,126.90884,,156.03581158888048,,64.51613,,0 / 22,2553,2014-12-14 14:34:43:796
4.4046,-8.946,10.4206,-0.4817,-9.5639,-2.1143,4.5263,2.144,10.2399,5.3,22.46,23.95,248.84,61.54,148.07,0.0,70.39,35.178047,126.90884,,156.03581158888048,,64.51613,,0 / 22,2603,2014-12-14 14:34:43:846
13.409,-3.7541,5.2862,0.8687,-9.7398,-0.7429,12.145,7.8918,6.296,7.87,20.96,26.82,176.44,77.22,167.17,0.0,70.39,35.178047,126.90884,,156.03581158888048,,64.51613,,0 / 22,2653,2014-12-14 14:34:43:896
7.3742,-3.5051,6.3974,0.8687,-9.7398,-0.7429,12.145,7.8918,6.296,7.87,20.96,26.82,176.44,77.22,167.17,0.0,70.39,35.178047,126.90884,,156.03581158888048,,64.51613,,0 / 22,2703,2014-12-14 14:34:43:946
4.7878,-7.8732,-1.0361,1.8798,-9.6242,0.1039,5.7336,7.0516,6.736,8.24,22.46,21.76,106.64,83.31,-130.54,0.0,70.39,35.178047,126.90884,,156.03581158888048,,64.51613,,0 / 22,2753,2014-12-14 14:34:43:996
12.5661,-30.2884,-10.6344,2.3994,-9.4659,0.9001,1.6063,2.9733,0.0821,7.87,25.78,21.01,38.55,74.85,-69.44,0.0,73.099,35.178047,126.90884,,156.03581158888048,,64.51613,,0 / 22,2803,2014-12-14 14:34:44:046
5.0943,-39.2928,-1.7641,2.8031,-9.395,-0.2168,8.2089,-22.1074,-8.453,5.68,26.53,20.01,40.79,74.85,-69.44,0.0,73.099,35.178047,126.90884,,156.03581158888048,,64.51613,,0 / 22,2853,2014-12-14 14:34:44:096
-4.0059,-13.2566,-6.0172,0.6421,-9.7205,-1.1271,-4.0091,0.2352,-4.3144,-8.01,34.65,15.26,142.22,82.29,-124.17,0.0,73.099,35.178047,126.90884,,156.03581158888048,,64.51613,,0 / 22,2903,2014-12-14 14:34:44:146
-6.324,-11.0534,-5.7298,0.3998,-9.7099,-1.3147,-5.615,3.2546,-3.8434,-10.26,35.78,14.2,142.22,82.29,-124.17,0.0,73.099,35.178047,126.90884,,156.03581158888048,,64.51613,,0 / 22,2953,2014-12-14 14:34:44:196
-11.5925,6.7446,-5.021,-1.1338,-9.5583,-1.8769,-8.4813,18.988,-2.2097,-15.01,33.9,13.33,225.2,81.95,-163.08,0.0,73.099,35.178047,126.90884,,156.03581158888048,,64.51613,,0 / 22,3003,2014-12-14 14:34:44:246
0.1515,-3.4476,5.5161,-2.5002,-9.1048,-2.6499,-2.082,14.4175,1.1558,-15.01,35.78,14.76,278.55,77.08,148.87,0.0,73.099,35.178047,126.90884,,156.03581158888048,,64.51613,,0 / 22,3053,2014-12-14 14:34:44:296
2.5846,-8.1988,10.3823,-1.377,-9.6238,-1.2872,15.9773,-2.6782,14.7395,-15.76,35.4,16.51,278.55,77.08,148.87,0.0,73.099,35.178047,126.90884,,156.03581158888048,,64.51613,,0 / 22,3104,2014-12-14 14:34:44:347
-7.9908,7.0895,-26.3633,-0.2259,-9.7896,-0.5329,-2.9612,12.1984,-17.3548,-15.76,35.78,17.89,288.73,78.92,133.07,0.0,70.523,35.178047,126.90884,,156.03581158888048,,64.51613,,0 / 22,3153,2014-12-14 14:34:44:396
-20.9993,-30.001,12.7004,0.6215,-9.7418,-0.9392,17.6032,-28.7184,21.5378,-19.13,33.9,18.14,253.78,86.62,157.02,0.0,70.523,35.178047,126.90884,,156.03581158888048,,64.51613,,0 / 22,3203,2014-12-14 14:34:44:446
-1.0746,-28.9281,-19.2939,-5.5909,-7.3837,-3.2239,-25.5686,16.8415,-4.9214,-23.57,34.28,15.89,253.78,86.62,157.02,0.0,70.523,35.178047,126.90884,,156.03581158888048,,64.51613,,0 / 22,3253,2014-12-14 14:34:44:496
1.5117,-14.7701,-11.5156,-2.6308,-8.8153,-3.3971,18.9251,-17.5896,6.0882,-16.51,32.78,23.01,308.08,46.8,126.97,0.0,70.523,35.178047,126.90884,,156.03581158888048,,64.51613,,0 / 22,3303,2014-12-14 14:34:44:546
0.2856,-17.7397,-5.4233,-1.9599,-8.9419,-3.5175,3.5947,-7.2213,0.2591,-9.88,31.34,26.7,258.78,65.76,150.87,0.0,70.523,35.178047,126.90884,,156.03581158888048,,64.51613,,0 / 22,3353,2014-12-14 14:34:44:596
7.355,-10.9002,8.4281,-0.4963,-9.5009,-2.3785,8.1985,0.481,9.907,-5.45,27.65,30.01,258.78,65.76,150.87,0.0,70.523,35.178047,126.90884,,156.03581158888048,,64.51613,,0 / 22,3403,2014-12-14 14:34:44:646
4.1939,-7.2984,13.9649,0.1199,-9.7528,-1.019,4.5241,4.5529,13.8324,-3.2,22.84,31.76,204.33,75.65,168.21,0.0,70.523,35.178047,126.90884,,156.03581158888048,,64.51613,,0 / 22,3453,2014-12-14 14:34:44:696
11.7806,-5.3251,6.5123,0.4797,-9.7919,-0.244,5.8684,4.2306,13.2799,-1.01,23.59,31.51,174.63,83.99,-173.29,0.0,73.373,35.178047,126.90884,,156.03581158888048,,64.51613,,0 / 22,3503,2014-12-14 14:34:44:746
-0.2317,-2.9495,1.512,1.7637,-9.633,0.5149,8.9646,7.3977,5.436,-1.38,28.34,29.14,66.4,79.2,-73.72,0.0,73.373,35.178047,126.90884,,156.03581158888048,,64.51613,,0 / 22,3553,2014-12-14 14:34:44:796
9.2708,-19.8279,-7.8564,2.6425,-9.4366,0.3712,6.9296,-13.1868,-8.6031,-2.82,32.09,27.26,66.4,79.2,-73.72,0.0,73.373,35.178047,126.90884,,156.03581158888048,,64.51613,,0 / 22,3603,2014-12-14 14:34:44:846
-4.0442,-23.5829,-8.2204,2.3568,-9.5123,-0.3621,-0.5296,-20.5135,-5.7772,-8.38,32.78,25.39,79.7,74.21,-82.0,0.0,73.373,35.178047,126.90884,,156.03581158888048,,64.51613,,0 / 22,3653,2014-12-14 14:34:44:896
-4.1017,-11.8389,-2.5879,1.2761,-9.6821,-0.8941,-6.0515,-1.1247,-1.5225,-19.45,33.9,15.26,152.46,77.79,-109.22,0.0,73.373,35.178047,126.90884,,156.03581158888048,,64.51613,,0 / 22,3703,2014-12-14 14:34:44:946
-7.0903,-5.3443,-3.0094,0.6546,-9.722,-1.1066,-7.7085,8.32,-1.5233,-22.07,34.65,11.58,152.46,77.79,-109.22,0.0,73.373,35.178047,126.90884,,156.03581158888048,,64.51613,,0 / 22,3753,2014-12-14 14:34:44:996
-7.531,1.6485,-3.5458,-0.7144,-9.6598,-1.5325,-7.57,12.1857,-1.6535,-22.07,33.9,11.14,222.36,82.47,-149.39,0.0,71.749,35.178047,126.90884,,156.03581158888048,,64.51613,,0 / 22,3803,2014-12-14 14:34:45:046
-1.477,0.9588,-0.1165,-0.7144,-9.6598,-1.5325,-7.57,12.1857,-1.6535,-20.95,36.53,13.89,275.99,80.07,155.01,0.0,71.749,35.178047,126.90884,,156.03581158888048,,64.51613,,0 / 22,3853,2014-12-14 14:34:45:096
7.4508,-5.0952,5.3245,-0.553,-9.7257,-1.1293,6.6109,4.4998,5.5244,-19.45,35.03,14.39,275.99,80.07,155.01,0.0,71.749,35.178047,126.90884,,156.03581158888048,,64.51613,,0 / 22,3903,2014-12-14 14:34:45:146
-21.0759,8.1623,-20.3284,-0.0629,-9.703,-1.4207,-4.5922,10.374,-9.6735,-19.13,36.15,17.01,264.79,82.63,153.91,0.0,71.749,35.178047,126.90884,,156.03581158888048,,64.51613,,0 / 22,3953,2014-12-14 14:34:45:196
12.5086,-39.2928,-30.4632,-1.6941,-9.1229,-3.1737,-16.8433,13.8152,-17.0111,-16.88,37.21,18.7,264.79,82.63,153.91,0.0,71.749,35.178047,126.90884,,156.03581158888048,,64.51613,,0 / 22,4003,2014-12-14 14:34:45:246
-39.487,36.689,-17.6655,-5.3761,-6.4748,-5.0343,-33.0807,41.7918,-24.7322,-20.2,35.4,17.89,273.18,68.48,151.91,0.0,71.749,35.178047,126.90884,,156.03581158888048,,64.51613,,0 / 22,4053,2014-12-14 14:34:45:296
0.8987,-28.2767,-12.9717,-6.0942,-5.8455,-4.9861,-12.5888,3.5205,-2.7778,-16.51,34.65,23.01,310.31,41.32,133.12,0.0,71.749,35.178047,126.90884,,156.03581158888048,,64.51613,,0 / 22,4103,2014-12-14 14:34:45:346
6.8952,-22.4143,2.2017,-3.0033,-7.9408,-4.9087,8.4384,-7.3842,-5.7451,-4.7,32.09,30.76,268.54,54.07,148.54,0.0,71.601,35.178047,126.90884,,156.03581158888048,,64.51613,,0 / 22,4154,2014-12-14 14:34:45:397
-1.6494,-15.3449,2.9872,-1.569,-9.1204,-3.2444,1.1496,-1.2698,5.4865,0.87,29.46,31.95,268.54,54.07,148.54,0.0,71.601,35.178047,126.90884,,156.03581158888048,,64.51613,,0 / 22,4203,2014-12-14 14:34:45:446
5.2476,-3.5242,4.9413,-0.8871,-9.3981,-2.657,6.8497,5.9658,7.8119,6.74,27.96,34.45,211.79,68.44,154.19,0.0,71.601,35.178047,126.90884,,156.03581158888048,,64.51613,,0 / 22,4253,2014-12-14 14:34:45:496
4.9219,-4.5396,7.9492,-0.455,-9.6023,-1.9388,4.5584,5.9564,8.0166,10.49,29.09,33.14,182.23,73.4,161.54,0.0,71.601,35.178047,126.90884,,156.03581158888048,,64.51613,,0 / 22,4303,2014-12-14 14:34:45:546
5.5158,-3.6392,1.9718,-0.5018,-9.7524,-0.8991,-2.0418,4.5265,6.4154,18.24,32.4,28.26,176.0,83.97,150.83,0.0,71.601,35.178047,126.90884,,156.03581158888048,,64.51613,,0 / 22,4353,2014-12-14 14:34:45:596
12.7385,-5.6316,-1.8024,0.1915,-9.7847,-0.6274,7.0363,4.6517,1.3716,18.24,32.4,28.26,176.0,83.97,150.83,0.0,71.601,35.178047,126.90884,,156.03581158888048,,64.51613,,0 / 22,4403,2014-12-14 14:34:45:646
-1.4961,-27.6062,-7.569,2.2644,-9.4227,-1.5019,15.18,-3.4683,-10.6132,9.74,43.9,23.2,117.85,86.16,-163.03,0.0,71.601,35.178047,126.90884,,156.03581158888048,,64.51613,,0 / 22,4453,2014-12-14 14:34:45:696
-15.041,-32.2808,-6.3621,0.2604,-9.5731,-2.1117,-5.5652,-19.7553,-4.4877,0.12,46.46,19.08,92.68,72.91,-140.82,0.0,72.482,35.178047,126.90884,,156.03581158888048,,64.51613,,0 / 22,4503,2014-12-14 14:34:45:746
-8.5847,-23.5829,-6.8985,-0.2214,-9.568,-2.1388,-10.231,-8.4396,-2.4753,-9.88,48.71,13.33,92.68,72.91,-140.82,0.0,72.482,35.178047,126.90884,,156.03581158888048,,64.51613,,0 / 22,4553,2014-12-14 14:34:45:796
-9.2935,-20.2494,-10.4236,-0.8381,-9.4634,-2.4315,-7.573,-4.7756,-5.9304,-14.32,46.09,12.01,269.42,77.33,174.09,0.0,72.482,35.178047,126.90884,,156.03581158888048,,64.51613,,0 / 22,4603,2014-12-14 14:34:45:846
-15.2709,6.6488,-5.0976,-3.2478,-8.603,-3.4075,-11.1817,18.6758,-0.5292,-27.26,41.28,3.76,314.22,69.62,148.27,0.0,72.482,35.178047,126.90884,,156.03581158888048,,64.51613,,0 / 22,4653,2014-12-14 14:34:45:896
-14.0256,4.0816,-2.6454,-3.937,-8.2315,-3.5934,-8.9603,16.4267,0.4181,-27.63,41.28,3.32,314.22,69.62,148.27,0.0,72.482,35.178047,126.90884,,156.03581158888048,,64.51613,,0 / 22,4703,2014-12-14 14:34:45:946
10.7652,-12.1071,9.4818,-4.4628,-8.4213,-2.3099,12.4068,-1.6239,11.3368,-24.26,42.78,5.89,329.94,57.07,132.39,0.0,72.482,35.178047,126.90884,,156.03581158888048,,64.51613,,0 / 22,4753,2014-12-14 14:34:45:996
13.8497,-11.8198,-4.2355,-2.4122,-9.4527,-0.9989,15.5098,-2.4582,5.2777,-23.2,43.9,13.08,327.68,59.17,117.37,0.0,72.482,35.178047,126.90884,,156.03581158888048,,64.51613,,0 / 22,4803,2014-12-14 14:34:46:046
-1.1513,-15.9005,-2.4921,-1.9293,-9.3826,-2.101,-2.7049,-6.6568,-2.1221,-24.63,40.21,12.89,304.43,73.09,137.44,0.0,69.309,35.178047,126.90884,,156.03581158888048,,64.51613,,0 / 22,4853,2014-12-14 14:34:46:096
-15.9606,-14.0038,-1.0935,-2.3554,-9.3484,-1.7969,-10.7347,-1.8951,-1.5327,-24.63,41.28,14.32,304.43,73.09,137.44,0.0,69.309,35.178047,126.90884,,156.03581158888048,,64.51613,,0 / 22,4903,2014-12-14 14:34:46:146
7.5466,-9.061,-5.6532,-2.1817,-9.3036,-2.2033,8.3635,1.8193,-4.5722,-22.07,40.9,20.45,308.41,72.42,127.34,0.0,69.309,35.178047,126.90884,,156.03581158888048,,64.51613,,0 / 22,4954,2014-12-14 14:34:46:197
-0.9214,-9.5208,2.6423,-1.025,-9.5476,-1.9905,1.1721,1.0912,4.2291,-21.32,42.4,21.01,293.87,71.57,135.28,0.0,69.309,35.178047,126.90884,,156.03581158888048,,64.51613,,0 / 22,5023,2014-12-14 14:34:46:266
-1.5345,-9.9039,2.9872,-1.025,-9.5476,-1.9905,1.1721,1.0912,4.2291,-21.7,41.65,20.39,293.87,71.57,135.28,0.0,69.309,35.178047,126.90884,,156.03581158888048,,64.51613,,0 / 22,5053,2014-12-14 14:34:46:296
-0.4807,-9.0993,1.3779,-1.0833,-9.6441,-1.4097,-0.3217,0.4558,4.3589,-20.95,41.65,21.01,271.56,76.8,152.75,0.0,69.309,35.178047,126.90884,,156.03581158888048,,64.51613,,0 / 22,5103,2014-12-14 14:34:46:346
3.6958,-10.1721,-2.5687,-0.3521,-9.7266,-1.2001,4.3352,-0.026,-1.2654,-19.13,42.4,21.89,273.84,81.54,139.32,0.0,68.263,35.178047,126.90884,,156.03581158888048,,64.51613,,0 / 22,5154,2014-12-14 14:34:46:397
1.8183,-10.4021,-1.9748,-0.1929,-9.7242,-1.2545,2.3047,-0.2525,-0.8261,-19.45,42.78,21.26,273.84,81.54,139.32,0.0,68.263,35.178047,126.90884,,156.03581158888048,,64.51613,,0 / 22,5203,2014-12-14 14:34:46:446
-0.5765,-8.697,0.0943,-0.2835,-9.7246,-1.2341,-0.4801,1.3599,1.0729,-20.57,43.53,21.26,240.54,82.56,171.26,0.0,68.263,35.178047,126.90884,,156.03581158888048,,64.51613,,0 / 22,5253,2014-12-14 14:34:46:496
-0.0018,-10.5745,1.991,-0.2778,-9.7406,-1.102,0.1007,0.4532,1.9651,-19.82,42.4,21.26,246.67,82.58,167.06,0.0,68.263,35.178047,126.90884,,156.03581158888048,,64.51613,,0 / 22,5303,2014-12-14 14:34:46:546
1.0136,-9.1759,-1.0169,-0.0273,-9.7824,-0.6884,1.0832,0.552,-0.1442,-19.13,46.09,21.45,243.36,85.54,165.34,0.0,68.263,35.178047,126.90884,,156.03581158888048,,64.51613,,0 / 22,5353,2014-12-14 14:34:46:596
0.3622,-8.2563,-0.7295,0.028,-9.7816,-0.7004,0.7849,1.2509,-0.0827,-19.45,43.9,20.39,243.36,85.54,165.34,0.0,68.263,35.178047,126.90884,,156.03581158888048,,64.51613,,0 / 22,5403,2014-12-14 14:34:46:646
0.5921,-10.7086,0.2284,0.0622,-9.7868,-0.6209,0.3812,-0.332,0.6707,-18.76,44.28,20.39,226.03,85.9,-177.71,0.0,68.263,35.178047,126.90884,,156.03581158888048,,64.51613,,0 / 22,5453,2014-12-14 14:34:46:696
0.2856,-9.1568,0.1901,0.1507,-9.7951,-0.4504,0.4967,-0.6081,0.8029,-19.45,42.03,21.26,209.95,86.94,-165.51,0.0,60.595,35.178047,126.90884,,156.03581158888048,,64.51613,,0 / 22,5503,2014-12-14 14:34:46:746
0.7454,-9.5782,0.1326,0.2461,-9.7981,-0.3262,0.5367,0.1017,0.5828,-19.82,43.15,20.7,209.95,86.94,-165.51,0.0,60.595,35.178047,126.90884,,156.03581158888048,,64.51613,,0 / 22,5553,2014-12-14 14:34:46:796
1.3393,-10.1913,1.033,0.2957,-9.799,-0.2486,0.6956,-0.2123,1.0744,-18.38,43.53,20.83,183.83,87.61,-142.97,0.0,60.595,35.178047,126.90884,,156.03581158888048,,64.51613,,0 / 22,5603,2014-12-14 14:34:46:846
1.186,-9.6357,0.2092,0.5145,-9.793,-0.0484,0.6934,0.1687,0.2221,-19.13,45.34,21.26,141.55,87.5,-101.91,0.0,60.595,35.178047,126.90884,,156.03581158888048,,64.51613,,0 / 22,5653,2014-12-14 14:34:46:896
0.5538,-9.5782,0.4008,0.5386,-9.7918,-0.0356,0.3228,0.2644,0.1793,-18.38,44.28,21.08,141.55,87.5,-101.91,0.0,60.595,35.178047,126.90884,,156.03581158888048,,64.51613,,0 / 22,5703,2014-12-14 14:34:46:946
1.186,-9.6166,0.8223,0.6005,-9.7875,0.1226,0.5301,0.1068,0.5437,-19.13,43.9,21.89,130.94,86.84,-93.78,0.0,60.595,35.178047,126.90884,,156.03581158888048,,64.51613,,0 / 22,5753,2014-12-14 14:34:46:996
1.3201,-9.4441,0.5924,0.648,-9.7839,0.1583,0.6517,0.1545,0.4939,-18.38,42.78,22.58,111.55,86.42,-78.46,0.0,60.584,35.178047,126.90884,,156.03581158888048,,64.51613,,0 / 22,5803,2014-12-14 14:34:47:046
1.2435,-9.5782,0.7265,0.8199,-9.7686,0.2683,0.4857,0.0434,0.3895,-16.51,43.53,21.58,104.7,85.47,-74.02,0.0,60.584,35.178047,126.90884,,156.03581158888048,,64.51613,,0 / 22,5853,2014-12-14 14:34:47:096
1.0328,-9.5782,0.4966,0.8399,-9.7664,0.2876,0.2698,0.1067,0.2634,-17.63,42.78,21.95,104.7,85.47,-74.02,0.0,60.584,35.178047,126.90884,,156.03581158888048,,64.51613,,0 / 22,5903,2014-12-14 14:34:47:146
0.7837,-9.5208,0.4966,0.8348,-9.7663,0.3032,-0.0075,0.076,0.0859,-16.88,43.53,22.58,100.62,84.81,-71.1,0.0,60.584,35.178047,126.90884,,156.03581158888048,,64.51613,,0 / 22,5953,2014-12-14 14:34:47:196
1.1094,-9.2717,-0.0398,0.8639,-9.7652,0.2544,0.3867,0.182,-0.6775,-16.88,44.96,22.58,101.85,84.73,-73.59,0.0,60.584,35.178047,126.90884,,156.03581158888048,,64.51613,,0 / 22,6003,2014-12-14 14:34:47:246
0.7645,-9.674,0.5158,0.9172,-9.7616,0.2026,0.0172,-0.1259,-0.1486,-16.13,44.28,23.89,101.85,84.73,-73.59,0.0,60.584,35.178047,126.90884,,156.03581158888048,,64.51613,,0 / 22,6053,2014-12-14 14:34:47:296
1.2818,-10.0189,-0.2122,0.9309,-9.7605,0.1891,0.2208,-0.3345,-0.1793,-13.57,41.28,27.58,99.31,84.5,-77.54,0.0,60.584,35.178047,126.90884,,156.03581158888048,,64.51613,,0 / 22,6103,2014-12-14 14:34:47:346
0.8412,-9.6932,0.2859,0.9528,-9.7588,0.1663,0.0426,-0.2898,0.2772,-12.45,42.03,24.33,99.13,84.33,-81.43,0.0,60.584,35.178047,126.90884,,156.03581158888048,,64.51613,,0 / 22,6153,2014-12-14 14:34:47:396
1.4542,-9.674,0.2476,0.9728,-9.7567,0.1775,0.3049,-0.2425,0.1604,-13.2,42.03,23.89,99.2,84.21,-79.66,0.0,67.026,35.178047,126.90884,,156.03581158888048,,64.51613,,0 / 22,6203,2014-12-14 14:34:47:446
1.2435,-9.31,-0.1356,1.0841,-9.745,0.1754,0.1851,0.295,-0.6141,-14.7,42.03,23.89,99.2,84.21,-79.66,0.0,67.026,35.178047,126.90884,,156.03581158888048,,64.51613,,0 / 22,6253,2014-12-14 14:34:47:496
1.2052,-9.5208,-1.63,1.1262,-9.741,0.1239,0.5584,0.2782,-0.7163,-13.57,42.03,22.58,102.17,83.57,-80.81,0.0,67.026,35.178047,126.90884,,156.03581158888048,,64.51613,,0 / 22,6303,2014-12-14 14:34:47:546