ACCELEROMETER X (m/s²),ACCELEROMETER Y (m/s²),ACCELEROMETER Z (m/s²),GRAVITY X (m/s²),GRAVITY Y (m/s²),GRAVITY Z (m/s²),LINEAR ACCELERATION X (m/s²),LINEAR ACCELERATION Y (m/s²),LINEAR ACCELERATION Z (m/s²),MAGNETIC FIELD X (μT),MAGNETIC FIELD Y (μT),MAGNETIC FIELD Z (μT),ORIENTATION X (°),ORIENTATION Y (°),ORIENTATION Z (°),PROXIMITY (i),SOUND LEVEL (dB),LOCATION Latitude : ,LOCATION Longitude : ,LOCATION Altitude ( m),LOCATION Altitude-google ( m),LOCATION Speed ( Kmh),LOCATION Accuracy ( m),LOCATION ORIENTATION (°),Satellites in range,Time since start in ms ,YYYY-MO-DD HH-MI-SS_SSS
-0.0018,-9.5399,0.4966,-0.0697,-9.8044,0.1987,0.1012,-0.0579,0.3363,-6.07,39.9,9.83,6.65,88.89,23.87,0.0,65.471,35.17803,126.90888,,155.5747938716443,,20.218,,2 / 18,14,2014-12-14 14:29:54:890
0.3431,-9.7124,0.669,0.0014,-9.8015,0.3168,0.4138,-0.074,0.4044,-4.57,39.15,10.58,6.65,88.89,23.87,0.0,65.471,35.17803,126.90888,,155.5747938716443,,20.218,,2 / 18,64,2014-12-14 14:29:54:940
-0.2508,-9.5016,0.1901,0.0101,-9.8015,0.3174,0.1196,-0.0524,0.01,-5.7,41.03,8.51,26.15,88.15,-0.26,0.0,65.471,35.17803,126.90888,,155.5747938716443,,20.218,,2 / 18,114,2014-12-14 14:29:54:990
-0.3466,-9.674,0.305,-0.0651,-9.8021,0.2924,-0.2629,-0.0522,-0.0689,-4.95,39.15,10.7,17.8,88.23,4.9,0.0,65.471,35.17803,126.90888,,155.5747938716443,,20.218,,2 / 18,164,2014-12-14 14:29:55:040
-0.2508,-9.4633,0.0177,-0.08,-9.8021,0.2877,-0.2037,-0.0026,-0.0636,-4.95,39.15,10.26,9.98,88.25,15.53,0.0,65.471,35.17803,126.90888,,155.5747938716443,,20.218,,2 / 18,214,2014-12-14 14:29:55:090
-0.1934,-9.6166,0.3242,-0.116,-9.8029,0.2449,-0.1015,-0.007,0.0051,-4.95,39.15,10.7,9.98,88.25,15.53,0.0,65.471,35.17803,126.90888,,155.5747938716443,,20.218,,2 / 18,264,2014-12-14 14:29:55:140
0.1898,-9.7124,-0.1739,-0.1063,-9.8033,0.2325,0.1304,-0.212,-0.1637,-6.07,40.65,12.01,5.14,88.42,25.35,0.0,60.82,35.17803,126.90888,,155.5747938716443,,20.218,,2 / 18,314,2014-12-14 14:29:55:190
0.4005,-9.7315,-0.3464,-0.0709,-9.806,0.0891,0.2826,-0.0829,-0.4842,-5.32,38.03,11.14,355.58,88.91,29.13,0.0,60.82,35.17803,126.90888,,155.5747938716443,,20.218,,2 / 18,364,2014-12-14 14:29:55:240
0.5347,-10.0572,-0.1548,-0.0318,-9.8064,0.0642,0.536,-0.0924,-0.3403,-3.88,39.9,13.45,350.96,89.58,26.34,0.0,60.82,35.17803,126.90888,,155.5747938716443,,20.218,,2 / 18,414,2014-12-14 14:29:55:290
0.573,-9.5782,1.2055,0.19,-9.8037,0.149,0.5018,-0.0125,0.8406,-4.2,40.28,13.26,350.96,89.58,26.34,0.0,60.82,35.17803,126.90888,,155.5747938716443,,20.218,,2 / 18,464,2014-12-14 14:29:55:340
1.4926,-10.8427,3.1788,0.2216,-9.8006,0.2642,0.4429,-0.1723,1.5987,-3.88,39.9,12.83,65.41,88.59,-51.89,0.0,60.82,35.17803,126.90888,,155.5747938716443,,20.218,,2 / 18,514,2014-12-14 14:29:55:390
0.8795,-11.2259,4.6348,0.6112,-9.7238,1.1153,0.7763,-1.0946,3.3446,-4.57,39.9,9.39,48.42,85.29,-33.09,0.0,60.82,35.17803,126.90888,,155.5747938716443,,20.218,,2 / 18,564,2014-12-14 14:29:55:440
-1.1513,-12.1071,3.0255,0.5712,-9.7035,1.2987,-0.4618,-1.6414,2.8996,-4.95,41.03,9.08,48.42,85.29,-33.09,0.0,64.995,35.17803,126.90888,,155.5747938716443,,20.218,,2 / 18,614,2014-12-14 14:29:55:490
1.2435,-11.1301,-1.1893,0.3656,-9.716,1.2788,-0.1031,-0.7409,-1.6221,-6.45,41.4,3.32,37.06,81.43,-18.25,0.0,64.995,35.17803,126.90888,,155.5747938716443,,20.218,,2 / 18,664,2014-12-14 14:29:55:540
0.3622,-9.6166,-1.1893,0.4233,-9.7597,0.8603,0.2066,-0.385,-3.7238,-8.26,41.4,-0.99,93.39,84.39,-26.2,0.0,64.995,35.17803,126.90888,,155.5747938716443,,20.218,,2 / 18,714,2014-12-14 14:29:55:590
-0.6723,-9.3867,2.3358,0.3854,-9.7735,0.7082,-0.5424,0.5023,0.1891,-9.01,40.65,-5.99,141.73,85.08,-29.79,0.0,64.995,35.17803,126.90888,,155.5747938716443,,20.218,,2 / 18,764,2014-12-14 14:29:55:640
0.1323,-8.218,3.0447,0.2565,-9.7593,0.9275,-0.9748,1.5323,1.6205,-10.88,39.15,-6.49,141.73,85.08,-29.79,0.0,64.995,35.17803,126.90888,,155.5747938716443,,20.218,,2 / 18,814,2014-12-14 14:29:55:690
2.144,-7.6624,4.2325,0.4971,-9.6559,1.6392,1.6909,1.9663,2.601,-12.32,38.03,-10.05,132.48,83.54,-13.01,0.0,64.995,35.17803,126.90888,,155.5747938716443,,20.218,,2 / 18,864,2014-12-14 14:29:55:740
2.5846,-6.4363,5.6502,0.655,-9.607,1.8566,2.1015,2.1289,2.7502,-12.32,37.34,-12.11,135.96,79.94,-16.87,0.0,64.995,35.17803,126.90888,,155.5747938716443,,20.218,,2 / 18,914,2014-12-14 14:29:55:790
2.2014,-5.7849,6.6464,1.0426,-9.354,2.7542,1.2249,3.1623,3.8223,-14.2,34.4,-14.61,135.96,79.94,-16.87,0.0,65.377,35.17803,126.90888,,155.5747938716443,,20.218,,2 / 18,964,2014-12-14 14:29:55:840
0.6113,-6.3213,7.5852,1.1196,-9.109,3.4559,-0.0466,2.4539,4.4844,-16.01,29.96,-19.36,137.52,72.52,-20.73,0.0,65.377,35.17803,126.90888,,155.5747938716443,,20.218,,2 / 18,1014,2014-12-14 14:29:55:890
1.8949,-4.7504,6.474,1.1435,-8.5916,4.5878,0.1906,2.2379,3.0443,-15.63,28.84,-19.42,125.03,64.42,-14.14,0.0,65.377,35.17803,126.90888,,155.5747938716443,,20.218,,2 / 18,1064,2014-12-14 14:29:55:940
2.7379,-3.6009,6.0717,1.2827,-8.4543,4.801,1.5267,3.4176,1.7805,-14.57,25.9,-20.3,125.03,64.42,-14.14,0.0,65.377,35.17803,126.90888,,155.5747938716443,,20.218,,2 / 18,1114,2014-12-14 14:29:55:990
1.6267,-6.7237,5.1904,1.7198,-8.0334,5.3551,0.0423,0.2964,0.2949,-12.32,25.15,-20.3,121.38,59.55,-14.96,0.0,65.377,35.17803,126.90888,,155.5747938716443,,20.218,,2 / 18,1164,2014-12-14 14:29:56:040
-1.362,-6.1297,1.3779,1.6098,-8.0874,5.3078,-1.6369,0.2812,-1.6859,-11.95,25.9,-17.86,109.81,55.0,-17.8,0.0,65.377,35.17803,126.90888,,155.5747938716443,,20.218,,2 / 18,1214,2014-12-14 14:29:56:090
4.3855,-29.4262,21.2834,0.6531,-8.2055,5.3304,-2.9764,-12.7775,15.4651,-10.88,24.03,-12.86,88.02,56.74,-15.34,0.0,67.544,35.17803,126.90888,,155.5747938716443,,20.218,,2 / 18,1264,2014-12-14 14:29:56:140
-4.0825,-7.5283,-8.776,0.5175,-8.6296,4.6296,-1.1176,-13.9868,-3.7762,-9.76,23.34,-10.74,88.02,56.74,-15.34,0.0,67.544,35.17803,126.90888,,155.5747938716443,,20.218,,2 / 18,1314,2014-12-14 14:29:56:190
1.5309,-17.8546,-3.1818,0.6494,-9.3588,2.8568,6.6235,-5.2381,-5.8785,-8.26,21.84,-6.24,74.64,66.7,-1.79,0.0,67.544,35.17803,126.90888,,155.5747938716443,,20.218,,2 / 18,1364,2014-12-14 14:29:56:240
0.3431,-10.5936,-2.3005,0.5985,-9.5947,1.9375,-0.8112,-4.2952,-3.9925,-6.45,21.46,-3.8,75.52,72.62,-12.81,0.0,67.544,35.17803,126.90888,,155.5747938716443,,20.218,,2 / 18,1414,2014-12-14 14:29:56:290
-5.7876,-8.7353,-2.6262,-0.3719,-9.706,1.3508,-6.5481,0.1777,-1.912,-3.51,21.84,1.64,28.59,81.79,15.39,0.0,67.544,35.17803,126.90888,,155.5747938716443,,20.218,,2 / 18,1464,2014-12-14 14:29:56:340
-1.0363,-13.8314,-6.5536,-0.9843,-9.7342,0.6684,-3.0176,-1.6027,-5.6445,-2.01,19.28,4.14,28.59,81.79,15.39,0.0,67.544,35.17803,126.90888,,155.5747938716443,,20.218,,2 / 18,1514,2014-12-14 14:29:56:390
9.8073,-31.0355,8.9837,0.4568,-9.792,-0.2792,11.5183,-26.0921,-1.46,0.93,17.78,6.14,283.56,85.35,80.46,0.0,67.544,35.17803,126.90888,,155.5747938716443,,20.218,,2 / 18,1564,2014-12-14 14:29:56:440
2.7379,-13.5249,11.3594,1.0843,-9.732,0.5318,5.3079,-6.48,8.2388,4.62,16.71,12.58,96.58,86.87,-121.43,0.0,70.915,35.17803,126.90888,,155.5747938716443,,20.218,,2 / 18,1614,2014-12-14 14:29:56:490
11.1483,-6.283,7.5277,1.2543,-9.6275,1.3812,1.4892,10.3874,5.7901,7.18,15.96,13.45,96.58,86.87,-121.43,0.0,70.915,35.17803,126.90888,,155.5747938716443,,20.218,,2 / 18,1664,2014-12-14 14:29:56:540
9.5007,-4.6162,8.1982,2.6152,-9.1437,2.3925,8.7348,6.3031,6.4589,8.68,15.96,14.76,8.16,79.03,-42.24,0.0,70.915,35.17803,126.90888,,155.5747938716443,,20.218,,2 / 18,1714,2014-12-14 14:29:56:590
9.0026,-12.3179,1.627,3.109,-8.8253,2.9357,2.4054,6.1184,3.8615,10.18,18.9,18.33,14.6,68.81,-47.55,0.0,70.915,35.17803,126.90888,,155.5747938716443,,20.218,,2 / 18,1764,2014-12-14 14:29:56:640
14.1562,-33.8326,-3.3351,3.8961,-8.7578,2.0714,11.5715,-14.2238,-10.7283,4.24,25.15,9.57,14.88,62.25,-51.27,0.0,70.915,35.17803,126.90888,,155.5747938716443,,20.218,,2 / 18,1814,2014-12-14 14:29:56:690
-0.7873,-32.5873,-4.6761,2.8318,-9.3049,1.2527,-11.155,-22.8743,-6.2935,-1.63,29.21,5.45,14.88,62.25,-51.27,0.0,70.915,35.17803,126.90888,,155.5747938716443,,20.218,,2 / 18,1864,2014-12-14 14:29:56:740
-7.3586,-17.3565,-4.7528,1.6315,-9.6638,0.3451,-8.7031,-5.3978,-6.548,-11.26,28.46,-5.8,19.67,71.59,-66.14,0.0,70.915,35.17803,126.90888,,155.5747938716443,,20.218,,2 / 18,1914,2014-12-14 14:29:56:790
-0.8639,1.0738,-11.4773,0.8644,-9.768,-0.0927,-10.5194,10.6403,-6.1233,-14.95,28.09,-6.42,194.21,80.21,-78.06,0.0,73.153,35.17803,126.90888,,155.5747938716443,,20.218,,2 / 18,1964,2014-12-14 14:29:56:840
-3.7951,7.9707,-17.493,0.5176,-9.6252,-1.8052,-3.4879,20.093,-13.885,-17.13,29.21,-5.05,265.22,83.08,-147.38,0.0,73.153,35.17803,126.90888,,155.5747938716443,,20.218,,2 / 18,2014,2014-12-14 14:29:56:890
1.301,0.0584,-2.0706,-0.2923,-9.108,-3.6234,-7.342,16.905,-8.6376,-17.13,31.46,-3.24,265.22,83.08,-147.38,0.0,73.153,35.17803,126.90888,,155.5747938716443,,20.218,,2 / 18,2064,2014-12-14 14:29:56:940
1.3776,-6.3405,2.2975,-0.1264,-9.1238,-3.5931,1.5465,3.4451,5.7611,-15.63,30.71,5.33,305.4,68.24,175.39,0.0,73.153,35.17803,126.90888,,155.5747938716443,,20.218,,2 / 18,2114,2014-12-14 14:29:56:990
25.6512,-39.2928,0.0943,-0.188,-9.146,-3.5335,-1.6975,1.55,-3.2677,-15.63,29.59,8.01,284.09,68.49,177.99,0.0,73.153,35.17803,126.90888,,155.5747938716443,,20.218,,2 / 18,2164,2014-12-14 14:29:57:040
-7.9333,21.3049,-33.586,0.1755,-9.2529,-3.2439,-4.3618,23.7626,-20.0566,-17.88,31.84,12.95,232.97,79.69,-166.35,0.0,73.153,35.17803,126.90888,,155.5747938716443,,20.218,,2 / 18,2214,2014-12-14 14:29:57:090
-11.1136,0.863,-18.221,-2.803,-7.3691,-5.8318,-7.2097,5.3205,-8.6177,-12.32,30.71,19.7,232.97,79.69,-166.35,0.0,73.153,35.17803,126.90888,,155.5747938716443,,20.218,,2 / 18,2265,2014-12-14 14:29:57:141
7.0485,-26.1693,-4.7144,-1.3297,-8.3578,-4.9548,5.307,-9.4771,-7.2507,-4.26,25.9,28.39,294.27,48.72,154.33,0.0,72.828,35.17803,126.90888,,155.5747938716443,,20.218,,2 / 18,2314,2014-12-14 14:29:57:190
-0.4424,-6.9727,6.0525,-0.1456,-9.1559,-3.5098,11.2882,-24.482,8.1219,0.18,23.34,33.07,209.48,58.46,164.98,0.0,72.828,35.17803,126.90888,,155.5747938716443,,20.218,,2 / 18,2364,2014-12-14 14:29:57:240
-1.5919,-2.0107,6.8955,0.3676,-9.5645,-2.1344,-2.3891,10.5055,8.4419,2.43,22.59,35.45,162.49,75.41,-169.15,0.0,72.828,35.17803,126.90888,,155.5747938716443,,20.218,,2 / 18,2414,2014-12-14 14:29:57:290
5.2859,-3.9074,7.8534,1.2171,-9.6693,-1.0924,9.5582,4.219,11.5913,4.24,22.96,36.95,162.49,75.41,-169.15,0.0,72.828,35.17803,126.90888,,155.5747938716443,,20.218,,2 / 18,2464,2014-12-14 14:29:57:340
6.9527,-4.3097,9.7117,2.1551,-9.5461,0.6304,3.505,6.4724,9.1257,5.74,31.09,34.39,117.28,80.4,-131.91,0.0,72.828,35.17803,126.90888,,155.5747938716443,,20.218,,2 / 18,2514,2014-12-14 14:29:57:390
28.8314,-39.2928,-12.167,3.1145,-9.18,1.4826,7.6769,1.2639,4.5332,1.68,37.34,31.08,44.95,69.41,-64.54,0.0,72.828,35.17803,126.90888,,155.5747938716443,,20.218,,2 / 18,2564,2014-12-14 14:29:57:440
-9.5043,-39.2928,-8.8143,2.7109,-9.4242,-0.0792,-12.162,-24.3896,-7.3385,-15.63,45.09,12.33,79.37,68.54,-85.57,0.0,72.828,35.17803,126.90888,,155.5747938716443,,20.218,,2 / 18,2614,2014-12-14 14:29:57:490
-3.2012,-9.425,-10.5194,1.5219,-9.6662,-0.6469,-9.6605,-10.8135,-7.2175,-21.57,43.59,2.39,79.37,68.54,-85.57,0.0,73.055,35.17803,126.90888,,155.5747938716443,,20.218,,2 / 18,2664,2014-12-14 14:29:57:540
-11.5925,-0.7079,-10.9984,0.5167,-9.6134,-1.8672,-11.6152,14.0198,-8.1912,-25.63,38.84,-3.99,218.56,80.29,-113.03,0.0,73.055,35.17803,126.90888,,155.5747938716443,,20.218,,2 / 18,2714,2014-12-14 14:29:57:590
-10.8262,8.1049,-10.8643,-0.5811,-9.3293,-2.9659,-9.8048,21.1252,-7.5962,-24.88,36.21,-4.49,279.82,78.61,-164.53,0.0,73.055,35.17803,126.90888,,155.5747938716443,,20.218,,2 / 18,2764,2014-12-14 14:29:57:640
0.0748,-2.6621,1.8185,-1.1283,-8.9501,-3.8462,-5.8601,15.1706,-5.8413,-24.13,37.71,-1.67,279.82,78.61,-164.53,0.0,73.055,35.17803,126.90888,,155.5747938716443,,20.218,,2 / 18,2814,2014-12-14 14:29:57:690
0.0748,-4.3289,3.6577,-1.7008,-8.4282,-4.7163,-0.849,9.9101,-0.3047,-21.95,38.84,1.2,314.08,65.88,163.65,0.0,73.055,35.17803,126.90888,,155.5747938716443,,20.218,,2 / 18,2872,2014-12-14 14:29:57:748
1.7225,-8.6012,-3.2584,-1.2518,-9.1306,-3.3519,5.0089,-2.559,11.4376,-16.38,38.46,3.76,321.81,59.25,160.17,0.0,73.055,35.17803,126.90888,,155.5747938716443,,20.218,,2 / 18,2914,2014-12-14 14:29:57:790
3.3126,-1.2252,-2.3005,-0.0067,-9.3325,-3.0125,9.9557,-27.971,2.0413,-12.7,37.34,10.89,308.37,59.94,165.4,0.0,71.94,35.17803,126.90888,,155.5747938716443,,20.218,,2 / 18,2964,2014-12-14 14:29:57:840
1.1094,-24.9049,-29.0646,-2.7516,-7.6307,-5.511,-31.1232,38.0663,-16.1149,-15.63,35.15,10.26,308.37,59.94,165.4,0.0,71.94,35.17803,126.90888,,155.5747938716443,,20.218,,2 / 18,3014,2014-12-14 14:29:57:890
26.3026,-39.2544,-0.2122,-2.0985,-7.4596,-6.0101,3.9634,-16.1295,-21.946,-3.88,32.53,18.08,309.53,51.09,153.47,0.0,71.94,35.17803,126.90888,,155.5747938716443,,20.218,,2 / 18,3065,2014-12-14 14:29:57:941
6.8377,-14.387,18.7736,1.0094,-9.2653,-3.0506,8.2212,-6.4632,17.7813,2.74,26.65,25.58,150.02,66.21,-171.01,0.0,71.94,35.17803,126.90888,,155.5747938716443,,20.218,,2 / 18,3114,2014-12-14 14:29:57:990
0.5347,-3.6775,8.7155,0.8297,-9.5978,-1.834,-5.944,9.9687,10.6119,5.74,27.03,26.01,150.02,66.21,-171.01,0.0,71.94,35.17803,126.90888,,155.5747938716443,,20.218,,2 / 18,3164,2014-12-14 14:29:58:040
8.5811,-4.2714,5.5161,1.5601,-9.6378,-0.922,9.0742,6.5608,7.9019,6.43,23.34,26.26,98.22,79.35,-120.58,0.0,71.94,35.17803,126.90888,,155.5747938716443,,20.218,,2 / 18,3214,2014-12-14 14:29:58:090
7.1251,-4.1564,6.6273,2.6518,-9.4375,0.2671,1.5093,7.0038,7.3375,6.12,26.28,24.51,57.91,74.23,-84.25,0.0,71.94,35.17803,126.90888,,155.5747938716443,,20.218,,2 / 18,3264,2014-12-14 14:29:58:140
10.9376,-13.5823,5.746,3.3186,-9.1578,1.1368,5.1857,2.6152,7.0745,5.37,27.78,21.7,57.91,74.23,-84.25,0.0,73.461,35.17803,126.90888,,155.5747938716443,,20.218,,2 / 18,3314,2014-12-14 14:29:58:190
-9.2744,-38.4881,-13.4123,3.7724,-9.0414,-0.438,2.3511,-25.6412,-5.1418,-5.7,32.53,15.89,44.57,69.04,-71.09,0.0,73.461,35.17803,126.90888,,155.5747938716443,,20.218,,2 / 18,3364,2014-12-14 14:29:58:240
-7.6651,-17.3948,-7.32,2.2028,-9.4819,-1.1878,-13.6151,-7.8941,-8.3864,-15.32,36.96,12.2,158.7,75.21,-118.33,0.0,73.461,35.17803,126.90888,,155.5747938716443,,20.218,,2 / 18,3414,2014-12-14 14:29:58:290
-12.014,0.4224,-9.9255,1.0968,-9.5267,-2.0514,-12.0206,13.4848,-6.2287,-23.76,35.84,6.39,247.5,76.28,-151.87,0.0,73.461,35.17803,126.90888,,155.5747938716443,,20.218,,2 / 18,3464,2014-12-14 14:29:58:340
-15.5966,10.1356,-15.6538,-0.1613,-9.2846,-3.153,-12.0206,13.4848,-6.2287,-24.51,34.03,9.39,247.5,76.28,-151.87,0.0,73.461,35.17803,126.90888,,155.5747938716443,,20.218,,2 / 18,3514,2014-12-14 14:29:58:390
0.9178,-2.5471,0.1518,-1.3942,-8.3567,-4.9389,2.8033,10.3602,0.2522,-21.57,35.15,12.51,288.97,64.72,165.81,0.0,73.461,35.17803,126.90888,,155.5747938716443,,20.218,,2 / 18,3564,2014-12-14 14:29:58:440
8.562,-17.2224,14.0415,-1.1703,-8.7051,-4.3615,2.3882,0.3272,9.4945,-21.95,34.78,12.45,299.04,58.45,164.24,0.0,71.636,35.17803,126.90888,,155.5747938716443,,20.218,,2 / 18,3614,2014-12-14 14:29:58:490
3.9257,-2.2215,-10.3087,-0.5562,-9.2688,-3.1544,8.3457,-7.8917,16.3557,-20.45,34.78,14.7,299.04,58.45,164.24,0.0,71.636,35.17803,126.90888,,155.5747938716443,,20.218,,2 / 18,3664,2014-12-14 14:29:58:540
-28.95,20.8643,-15.9029,-0.7678,-9.0162,-3.7801,-6.2936,-6.527,2.8978,-24.88,29.21,17.2,265.15,70.94,170.0,0.0,71.636,35.17803,126.90888,,155.5747938716443,,20.218,,2 / 18,3714,2014-12-14 14:29:58:590
-12.6654,-9.6932,-29.4095,-4.4364,-6.2197,-6.1485,-16.0664,20.347,-9.2775,-24.13,27.78,20.39,259.56,66.5,174.01,0.0,71.636,35.17803,126.90888,,155.5747938716443,,20.218,,2 / 18,3764,2014-12-14 14:29:58:640
5.3625,-25.8436,-6.6686,-1.8449,-7.3982,-6.1671,0.8665,-20.8243,-28.6333,-14.2,23.71,28.95,259.56,66.5,174.01,0.0,71.636,35.17803,126.90888,,155.5747938716443,,20.218,,2 / 18,3814,2014-12-14 14:29:58:690
10.4778,-17.6822,13.371,-0.0942,-8.8944,-4.1294,8.9392,-6.7069,17.813,-8.63,18.15,34.83,255.76,48.97,163.35,0.0,71.636,35.17803,126.90888,,155.5747938716443,,20.218,,2 / 18,3864,2014-12-14 14:29:58:740
9.0218,-5.1718,7.7384,0.1132,-9.3645,-2.9092,-1.8737,9.5165,12.5333,-6.07,18.15,35.26,195.79,65.09,178.69,0.0,71.636,35.17803,126.90888,,155.5747938716443,,20.218,,2 / 18,3914,2014-12-14 14:29:58:790
6.6461,-3.1985,4.0601,1.351,-9.5893,-1.5463,5.6239,6.7123,7.0431,0.18,16.34,36.07,168.84,75.16,-170.47,0.0,73.381,35.17803,126.90888,,155.5747938716443,,20.218,,2 / 18,3965,2014-12-14 14:29:58:841
7.834,-4.9036,5.8801,2.2378,-9.5204,-0.7251,5.1205,6.1215,7.2635,1.3,18.9,34.57,168.84,75.16,-170.47,0.0,73.381,35.17803,126.90888,,155.5747938716443,,20.218,,2 / 18,4014,2014-12-14 14:29:58:890
25.3255,-29.3496,-22.7232,3.9731,-8.8987,-1.0943,17.7741,-12.8202,-15.9175,1.3,27.4,30.51,94.48,76.12,-107.95,0.0,73.381,35.17803,126.90888,,155.5747938716443,,20.218,,2 / 18,4064,2014-12-14 14:29:58:940
-12.7804,-26.495,-7.5499,3.1245,-9.21,-1.2585,-10.0857,-25.738,-2.1773,-8.63,33.65,25.08,88.97,65.15,-105.4,0.0,73.381,35.17803,126.90888,,155.5747938716443,,20.218,,2 / 18,4114,2014-12-14 14:29:58:990
-2.3966,-15.0,-8.5461,1.2477,-9.5393,-1.9014,-5.6721,-1.0195,-5.2126,-21.57,36.21,14.32,185.14,74.75,-125.56,0.0,73.381,35.17803,126.90888,,155.5747938716443,,20.218,,2 / 18,4164,2014-12-14 14:29:59:040
-16.363,5.4993,-8.7377,0.54,-9.5079,-2.3406,-10.2977,6.2995,-3.6429,-25.26,36.96,11.58,185.14,74.75,-125.56,0.0,73.381,35.17803,126.90888,,155.5747938716443,,20.218,,2 / 18,4214,2014-12-14 14:29:59:090
-6.5156,6.0549,-9.7339,-1.454,-8.8347,-4.0005,-8.8194,23.3133,-8.0793,-25.26,38.46,10.89,277.33,74.45,177.32,0.0,73.381,35.17803,126.90888,,155.5747938716443,,20.218,,2 / 18,4264,2014-12-14 14:29:59:140
0.573,-1.3019,-1.0935,-2.2174,-8.0318,-5.1714,-0.8472,12.2052,-1.3616,-24.13,41.03,13.01,297.7,64.28,160.03,0.0,72.542,35.17803,126.90888,,155.5747938716443,,20.218,,2 / 18,4314,2014-12-14 14:29:59:190
3.0061,-6.3213,0.1518,-0.6873,-9.3708,-2.8082,8.3869,-5.0522,15.4758,-22.32,41.4,14.76,305.12,56.19,157.38,0.0,72.542,35.17803,126.90888,,155.5747938716443,,20.218,,2 / 18,4364,2014-12-14 14:29:59:240
-18.0297,2.07,-21.3055,-1.3832,-8.3779,-4.9059,-10.3044,12.8758,-19.057,-20.82,41.4,16.7,305.12,56.19,157.38,0.0,72.542,35.17803,126.90888,,155.5747938716443,,20.218,,2 / 18,4414,2014-12-14 14:29:59:290
-39.5062,28.8725,-21.9377,-1.6282,-8.4713,-4.6644,-22.7007,29.6202,-14.0419,-25.63,39.59,15.82,294.01,58.68,164.25,0.0,72.542,35.17803,126.90888,,155.5747938716443,,20.218,,2 / 18,4464,2014-12-14 14:29:59:340
-9.2744,-27.4721,-32.4557,-4.779,-5.2826,-6.7398,-12.0555,-2.8468,-17.5676,-18.63,42.53,21.26,291.8,59.75,160.76,0.0,72.542,35.17803,126.90888,,155.5747938716443,,20.218,,2 / 18,4514,2014-12-14 14:29:59:390
0.5921,-25.0198,1.7611,-1.7693,-8.1054,-5.229,15.7339,-19.6736,7.831,-6.45,35.15,34.2,252.19,55.74,161.31,0.0,72.542,35.17803,126.90888,,155.5747938716443,,20.218,,2 / 18,4564,2014-12-14 14:29:59:440
8.6194,-11.6282,14.827,-1.0652,-8.9519,-3.8599,8.5683,-7.2695,15.6194,-1.63,31.84,35.51,252.19,55.74,161.31,0.0,72.448,35.17803,126.90888,,155.5747938716443,,20.218,,2 / 18,4614,2014-12-14 14:29:59:490
4.7686,-0.1715,6.5315,-0.6295,-9.2871,-3.0862,8.8526,2.658,17.6264,1.68,30.71,36.83,201.22,65.9,164.57,0.0,72.448,35.17803,126.90888,,155.5747938716443,,20.218,,2 / 18,4664,2014-12-14 14:29:59:540
-2.2816,-1.9149,0.2667,-0.3936,-9.6125,-1.9013,-0.7213,8.1077,4.9348,12.74,30.71,34.95,169.38,78.58,168.3,0.0,72.448,35.17803,126.90888,,155.5747938716443,,20.218,,2 / 18,4714,2014-12-14 14:29:59:590
10.382,-1.5701,2.3167,-0.2172,-9.6709,-1.6117,8.7572,6.9995,5.3261,18.24,33.28,33.01,169.38,78.58,168.3,0.0,72.448,35.17803,126.90888,,155.5747938716443,,20.218,,2 / 18,4764,2014-12-14 14:29:59:640
16.3786,-10.1721,-9.8872,1.378,-9.6366,-1.1865,12.3769,0.9075,-5.1225,21.93,36.59,31.64,147.98,80.45,172.33,0.0,72.448,35.17803,126.90888,,155.5747938716443,,20.218,,2 / 18,4814,2014-12-14 14:29:59:690
-7.6268,-38.0858,-6.0364,2.318,-9.2057,-2.46,-7.1242,-22.5337,-2.8124,7.18,47.28,30.01,73.74,65.85,-126.08,0.0,72.448,35.17803,126.90888,,155.5747938716443,,20.218,,2 / 18,4864,2014-12-14 14:29:59:740
-14.9261,-28.9089,-3.0094,0.6317,-9.53,-2.2249,-14.6312,-20.3037,-2.2347,-2.38,51.34,26.01,73.74,65.85,-126.08,0.0,72.448,35.17803,126.90888,,155.5747938716443,,20.218,,2 / 18,4914,2014-12-14 14:29:59:790
-10.7304,-10.0189,-1.9557,-0.3585,-9.5879,-2.0285,-6.8199,-1.6301,-0.6234,-16.38,53.21,16.08,209.32,76.36,-164.15,0.0,71.628,35.17803,126.90888,,155.5747938716443,,20.218,,2 / 18,4964,2014-12-14 14:29:59:840
-15.3476,2.0892,-1.8215,-1.3716,-9.4968,-2.0247,-11.9325,10.7053,2.0125,-18.26,52.09,11.39,279.81,77.87,169.98,0.0,71.628,35.17803,126.90888,,155.5747938716443,,20.218,,2 / 18,5034,2014-12-14 14:29:59:910
-4.3699,4.7905,-12.2053,-2.7551,-9.0578,-2.5567,-8.4783,20.3542,-3.724,-21.57,52.09,7.08,279.81,77.87,169.98,0.0,71.628,35.17803,126.90888,,155.5747938716443,,20.218,,2 / 18,5065,2014-12-14 14:29:59:941
3.7149,-6.0723,9.6734,-3.0002,-8.1919,-4.4791,2.8094,17.7487,-10.9669,-22.7,52.84,6.39,328.03,67.46,132.86,0.0,71.628,35.17803,126.90888,,155.5747938716443,,20.218,,2 / 18,5114,2014-12-14 14:29:59:990
-13.949,0.6331,-24.1218,-1.8793,-9.115,-3.0913,-5.3356,7.2621,-13.6022,-26.01,50.59,7.39,314.95,68.35,148.7,0.0,71.628,35.17803,126.90888,,155.5747938716443,,20.218,,2 / 18,5164,2014-12-14 14:30:00:040
-7.7034,-31.9743,-1.3809,-2.4432,-8.3848,-4.4606,-11.837,-20.2025,-15.0517,-27.82,49.9,11.33,314.95,68.35,148.7,0.0,71.628,35.17803,126.90888,,155.5747938716443,,20.218,,2 / 18,5219,2014-12-14 14:30:00:095
-0.7873,-5.0186,-19.792,-4.0801,-8.1429,-3.6354,-26.959,23.93,-14.7925,-26.7,53.21,7.83,319.81,58.76,151.29,0.0,71.628,35.17803,126.90888,,155.5747938716443,,20.218,,2 / 18,5264,2014-12-14 14:30:00:140
13.1025,-20.2494,-11.6306,-3.1488,-7.8991,-4.8846,13.7809,-6.0261,-9.0594,-19.01,56.9,16.76,320.51,53.66,147.19,0.0,71.857,35.17803,126.90888,,155.5747938716443,,20.218,,2 / 18,5314,2014-12-14 14:30:00:190
-1.7643,-7.3176,1.7994,-0.8401,-9.0334,-3.7232,5.5516,0.3675,6.9178,-15.63,58.34,19.08,320.51,53.66,147.19,0.0,71.857,35.17803,126.90888,,155.5747938716443,,20.218,,2 / 18,5364,2014-12-14 14:30:00:240
-3.6035,-5.4209,0.8798,-0.9447,-9.1079,-3.5104,-1.2721,4.1707,5.856,-15.32,56.15,21.33,287.22,67.1,167.29,0.0,71.857,35.17803,126.90888,,155.5747938716443,,20.218,,2 / 18,5414,2014-12-14 14:30:00:290
4.4429,-10.9768,4.3474,-1.2037,-9.2138,-3.1347,1.1884,2.5155,3.6578,-7.95,53.59,29.64,257.14,68.96,159.2,0.0,71.857,35.17803,126.90888,,155.5747938716443,,20.218,,2 / 18,5464,2014-12-14 14:30:00:340
-2.9905,-6.3596,6.2058,-0.7299,-9.4994,-2.3237,3.0979,0.8153,7.9131,-4.63,54.65,30.83,257.14,68.96,159.2,0.0,71.857,35.17803,126.90888,,155.5747938716443,,20.218,,2 / 18,5514,2014-12-14 14:30:00:390
8.7727,-15.1725,-4.1205,-0.6068,-9.6644,-1.5496,6.9057,-1.6752,-0.6764,6.12,52.84,33.45,201.21,75.62,162.56,0.0,71.857,35.17803,126.90888,,155.5747938716443,,20.218,,2 / 18,5565,2014-12-14 14:30:00:441
1.1477,-16.0729,-1.0744,-0.0319,-9.6779,-1.5836,7.8216,-6.2885,-1.4631,6.12,55.03,30.83,166.16,80.7,178.85,0.0,72.579,35.17803,126.90888,,155.5747938716443,,20.218,,2 / 18,5614,2014-12-14 14:30:00:490
-6.7455,-14.3678,1.1288,0.1984,-9.5282,-2.3117,1.8058,-7.9679,-5.6148,3.49,57.28,29.64,166.16,80.7,178.85,0.0,72.579,35.17803,126.90888,,155.5747938716443,,20.218,,2 / 18,5664,2014-12-14 14:30:00:540
-7.167,-14.0421,-1.4384,-1.089,-9.5544,-1.9232,-7.1559,-1.9869,0.8694,-0.57,58.71,28.76,174.04,76.31,-175.1,0.0,72.579,35.17803,126.90888,,155.5747938716443,,20.218,,2 / 18,5714,2014-12-14 14:30:00:590
-2.4732,-9.0035,-2.971,-1.3639,-9.5134,-1.9508,-0.5076,2.5263,-0.4211,-7.2,63.53,20.33,260.32,76.98,150.48,0.0,72.579,35.17803,126.90888,,155.5747938716443,,20.218,,2 / 18,5764,2014-12-14 14:30:00:640
-3.0671,-6.8769,-1.5725,-1.7008,-9.4273,-2.0986,-2.6271,3.2909,-0.6976,-9.38,64.65,17.26,293.0,75.95,145.04,0.0,72.579,35.17803,126.90888,,155.5747938716443,,20.218,,2 / 18,5814,2014-12-14 14:30:00:690
-0.5191,-5.7849,-2.0323,-1.8208,-9.402,-2.1111,-1.3216,3.9124,0.5765,-10.51,63.9,15.45,306.03,74.01,140.98,0.0,72.579,35.17803,126.90888,,155.5747938716443,,20.218,,2 / 18,5864,2014-12-14 14:30:00:740
-2.569,-6.1106,-1.9557,-1.7697,-9.3743,-2.2718,-0.1938,3.9078,-0.4295,-13.82,65.4,13.7,310.45,72.92,142.08,0.0,72.579,35.17803,126.90888,,155.5747938716443,,20.218,,2 / 18,5915,2014-12-14 14:30:00:791
0.2281,-6.4938,-1.9557,-1.7387,-9.3647,-2.3343,1.8488,2.9086,0.3084,-13.82,64.65,15.14,310.45,72.92,142.08,0.0,67.78,35.17803,126.90888,,155.5747938716443,,20.218,,2 / 18,5964,2014-12-14 14:30:00:840
-0.6723,-12.6819,4.1558,-1.6531,-9.4101,-2.2107,0.2444,0.0827,2.1189,-13.82,64.28,16.26,305.32,72.73,143.32,0.0,67.78,35.17803,126.90888,,155.5747938716443,,20.218,,2 / 18,6014,2014-12-14 14:30:00:890
-0.0018,-12.0113,3.9834,-1.5012,-9.5711,-1.52,0.6754,-1.8477,3.1941,-13.45,64.65,14.95,305.32,72.73,143.32,0.0,67.78,35.17803,126.90888,,155.5747938716443,,20.218,,2 / 18,6064,2014-12-14 14:30:00:940
0.822,-9.5208,1.1671,-1.2822,-9.6753,-0.9565,2.5848,-0.7229,2.2666,-11.26,62.78,18.51,293.18,77.42,135.36,0.0,67.78,35.17803,126.90888,,155.5747938716443,,20.218,,2 / 18,6114,2014-12-14 14:30:00:990
-0.4233,-8.4862,0.3242,-1.1757,-9.7003,-0.8325,1.6433,0.8651,1.846,-11.63,63.15,17.89,292.95,80.61,126.72,0.0,67.78,35.17803,126.90888,,155.5747938716443,,20.218,,2 / 18,6164,2014-12-14 14:30:01:040
0.2856,-9.7124,0.9181,-0.8459,-9.7592,-0.4618,1.5416,-0.546,1.5027,-11.26,63.53,19.26,289.17,82.49,122.03,0.0,67.78,35.17803,126.90888,,155.5747938716443,,20.218,,2 / 18,6214,2014-12-14 14:30:01:090
0.6304,-9.6932,0.2476,-0.8245,-9.7636,-0.4035,0.3563,0.6377,0.8377,-12.32,64.65,17.51,289.17,82.49,122.03,0.0,67.78,35.17803,126.90888,,155.5747938716443,,20.218,,2 / 18,6264,2014-12-14 14:30:01:140
0.1898,-9.5974,0.6499,-0.5852,-9.7869,-0.2092,0.6787,-0.2702,0.9183,-12.7,63.9,17.64,293.79,84.63,116.07,0.0,58.041,35.17803,126.90888,,155.5747938716443,,20.218,,2 / 18,6314,2014-12-14 14:30:01:190
0.573,-9.4441,0.669,-0.5375,-9.7907,-0.1512,0.6591,-1.0E-4,0.7988,-12.32,64.65,17.2,298.48,86.74,105.71,0.0,58.041,35.17803,126.90888,,155.5747938716443,,20.218,,2 / 18,6364,2014-12-14 14:30:01:240
0.4197,-9.8848,0.6116,-0.2913,-9.8023,0.0038,0.5474,0.0438,0.2352,-13.82,63.9,17.2,308.42,87.67,96.34,0.0,58.041,35.17803,126.90888,,155.5747938716443,,20.218,,2 / 18,6414,2014-12-14 14:30:01:290
-0.1934,-9.6166,0.4583,-0.2445,-9.8035,0.0411,0.6343,-0.3057,0.5126,-13.45,63.9,18.14,308.42,87.67,96.34,0.0,58.041,35.17803,126.90888,,155.5747938716443,,20.218,,2 / 18,6464,2014-12-14 14:30:01:340
0.6113,-9.8848,1.033,-0.1243,-9.8044,0.1696,0.8597,-0.1644,0.7202,-15.32,63.53,16.51,321.61,88.55,80.46,0.0,58.041,35.17803,126.90888,,155.5747938716443,,20.218,,2 / 18,6514,2014-12-14 14:30:01:390
0.4389,-9.5974,1.0905,-0.0742,-9.8038,0.2238,0.6871,-0.2289,0.751,-15.7,64.28,15.45,9.98,88.77,36.25,0.0,58.041,35.17803,126.90888,,155.5747938716443,,20.218,,2 / 18,6564,2014-12-14 14:30:01:440
0.7454,-9.4058,0.9564,0.0791,-9.7968,0.4316,0.6567,0.1764,0.6908,-15.32,63.53,15.64,39.04,88.08,0.6,0.0,58.041,35.17803,126.90888,,155.5747938716443,,20.218,,2 / 18,6614,2014-12-14 14:30:01:490
0.6688,-9.6932,0.8989,0.1228,-9.7948,0.4662,0.5978,0.183,0.4666,-15.32,63.15,15.7,39.04,88.08,0.6,0.0,51.619,35.17803,126.90888,,155.5747938716443,,20.218,,2 / 18,6664,2014-12-14 14:30:01:540
0.7645,-9.4058,0.9564,0.2549,-9.7872,0.5623,0.3607,0.1638,0.2539,-16.76,64.28,14.76,53.09,87.18,-14.76,0.0,51.619,35.17803,126.90888,,155.5747938716443,,20.218,,2 / 18,6714,2014-12-14 14:30:01:590
0.7837,-9.674,1.1097,0.2949,-9.7844,0.5908,0.5457,0.1051,0.3869,-16.01,63.53,15.89,60.51,86.39,-24.39,0.0,51.619,35.17803,126.90888,,155.5747938716443,,20.218,,2 / 18,6764,2014-12-14 14:30:01:640
1.1477,-9.5591,1.0905,0.4382,-9.7708,0.7139,0.6556,0.0622,0.4023,-16.38,63.53,13.7,65.07,85.6,-28.32,0.0,51.619,35.17803,126.90888,,155.5747938716443,,20.218,,2 / 18,6814,2014-12-14 14:30:01:690
1.0902,-9.3292,1.0139,0.4864,-9.7659,0.7486,0.6625,0.0293,0.4793,-15.7,63.15,15.01,65.07,85.6,-28.32,0.0,51.619,35.17803,126.90888,,155.5747938716443,,20.218,,2 / 18,6864,2014-12-14 14:30:01:740
0.6113,-9.5591,1.0139,0.5865,-9.7544,0.8234,0.103,0.0461,0.1042,-17.13,63.53,15.01,64.61,84.78,-33.01,0.0,51.619,35.17803,126.90888,,155.5747938716443,,20.218,,2 / 18,6914,2014-12-14 14:30:01:790
0.573,-9.5782,1.1097,0.584,-9.7528,0.8441,-0.0266,-0.1039,0.2953,-16.01,63.53,15.64,64.26,83.99,-34.68,0.0,61.663,35.17803,126.90888,,155.5747938716443,,20.218,,2 / 18,6964,2014-12-14 14:30:01:840
1.1094,-9.5782,0.9756,0.66,-9.7421,0.9092,0.4392,-0.0146,0.1016,-16.38,63.15,14.32,64.26,83.99,-34.68,0.0,61.663,35.17803,126.90888,,155.5747938716443,,20.218,,2 / 18,7014,2014-12-14 14:30:01:890
1.0519,-9.4633,0.9947,0.693,-9.7392,0.9155,0.4544,0.0107,0.089,-16.01,64.28,15.45,64.95,83.42,-35.98,0.0,61.663,35.17803,126.90888,,155.5747938716443,,20.218,,2 / 18,7064,2014-12-14 14:30:01:940
0.937,-9.5591,1.1671,0.7667,-9.7297,0.9573,0.1837,0.0219,0.1844,-15.7,63.53,14.7,66.3,83.04,-38.31,0.0,61.663,35.17803,126.90888,,155.5747938716443,,20.218,,2 / 18,7114,2014-12-14 14:30:01:990
0.9944,-9.4825,1.0139,0.7779,-9.7278,0.9675,0.1567,-0.0171,0.1443,-15.7,63.53,14.58,65.96,82.73,-38.8,0.0,61.663,35.17803,126.90888,,155.5747938716443,,20.218,,2 / 18,7164,2014-12-14 14:30:02:040
0.8412,-9.5016,1.033,0.8094,-9.7245,0.9743,0.0339,0.0085,0.0321,-15.32,64.65,14.58,65.96,82.73,-38.8,0.0,61.663,35.17803,126.90888,,155.5747938716443,,20.218,,2 / 18,7214,2014-12-14 14:30:02:090
1.0711,-9.4825,0.9564,0.8156,-9.7238,0.9766,0.0875,-0.0223,0.0356,-14.95,63.53,14.14,63.94,82.58,-39.72,0.0,61.663,35.17803,126.90888,,155.5747938716443,,20.218,,2 / 18,7264,2014-12-14 14:30:02:140
1.2818,-9.3867,0.9564,0.9201,-9.7144,0.9764,0.3942,0.115,-0.0734,-15.32,65.03,15.45,64.63,82.36,-41.19,0.0,56.713,35.17803,126.90888,,155.5747938716443,,20.218,,2 / 18,7314,2014-12-14 14:30:02:190
1.4542,-9.1568,0.2476,0.9559,-9.7117,0.9694,0.4907,0.024,-0.0937,-15.7,63.15,15.58,68.52,82.02,-44.6,0.0,56.713,35.17803,126.90888,,155.5747938716443,,20.218,,2 / 18,7364,2014-12-14 14:30:02:240
0.8987,-9.5208,0.7457,1.0565,-9.7113,0.8634,0.0234,-0.0714,-0.1334,-15.32,63.53,15.89,68.52,82.02,-44.6,0.0,56.713,35.17803,126.90888,,155.5747938716443,,20.218,,2 / 18,7414,2014-12-14 14:30:02:290
0.937,-9.6932,0.9756,1.0489,-9.714,0.8412,-0.1136,0.0613,-0.3111,-13.45,63.9,18.14,65.25,82.0,-50.74,0.0,56.713,35.17803,126.90888,,155.5747938716443,,20.218,,2 / 18,7464,2014-12-14 14:30:02:340
0.8029,-9.9806,1.1288,0.9889,-9.7152,0.898,-0.1067,-0.4185,0.2786,-13.07,62.4,19.89,65.25,82.0,-50.74,0.0,56.713,35.17803,126.90888,,155.5747938716443,,20.218,,2 / 18,7514,2014-12-14 14:30:02:390
1.3585,-9.8081,1.397,0.9957,-9.7144,0.8994,0.1088,-0.131,0.0316,-14.2,63.15,18.76,60.4,82.17,-47.76,0.0,56.713,35.17803,126.90888,,155.5747938716443,,20.218,,2 / 18,7564,2014-12-14 14:30:02:440
1.4734,-9.4633,0.0368,1.0382,-9.7083,0.9171,0.3336,-0.1118,0.3606,-13.45,62.78,18.08,63.43,81.88,-48.55,0.0,56.713,35.17803,126.90888,,155.5747938716443,,20.218,,2 / 18,7614,2014-12-14 14:30:02:490
1.3585,-9.5974,-0.5379,1.0857,-9.7125,0.8116,-0.0497,0.2227,-0.9281,-15.32,62.4,16.83,63.43,81.88,-48.55,0.0,71.052,35.17803,126.90888,,155.5747938716443,,20.218,,2 / 18,7664,2014-12-14 14:30:02:540
0.8603,-9.4825,0.3625,1.1191,-9.7144,0.7405,0.4516,0.0464,-0.9832,-14.2,63.15,17.26,73.84,82.14,-56.51,0.0,71.052,35.17803,126.90888,,155.5747938716443,,20.218,,2 / 18,7714,2014-12-14 14:30:02:590
0.8603,-9.4825,0.3625,1.1191,-9.7144,0.7405,0.4516,0.0464,-0.9832,-14.2,63.15,17.26,73.84,82.14,-56.51,0.0,71.052,35.17803,126.90888,,155.5747938716443,,20.218,,2 / 18,7764,2014-12-14 14:30:02:640
1.1669,-9.6357,1.0522,1.0723,-9.7219,0.7108,0.0886,-0.1422,0.1307,-16.07,62.84,15.89,77.61,82.14,-56.51,0.0,71.052,35.17803,126.90888,,155.5747938716443,,20.218,,2 / 18,7814,2014-12-14 14:30:02:690
0.7837,-9.4058,0.669,1.0808,-9.7172,0.7599,0.0169,0.0382,0.2116,-16.01,65.03,15.58,80.97,82.46,-56.46,0.0,71.052,35.17803,126.90888,,155.5747938716443,,20.218,,2 / 18,7864,2014-12-14 14:30:02:740
0.9178,-9.6166,1.0522,1.0354,-9.7201,0.7858,-0.1205,-0.0617,0.1875,-16.01,64.65,16.01,76.82,82.35,-53.77,0.0,71.052,35.17803,126.90888,,155.5747938716443,,20.218,,2 / 18,7914,2014-12-14 14:30:02:790
0.9944,-9.4825,0.8415,1.0242,-9.7199,0.8035,-0.1416,-0.1138,0.2521,-14.2,63.53,15.2,71.72,82.37,-51.89,0.0,71.052,35.17803,126.90888,,155.5747938716443,,20.218,,2 / 18,7964,2014-12-14 14:30:02:840
1.0902,-9.4633,0.8606,1.0199,-9.7188,0.8211,-0.0272,0.0574,0.0837,-15.32,63.53,16.51,71.72,82.37,-51.89,0.0,70.68,35.17803,126.90888,,155.5747938716443,,20.218,,2 / 18,8014,2014-12-14 14:30:02:890
1.1286,-9.5591,0.9564,1.0346,-9.715,0.8476,0.1511,-0.0514,0.1799,-14.2,63.9,16.39,70.12,82.33,-51.17,0.0,70.68,35.17803,126.90888,,155.5747938716443,,20.218,,2 / 18,8064,2014-12-14 14:30:02:940
0.937,-9.4633,0.9756,1.0387,-9.7137,0.8574,0.0084,0.0484,0.033,-15.32,64.65,16.14,70.95,82.11,-50.46,0.0,70.68,35.17803,126.90888,,155.5747938716443,,20.218,,2 / 18,8114,2014-12-14 14:30:02:990
1.0136,-9.5016,1.0139,1.0336,-9.7123,0.8793,-0.0166,0.0062,0.0828,-14.57,64.28,16.95,69.56,82.05,-49.61,0.0,70.68,35.17803,126.90888,,155.5747938716443,,20.218,,2 / 18,8164,2014-12-14 14:30:03:040
0.937,-9.4825,0.9373,1.0336,-9.7112,0.8918,-0.0076,0.0342,0.111,-14.57,65.03,16.7,69.56,82.05,-49.61,0.0,70.68,35.17803,126.90888,,155.5747938716443,,20.218,,2 / 18,8214,2014-12-14 14:30:03:090
0.8603,-9.5591,0.9373,1.0277,-9.7111,0.8991,-0.1123,-0.0556,0.05,-14.2,65.03,14.32,71.14,82.0,-49.06,0.0,70.68,35.17803,126.90888,,155.5747938716443,,20.218,,2 / 18,8264,2014-12-14 14:30:03:140
1.0902,-9.5591,0.9181,1.0135,-9.7128,0.8973,0.0017,0.0414,-0.0481,-14.2,63.9,13.89,68.59,82.06,-48.18,0.0,53.467,35.17803,126.90888,,155.5747938716443,,20.218,,2 / 18,8314,2014-12-14 14:30:03:190
0.9944,-9.5591,0.8989,1.021,-9.7118,0.899,0.1117,-0.0711,0.0309,-14.2,65.4,15.64,68.59,82.06,-48.18,0.0,53.467,35.17803,126.90888,,155.5747938716443,,20.218,,2 / 18,8364,2014-12-14 14:30:03:240
1.0328,-9.5399,0.9756,1.0236,-9.7102,0.9133,0.0345,0.011,0.0158,-15.32,63.9,14.32,67.19,82.03,-48.64,0.0,53.467,35.17803,126.90888,,155.5747938716443,,20.218,,2 / 18,8414,2014-12-14 14:30:03:290
1.0328,-9.5591,0.9373,1.034,-9.7096,0.9081,0.1037,0.0467,-0.0922,-14.57,63.53,16.58,68.18,81.96,-48.26,0.0,53.467,35.17803,126.90888,,155.5747938716443,,20.218,,2 / 18,8464,2014-12-14 14:30:03:340
1.0902,-9.5399,1.033,1.0414,-9.7096,0.8997,0.0238,-0.0322,0.0075,-15.32,62.46,16.08,68.18,81.96,-48.26,0.0,53.467,35.17803,126.90888,,155.5747938716443,,20.218,,2 / 18,8514,2014-12-14 14:30:03:390
1.0902,-9.5016,0.8415,1.0546,-9.7072,0.9107,0.1085,-0.0255,0.0522,-15.7,62.09,17.39,66.98,81.93,-49.18,0.0,53.467,35.17803,126.90888,,155.5747938716443,,20.218,,2 / 18,8564,2014-12-14 14:30:03:440
1.0711,-9.5016,0.9564,1.0657,-9.7056,0.9143,0.0695,0.0063,0.0074,-16.07,63.53,15.33,72.66,81.83,-49.19,0.0,53.467,35.17803,126.90888,,155.5747938716443,,20.218,,2 / 18,8614,2014-12-14 14:30:03:490
1.186,-9.5016,0.9181,1.0714,-9.7038,0.9263,0.0385,0.0414,0.0744,-15.32,62.4,14.76,70.81,81.73,-49.25,0.0,42.068,35.17803,126.90888,,155.5747938716443,,20.218,,2 / 18,8664,2014-12-14 14:30:03:540
1.1477,-9.5016,0.8989,1.0782,-9.7029,0.9279,0.0933,0.0129,0.022,-15.7,62.78,16.08,71.69,81.66,-49.29,0.0,42.068,35.17803,126.90888,,155.5747938716443,,20.218,,2 / 18,8714,2014-12-14 14:30:03:590
1.0136,-9.4441,0.8798,1.0928,-9.7011,0.9301,0.0061,0.0269,-0.0025,-14.95,65.4,14.32,71.69,81.66,-49.29,0.0,42.068,35.17803,126.90888,,155.5747938716443,,20.218,,2 / 18,8764,2014-12-14 14:30:03:640
1.2052,-9.425,1.033,1.0925,-9.7011,0.9298,0.1187,-0.0772,0.0809,-15.7,62.78,15.64,71.79,81.59,-49.6,0.0,42.068,35.17803,126.90888,,155.5747938716443,,20.218,,2 / 18,8814,2014-12-14 14:30:03:690
1.2818,-9.4633,1.0714,1.1238,-9.6955,0.9509,0.1522,0.1088,0.0595,-15.7,63.53,15.14,71.98,81.44,-49.61,0.0,42.068,35.17803,126.90888,,155.5747938716443,,20.218,,2 / 18,8864,2014-12-14 14:30:03:740
1.1669,-9.5016,1.2438,1.1467,-9.6907,0.9723,0.1393,-0.0474,0.2357,-16.01,63.53,15.2,71.98,81.44,-49.61,0.0,42.068,35.17803,126.90888,,155.5747938716443,,20.218,,2 / 18,8916,2014-12-14 14:30:03:792
1.1094,-9.5208,1.0714,1.1495,-9.6869,1.0066,-0.0074,0.0348,0.0961,-15.32,63.53,14.76,68.16,81.06,-49.0,0.0,42.068,35.17803,126.90888,,155.5747938716443,,20.218,,2 / 18,8964,2014-12-14 14:30:03:840
1.186,-9.4441,0.5349,1.1673,-9.6858,0.9966,0.2558,0.0302,-0.2428,-15.7,63.9,16.33,69.89,81.0,-49.51,0.0,39.498,35.17803,126.90888,,155.5747938716443,,20.218,,2 / 18,9014,2014-12-14 14:30:03:890
0.6879,-9.2717,1.1671,1.207,-9.6902,0.9025,-0.1311,0.1254,-0.1762,-14.2,63.15,15.33,69.89,81.0,-49.51,0.0,39.498,35.17803,126.90888,,155.5747938716443,,20.218,,2 / 18,9064,2014-12-14 14:30:03:940
1.3585,-10.038,1.0139,1.1691,-9.6935,0.9165,-0.0352,-0.1909,0.0742,-14.57,63.53,16.83,70.8,81.16,-53.21,0.0,39.498,35.17803,126.90888,,155.5747938716443,,20.218,,2 / 18,9114,2014-12-14 14:30:03:990
1.4351,-9.5399,1.2055,1.1869,-9.6883,0.9475,0.0966,-0.0024,0.1764,-13.45,65.03,18.39,66.03,81.17,-51.62,0.0,39.498,35.17803,126.90888,,155.5747938716443,,20.218,,2 / 18,9164,2014-12-14 14:30:04:040
1.301,-9.5399,1.0905,1.2191,-9.6822,0.9697,0.2755,-0.0073,0.1114,-13.82,64.28,17.64,65.91,81.09,-51.4,0.0,39.498,35.17803,126.90888,,155.5747938716443,,20.218,,2 / 18,9214,2014-12-14 14:30:04:090
1.0328,-9.7124,1.4162,1.2258,-9.6785,0.9969,-0.0086,-0.0913,0.3283,-13.82,64.28,16.58,65.91,81.09,-51.4,0.0,39.498,35.17803,126.90888,,155.5747938716443,,20.218,,2 / 18,9264,2014-12-14 14:30:04:140
1.1094,-9.5016,0.7074,1.2042,-9.6872,0.9373,-0.0854,0.0199,-0.5057,-14.95,63.53,14.76,68.46,80.73,-50.88,0.0,68.199,35.17803,126.90888,,155.5747938716443,,20.218,,2 / 18,9314,2014-12-14 14:30:04:190