ACCELEROMETER X (m/s²),ACCELEROMETER Y (m/s²),ACCELEROMETER Z (m/s²),GRAVITY X (m/s²),GRAVITY Y (m/s²),GRAVITY Z (m/s²),LINEAR ACCELERATION X (m/s²),LINEAR ACCELERATION Y (m/s²),LINEAR ACCELERATION Z (m/s²),MAGNETIC FIELD X (μT),MAGNETIC FIELD Y (μT),MAGNETIC FIELD Z (μT),ORIENTATION X (°),ORIENTATION Y (°),ORIENTATION Z (°),PROXIMITY (i),SOUND LEVEL (dB),LOCATION Latitude : ,LOCATION Longitude : ,LOCATION Altitude ( m),LOCATION Altitude-google ( m),LOCATION Speed ( Kmh),LOCATION Accuracy ( m),LOCATION ORIENTATION (°),Satellites in range,Time since start in ms ,YYYY-MO-DD HH-MI-SS_SSS
0.458,-9.7315,0.2859,0.5676,-9.7902,-0.0087,-0.2887,-0.023,0.075,-6.51,40.9,5.58,126.61,86.37,-90.35,0.0,66.515,35.178024,126.90881,,156.55228501486238,,64.51613,,0 / 22,2,2014-12-14 14:34:09:964
1.0519,-9.6357,0.6116,0.5964,-9.7879,0.1053,0.3519,-0.1102,0.6481,-6.2,41.34,4.45,130.1,86.71,-88.32,0.0,66.515,35.178024,126.90881,,156.55228501486238,,64.51613,,0 / 22,52,2014-12-14 14:34:10:014
1.3968,-9.425,0.5924,0.6672,-9.7824,0.1755,0.5548,0.0728,0.5058,-6.57,41.71,7.2,130.1,86.71,-88.32,0.0,66.515,35.178024,126.90881,,156.55228501486238,,64.51613,,0 / 22,102,2014-12-14 14:34:10:064
1.8949,-9.6166,0.669,0.8915,-9.7627,0.2575,1.1548,-0.0836,0.4664,-5.82,39.84,5.33,101.2,85.97,-75.26,0.0,66.515,35.178024,126.90881,,156.55228501486238,,64.51613,,0 / 22,152,2014-12-14 14:34:10:114
1.665,-9.4058,0.3433,1.0193,-9.7486,0.3094,0.8087,0.0243,0.32,-6.2,39.46,5.7,88.0,83.76,-73.11,0.0,58.652,35.178024,126.90881,,156.55228501486238,,64.51613,,0 / 22,203,2014-12-14 14:34:10:165
1.3968,-9.5208,0.784,1.0882,-9.7385,0.3853,0.0278,0.0873,0.4604,-5.45,40.59,7.33,73.39,83.24,-70.5,0.0,58.652,35.178024,126.90881,,156.55228501486238,,64.51613,,0 / 22,252,2014-12-14 14:34:10:214
2.8528,-10.038,1.2438,1.178,-9.7254,0.4463,1.0263,-0.2125,0.4985,-6.57,39.09,5.76,73.39,83.24,-70.5,0.0,58.652,35.178024,126.90881,,156.55228501486238,,64.51613,,0 / 22,302,2014-12-14 14:34:10:264
4.213,-9.8656,1.1288,1.2982,-9.7073,0.504,1.7431,-0.389,0.829,-4.7,39.84,5.95,70.53,82.62,-69.25,0.0,58.652,35.178024,126.90881,,156.55228501486238,,64.51613,,0 / 22,352,2014-12-14 14:34:10:314
1.2627,-11.8198,2.5849,1.8385,-9.6157,0.5734,2.5457,-0.576,-0.0293,-6.51,38.34,3.83,70.61,78.67,-72.68,0.0,58.652,35.178024,126.90881,,156.55228501486238,,64.51613,,0 / 22,402,2014-12-14 14:34:10:364
-0.27,-12.2221,3.9834,1.5801,-9.6296,0.9716,-0.4685,-1.944,4.4448,-8.01,37.59,2.51,89.08,79.75,-73.16,0.0,58.652,35.178024,126.90881,,156.55228501486238,,64.51613,,0 / 22,452,2014-12-14 14:34:10:414
1.0902,-11.5515,3.9451,1.3238,-9.6208,1.3631,-1.7341,-1.8059,2.4489,-8.76,34.65,-0.05,89.08,79.75,-73.16,0.0,58.652,35.178024,126.90881,,156.55228501486238,,64.51613,,0 / 22,502,2014-12-14 14:34:10:464
2.5463,-10.7852,3.1596,1.2394,-9.6129,1.4922,-1.095,-1.2834,2.1698,-8.76,35.03,0.08,84.43,78.83,-44.16,0.0,58.652,35.178024,126.90881,,156.55228501486238,,64.51613,,0 / 22,552,2014-12-14 14:34:10:514
3.1593,-7.1835,3.811,1.6865,-9.4574,1.9705,1.3287,2.655,1.4221,-11.7,31.71,-5.49,122.44,76.47,-40.28,0.0,67.643,35.178024,126.90881,,156.55228501486238,,64.51613,,0 / 22,608,2014-12-14 14:34:10:570
2.5079,-6.8386,4.5965,1.6865,-9.4574,1.9705,1.3287,2.655,1.4221,-11.7,31.71,-7.61,122.44,76.47,-40.28,0.0,67.643,35.178024,126.90881,,156.55228501486238,,64.51613,,0 / 22,652,2014-12-14 14:34:10:614
1.6267,-6.3788,4.9605,1.8752,-9.2918,2.5133,-0.0299,3.0054,2.3063,-10.63,31.34,-9.86,162.89,74.66,-40.56,0.0,67.643,35.178024,126.90881,,156.55228501486238,,64.51613,,0 / 22,702,2014-12-14 14:34:10:664
2.5271,-5.7466,4.2899,2.0054,-9.0721,3.1378,0.412,2.6209,0.9953,-9.88,27.65,-11.61,152.06,67.68,-32.58,0.0,67.643,35.178024,126.90881,,156.55228501486238,,64.51613,,0 / 22,752,2014-12-14 14:34:10:714
1.6458,-3.1027,3.5045,2.2376,-8.8519,3.5788,-0.1877,4.4305,0.53,-12.45,27.28,-10.42,152.06,67.68,-32.58,0.0,67.643,35.178024,126.90881,,156.55228501486238,,64.51613,,0 / 22,802,2014-12-14 14:34:10:764
-7.416,6.1507,-15.673,1.8204,-9.0878,3.2043,-7.3564,11.7348,-12.4871,-9.13,26.53,-7.68,70.64,64.51,-32.02,0.0,67.643,35.178024,126.90881,,156.55228501486238,,64.51613,,0 / 22,852,2014-12-14 14:34:10:814
6.9335,-23.3531,37.0698,1.1673,-9.6137,1.5442,-8.5321,10.523,-19.3411,-10.63,26.9,-4.86,70.64,64.51,-32.02,0.0,67.643,35.178024,126.90881,,156.55228501486238,,64.51613,,0 / 22,902,2014-12-14 14:34:10:864
-0.155,-9.9422,-2.8561,1.0139,-9.5152,2.1454,-4.9174,12.132,-5.1195,-7.63,25.78,2.33,97.42,78.62,-37.09,0.0,68.261,35.178024,126.90881,,156.55228501486238,,64.51613,,0 / 22,952,2014-12-14 14:34:10:914
-2.7031,-15.7855,-2.4921,0.2584,-9.7158,1.3061,-5.6146,-12.4323,-2.4867,-4.32,25.03,3.76,33.98,76.0,-25.29,0.0,68.261,35.178024,126.90881,,156.55228501486238,,64.51613,,0 / 22,1002,2014-12-14 14:34:10:964
-2.0709,-10.8235,-5.5191,-0.2565,-9.7953,0.3959,-2.3965,-0.6176,-3.5093,-0.63,27.65,8.58,7.94,84.33,-3.98,0.0,68.261,35.178024,126.90881,,156.55228501486238,,64.51613,,0 / 22,1052,2014-12-14 14:34:11:014
0.2473,-15.1533,-9.868,-0.4236,-9.7845,-0.5044,-0.6333,-3.0156,-7.3879,3.43,23.21,7.33,7.94,84.33,-3.98,0.0,68.261,35.178024,126.90881,,156.55228501486238,,64.51613,,0 / 22,1102,2014-12-14 14:34:11:064
6.991,-32.0701,3.6194,-0.339,-9.7401,-1.089,0.9322,-6.2867,0.794,8.24,19.53,12.7,187.2,86.15,139.98,0.0,68.261,35.178024,126.90881,,156.55228501486238,,64.51613,,0 / 22,1152,2014-12-14 14:34:11:114
8.7152,-10.996,5.7843,0.2785,-9.7325,-1.1712,7.245,-21.3274,0.794,11.55,17.65,13.89,119.83,82.95,-166.62,0.0,68.261,35.178024,126.90881,,156.55228501486238,,64.51613,,0 / 22,1202,2014-12-14 14:34:11:164
10.0372,-6.0148,12.6046,1.7918,-9.6216,0.6207,5.6741,7.458,11.0533,11.55,16.53,13.89,119.83,82.95,-166.62,0.0,72.825,35.178024,126.90881,,156.55228501486238,,64.51613,,0 / 22,1252,2014-12-14 14:34:11:214
14.3669,-4.8653,8.9454,2.9144,-9.2254,1.6028,10.5945,6.355,7.2468,13.8,18.03,14.76,31.41,78.85,-70.89,0.0,72.825,35.178024,126.90881,,156.55228501486238,,64.51613,,0 / 22,1302,2014-12-14 14:34:11:264
10.1713,-14.4828,-6.6111,3.9042,-8.7014,2.2831,3.3142,2.8881,-1.616,13.43,20.96,12.95,10.29,66.14,-59.17,0.0,72.825,35.178024,126.90881,,156.55228501486238,,64.51613,,0 / 22,1352,2014-12-14 14:34:11:314
3.7149,-29.8286,5.746,3.8578,-8.8803,1.5581,1.8026,-14.8413,0.147,5.3,26.15,8.95,19.5,64.9,-68.01,0.0,72.825,35.178024,126.90881,,156.55228501486238,,64.51613,,0 / 22,1402,2014-12-14 14:34:11:364
-5.6726,-28.4108,-5.5574,1.7579,-9.6235,0.684,-12.38,-16.6431,-6.2014,1.24,29.09,6.33,19.5,64.9,-68.01,0.0,72.825,35.178024,126.90881,,156.55228501486238,,64.51613,,0 / 22,1455,2014-12-14 14:34:11:417
-5.6726,-20.2111,-7.5307,1.0701,-9.7478,0.0792,-7.003,-5.1757,-7.4045,-8.01,27.65,8.51,62.12,78.91,-68.74,0.0,72.825,35.178024,126.90881,,156.55228501486238,,64.51613,,0 / 22,1502,2014-12-14 14:34:11:464
-10.0024,-2.9495,-6.592,0.7253,-9.7774,-0.2161,-8.745,2.3224,-7.2275,-8.76,30.21,7.33,153.44,85.57,-106.59,0.0,72.825,35.178024,126.90881,,156.55228501486238,,64.51613,,0 / 22,1552,2014-12-14 14:34:11:514
-8.4506,4.4839,-8.9867,-0.0889,-9.7751,-0.7811,-9.5485,16.1451,-5.7769,-10.63,29.09,9.01,153.44,85.57,-106.59,0.0,72.715,35.178024,126.90881,,156.55228501486238,,64.51613,,0 / 22,1603,2014-12-14 14:34:11:565
16.072,-10.8044,14.7504,-1.2016,-9.32,-2.8045,11.1998,5.1211,7.3882,-10.95,30.59,16.08,236.41,85.4,173.51,0.0,72.715,35.178024,126.90881,,156.55228501486238,,64.51613,,0 / 22,1652,2014-12-14 14:34:11:614
-6.0175,-7.9689,4.654,0.1039,-9.7778,-0.744,3.0529,0.267,12.0338,-9.51,31.34,18.01,261.83,71.87,156.81,0.0,72.715,35.178024,126.90881,,156.55228501486238,,64.51613,,0 / 22,1702,2014-12-14 14:34:11:664
1.6458,-23.947,-16.3435,-0.4826,-9.7875,-0.378,-0.0459,-17.4992,-0.5543,-8.38,32.46,20.2,261.83,71.87,156.81,0.0,72.715,35.178024,126.90881,,156.55228501486238,,64.51613,,0 / 22,1752,2014-12-14 14:34:11:714
-6.439,-21.9928,-9.983,-2.4364,-9.2273,-2.2562,-0.6981,-7.5442,-4.4734,-5.45,33.15,25.26,256.87,86.42,128.07,0.0,72.715,35.178024,126.90881,,156.55228501486238,,64.51613,,0 / 22,1804,2014-12-14 14:34:11:766
2.6612,-25.3647,-13.6805,-2.5658,-8.8347,-3.3964,1.992,-12.8338,-8.5242,3.43,29.09,30.01,245.61,64.43,135.25,0.0,72.715,35.178024,126.90881,,156.55228501486238,,64.51613,,0 / 22,1852,2014-12-14 14:34:11:814
4.8261,-24.3876,5.5736,-1.2639,-9.2925,-2.8675,10.7076,-18.3763,4.8361,6.74,26.9,32.26,245.61,64.43,135.25,0.0,72.715,35.178024,126.90881,,156.55228501486238,,64.51613,,0 / 22,1905,2014-12-14 14:34:11:867
9.2325,-6.7237,12.7579,-0.6171,-9.5966,-1.9224,5.5318,-2.6069,10.197,10.49,22.84,34.2,184.53,75.0,159.99,0.0,72.715,35.178024,126.90881,,156.55228501486238,,64.51613,,0 / 22,1952,2014-12-14 14:34:11:914
13.2174,-6.5321,10.9953,0.7617,-9.7742,-0.237,10.9767,7.651,10.916,12.68,23.96,35.08,176.95,78.12,162.2,0.0,69.252,35.178024,126.90881,,156.55228501486238,,64.51613,,0 / 22,2002,2014-12-14 14:34:11:964
5.4008,-3.9074,5.9376,2.2028,-9.5134,0.9018,4.8288,8.8602,2.3652,14.55,31.71,33.33,47.36,81.79,-76.86,0.0,69.252,35.178024,126.90881,,156.55228501486238,,64.51613,,0 / 22,2052,2014-12-14 14:34:12:014
5.4008,-7.9881,0.7457,2.5934,-9.3579,1.3689,1.5386,5.6328,2.7442,13.05,36.46,27.83,47.36,81.79,-76.86,0.0,69.252,35.178024,126.90881,,156.55228501486238,,64.51613,,0 / 22,2102,2014-12-14 14:34:12:064
-6.8796,-31.6486,-9.7914,2.7872,-9.4022,-0.0141,0.5945,-24.642,-4.0591,1.62,43.15,19.2,28.68,72.6,-62.17,0.0,69.252,35.178024,126.90881,,156.55228501486238,,64.51613,,0 / 22,2154,2014-12-14 14:34:12:116
-8.9295,-32.2808,-8.1629,1.4597,-9.6709,-0.7172,-12.275,-17.1211,-7.3021,-6.2,43.9,11.2,58.59,73.49,-90.29,0.0,69.252,35.178024,126.90881,,156.55228501486238,,64.51613,,0 / 22,2202,2014-12-14 14:34:12:164
-2.5115,-18.3336,-9.1783,1.0606,-9.7013,-0.9644,-8.2774,-9.5194,-6.6003,-10.95,42.4,10.7,58.59,73.49,-90.29,0.0,69.252,35.178024,126.90881,,156.55228501486238,,64.51613,,0 / 22,2252,2014-12-14 14:34:12:214
-10.9795,7.0128,-9.5423,0.6422,-9.6689,-1.507,-5.6544,2.5832,-6.0887,-15.76,42.4,5.95,213.47,81.59,-132.28,0.0,72.059,35.178024,126.90881,,156.55228501486238,,64.51613,,0 / 22,2302,2014-12-14 14:34:12:264
-5.8067,2.8363,0.5349,-0.9223,-9.3981,-2.6449,-10.0976,19.36,-5.7265,-18.38,38.71,5.39,251.17,80.38,-156.92,0.0,72.059,35.178024,126.90881,,156.55228501486238,,64.51613,,0 / 22,2352,2014-12-14 14:34:12:314
12.1254,-12.0688,10.4589,-2.4808,-8.7854,-3.5823,-11.1328,19.5822,-1.9414,-15.01,37.21,8.95,315.01,63.62,145.3,0.0,72.059,35.178024,126.90881,,156.55228501486238,,64.51613,,0 / 22,2402,2014-12-14 14:34:12:364
4.1172,-5.9765,2.9106,-1.7243,-9.4356,-2.0412,12.3961,-1.5615,12.648,-15.01,37.21,8.95,315.01,63.62,145.3,0.0,72.059,35.178024,126.90881,,156.55228501486238,,64.51613,,0 / 22,2452,2014-12-14 14:34:12:414
-21.4208,-38.5073,6.8572,-0.909,-9.6686,-1.3644,4.7943,5.4986,0.1108,-12.82,31.34,15.08,290.95,74.19,139.81,0.0,72.059,35.178024,126.90881,,156.55228501486238,,64.51613,,0 / 22,2502,2014-12-14 14:34:12:464
-39.5637,31.8228,-3.7374,-1.02,-9.6751,-1.2336,5.7662,-26.9662,10.8158,-15.01,31.71,12.45,286.06,80.61,140.42,0.0,72.059,35.178024,126.90881,,156.55228501486238,,64.51613,,0 / 22,2552,2014-12-14 14:34:12:514
17.8729,-26.9548,-3.086,-5.7314,-7.2742,-3.2261,-34.3124,40.8686,-17.573,-7.26,31.34,18.26,286.06,80.61,140.42,0.0,72.059,35.178024,126.90881,,156.55228501486238,,64.51613,,0 / 22,2602,2014-12-14 14:34:12:564
2.8528,-13.8122,3.3703,-0.6417,-9.16,-3.4428,9.6785,-11.197,7.0324,-0.63,28.71,19.08,307.71,47.88,119.37,0.0,70.892,35.178024,126.90881,,156.55228501486238,,64.51613,,0 / 22,2652,2014-12-14 14:34:12:614
2.7379,-12.2796,3.1788,-0.3704,-9.3093,-3.061,5.3695,-3.5862,7.3878,5.3,25.03,24.76,173.13,71.67,173.1,0.0,70.892,35.178024,126.90881,,156.55228501486238,,64.51613,,0 / 22,2702,2014-12-14 14:34:12:664
11.0717,-4.6162,8.0641,1.0736,-9.6986,-0.9774,11.2443,5.8556,10.4863,10.12,19.84,25.2,104.18,81.49,-132.32,0.0,70.892,35.178024,126.90881,,156.55228501486238,,64.51613,,0 / 22,2752,2014-12-14 14:34:12:714
9.5007,-3.0836,5.6502,2.2267,-9.5502,-0.0815,7.0143,7.2931,6.4413,12.3,23.21,24.33,104.18,81.49,-132.32,0.0,70.892,35.178024,126.90881,,156.55228501486238,,64.51613,,0 / 22,2802,2014-12-14 14:34:12:764
4.8836,-3.6966,4.7689,3.0433,-9.316,0.3469,3.3051,7.5086,2.124,11.18,23.59,22.58,56.74,76.87,-92.1,0.0,70.892,35.178024,126.90881,,156.55228501486238,,64.51613,,0 / 22,2852,2014-12-14 14:34:12:814
9.0409,-39.2928,3.3895,3.6144,-9.1135,-0.2262,9.6291,-24.5821,-3.9293,6.05,26.15,19.2,48.98,71.8,-83.5,0.0,70.892,35.178024,126.90881,,156.55228501486238,,64.51613,,0 / 22,2902,2014-12-14 14:34:12:864
9.0409,-39.2928,3.3895,3.6144,-9.1135,-0.2262,9.6291,-24.5821,-3.9293,6.05,26.15,19.2,48.98,71.8,-83.5,0.0,70.892,35.178024,126.90881,,156.55228501486238,,64.51613,,0 / 22,2952,2014-12-14 14:34:12:914
-6.2091,-11.9156,-7.5307,2.0265,-9.5841,-0.4576,-13.3415,-19.0395,-5.7221,-2.45,31.71,17.7,63.44,68.33,-93.58,0.0,73.043,35.178024,126.90881,,156.55228501486238,,64.51613,,0 / 22,3002,2014-12-14 14:34:12:964
-13.0677,3.2578,-6.0555,0.5104,-9.7019,-1.3354,-6.1206,3.2749,-5.3784,-12.07,34.28,14.2,123.36,77.77,-102.72,0.0,73.043,35.178024,126.90881,,156.55228501486238,,64.51613,,0 / 22,3052,2014-12-14 14:34:13:014
-11.7267,4.8671,-6.1513,-0.577,-9.6101,-1.8664,-13.0009,14.9571,-3.6369,-16.13,34.65,12.89,219.36,81.62,-159.08,0.0,73.043,35.178024,126.90881,,156.55228501486238,,64.51613,,0 / 22,3102,2014-12-14 14:34:13:064
5.7265,-7.375,10.3823,-2.3661,-8.9867,-3.1323,-7.6681,18.6431,-3.501,-16.51,33.53,14.64,263.51,78.51,162.82,0.0,73.043,35.178024,126.90881,,156.55228501486238,,64.51613,,0 / 22,3152,2014-12-14 14:34:13:114
7.9297,-14.7127,21.1684,-1.75,-9.4252,-2.0672,11.8118,-2.4876,17.5684,-17.63,33.9,16.83,288.14,73.97,139.75,0.0,73.043,35.178024,126.90881,,156.55228501486238,,64.51613,,0 / 22,3202,2014-12-14 14:34:13:164
-21.325,0.6714,-17.4739,-0.9365,-9.7295,-0.7942,2.0051,6.0245,-2.2145,-18.76,32.09,18.89,284.05,73.97,139.75,0.0,73.043,35.178024,126.90881,,156.55228501486238,,64.51613,,0 / 22,3252,2014-12-14 14:34:13:214
-39.5828,23.2591,-39.8124,-1.9379,-8.9039,-3.6242,-31.4153,24.7198,-18.4726,-26.13,29.09,18.58,284.21,65.22,151.87,0.0,73.043,35.178024,126.90881,,156.55228501486238,,64.51613,,0 / 22,3302,2014-12-14 14:34:13:264
-1.6685,-28.5833,-14.8683,-4.454,-7.1522,-5.0177,-2.5497,-6.4971,-9.9958,-19.82,29.84,23.01,300.3,46.83,138.41,0.0,69.463,35.178024,126.90881,,156.55228501486238,,64.51613,,0 / 22,3352,2014-12-14 14:34:13:314
6.3205,-25.767,3.2171,-2.508,-8.5284,-4.1408,3.6372,-8.6674,-4.3987,-13.95,28.34,27.76,268.49,60.42,148.8,0.0,69.463,35.178024,126.90881,,156.55228501486238,,64.51613,,0 / 22,3402,2014-12-14 14:34:13:364
9.7689,-17.0691,1.7227,-1.3433,-9.1659,-3.2174,12.1851,-11.4527,6.1196,-6.88,25.78,33.14,268.49,60.42,148.8,0.0,69.463,35.178024,126.90881,,156.55228501486238,,64.51613,,0 / 22,3452,2014-12-14 14:34:13:414
6.8569,-2.892,0.4774,-0.3735,-9.4371,-2.6406,1.9025,9.643,3.2306,-2.82,21.71,34.2,217.85,69.17,157.34,0.0,69.463,35.178024,126.90881,,156.55228501486238,,64.51613,,0 / 22,3502,2014-12-14 14:34:13:464
4.328,-5.7274,11.9724,0.5874,-9.585,-1.9884,8.4687,6.0862,10.4,-0.63,19.15,35.33,217.85,69.17,157.34,0.0,69.463,35.178024,126.90881,,156.55228501486238,,64.51613,,0 / 22,3552,2014-12-14 14:34:13:514
6.6653,-3.3135,6.9913,1.0723,-9.7416,-0.3494,3.4302,5.2909,13.9133,1.62,18.78,34.2,157.07,77.79,-163.54,0.0,69.463,35.178024,126.90881,,156.55228501486238,,64.51613,,0 / 22,3602,2014-12-14 14:34:13:564
8.8302,-2.2598,1.2821,1.8492,-9.6221,0.4066,4.5596,7.9926,3.8224,5.68,22.46,32.89,157.07,77.79,-163.54,0.0,69.463,35.178024,126.90881,,156.55228501486238,,64.51613,,0 / 22,3652,2014-12-14 14:34:13:614
15.5739,-18.9466,-16.4585,2.9615,-9.3479,0.1293,7.7686,1.9067,-4.801,7.12,24.28,29.58,57.57,78.87,-77.6,0.0,73.394,35.178024,126.90881,,156.55228501486238,,64.51613,,0 / 22,3702,2014-12-14 14:34:13:664
-10.9603,-34.7714,-5.7298,2.2178,-9.5007,-0.9944,-10.2153,-20.6908,-4.2313,-6.88,33.53,24.76,111.03,75.65,-114.15,0.0,73.394,35.178024,126.90881,,156.55228501486238,,64.51613,,0 / 22,3752,2014-12-14 14:34:13:714
-3.1054,-17.6439,-6.0364,0.3606,-9.6855,-1.4941,-4.2783,-1.9197,-3.735,-11.7,36.15,19.95,111.03,75.65,-114.15,0.0,73.394,35.178024,126.90881,,156.55228501486238,,64.51613,,0 / 22,3802,2014-12-14 14:34:13:764
-11.1902,-13.0076,-6.113,0.0051,-9.6662,-1.6539,-8.1318,0.1148,-3.7121,-16.88,35.4,18.76,215.86,80.98,-166.43,0.0,73.394,35.178024,126.90881,,156.55228501486238,,64.51613,,0 / 22,3852,2014-12-14 14:34:13:814
-14.6196,8.0665,1.3587,-2.4471,-9.2807,-2.0124,-11.1582,18.5464,2.854,-22.07,34.65,14.89,305.71,71.15,129.43,0.0,73.394,35.178024,126.90881,,156.55228501486238,,64.51613,,0 / 22,3902,2014-12-14 14:34:13:864
0.5347,1.7443,-0.6146,-3.5758,-8.8878,-2.0956,-1.061,15.7263,2.1367,-19.45,36.09,17.2,305.71,71.15,129.43,0.0,73.394,35.178024,126.90881,,156.55228501486238,,64.51613,,0 / 22,3952,2014-12-14 14:34:13:914
10.5927,-5.5933,4.9413,-2.9939,-9.0915,-2.1333,10.3829,5.733,2.3687,-18.38,37.96,17.2,313.23,65.0,120.37,0.0,73.394,35.178024,126.90881,,156.55228501486238,,64.51613,,0 / 22,4002,2014-12-14 14:34:13:964
6.2055,-7.7965,5.4203,-0.6665,-9.7812,0.2343,13.3821,-6.3603,17.8257,-18.38,37.96,17.2,307.58,67.98,125.47,0.0,70.895,35.178024,126.90881,,156.55228501486238,,64.51613,,0 / 22,4052,2014-12-14 14:34:14:014
1.1094,-22.7017,-25.8269,-0.11,-9.6948,-1.4729,0.9893,8.8919,-25.5667,-19.07,40.9,15.33,307.58,67.98,125.47,0.0,70.895,35.178024,126.90881,,156.55228501486238,,64.51613,,0 / 22,4102,2014-12-14 14:34:14:064
-3.2395,-12.2221,-11.5923,-2.3048,-8.9287,-3.3371,-18.5645,6.2961,-9.783,-19.82,40.53,18.51,254.71,81.34,175.73,0.0,70.895,35.178024,126.90881,,156.55228501486238,,64.51613,,0 / 22,4159,2014-12-14 14:34:14:121
5.3817,-16.6285,-2.1855,-2.8145,-8.468,-4.0672,6.9482,-7.053,-0.009,-16.13,41.65,20.64,305.07,57.74,138.19,0.0,70.895,35.178024,126.90881,,156.55228501486238,,64.51613,,0 / 22,4202,2014-12-14 14:34:14:164
2.7762,-10.6894,-1.8215,-2.0735,-8.7662,-3.8763,5.174,-0.631,1.4205,-10.57,40.53,25.08,289.7,59.71,145.32,0.0,70.895,35.178024,126.90881,,156.55228501486238,,64.51613,,0 / 22,4252,2014-12-14 14:34:14:214
2.7379,-9.9806,-0.9019,-1.268,-9.0761,-3.4911,4.777,0.4294,3.0114,-6.51,39.09,29.51,289.7,59.71,145.32,0.0,70.895,35.178024,126.90881,,156.55228501486238,,64.51613,,0 / 22,4302,2014-12-14 14:34:14:264
-0.634,-8.4096,-0.1165,-1.1483,-9.137,-3.3716,2.1806,0.5518,2.5573,-2.07,37.21,29.95,226.63,67.74,160.04,0.0,70.895,35.178024,126.90881,,156.55228501486238,,64.51613,,0 / 22,4352,2014-12-14 14:34:14:314
-1.2854,-6.0723,3.6769,-1.163,-9.3286,-2.7919,-0.2392,3.8758,5.6431,2.3,35.78,34.08,226.63,67.74,160.04,0.0,70.244,35.178024,126.90881,,156.55228501486238,,64.51613,,0 / 22,4402,2014-12-14 14:34:14:364
1.6841,-6.9919,3.8876,-0.9754,-9.5608,-1.9522,3.1065,2.6073,8.3532,8.62,34.28,33.58,199.34,72.04,157.39,0.0,70.244,35.178024,126.90881,,156.55228501486238,,64.51613,,0 / 22,4452,2014-12-14 14:34:14:414
9.5774,-9.789,-6.592,0.7429,-9.6194,-1.7566,13.2068,-2.634,-5.4439,10.8,36.84,32.08,192.02,82.36,150.85,0.0,70.244,35.178024,126.90881,,156.55228501486238,,64.51613,,0 / 22,4502,2014-12-14 14:34:14:464
6.6653,-16.686,-5.0593,1.342,-9.5212,-1.9275,9.3986,-6.7279,-3.9924,8.24,39.46,31.89,192.02,82.36,150.85,0.0,70.244,35.178024,126.90881,,156.55228501486238,,64.51613,,0 / 22,4553,2014-12-14 14:34:14:515
-10.8645,-21.7821,-3.45,0.7861,-9.599,-1.8473,-7.7028,-6.4323,0.1557,3.43,43.15,28.64,120.35,76.14,-145.15,0.0,70.244,35.178024,126.90881,,156.55228501486238,,64.51613,,0 / 22,4602,2014-12-14 14:34:14:564
-5.1554,-24.0044,-2.9327,-0.6,-9.6541,-1.6149,-4.5392,-12.3394,-0.143,-4.32,42.78,24.83,221.37,79.88,159.62,0.0,70.244,35.178024,126.90881,,156.55228501486238,,64.51613,,0 / 22,4652,2014-12-14 14:34:14:614
-7.5885,-6.4171,-6.5536,-1.804,-9.3588,-2.3085,-5.1737,5.4172,-3.4102,-17.63,43.53,16.64,277.05,77.97,151.5,0.0,70.244,35.178024,126.90881,,156.55228501486238,,64.51613,,0 / 22,4702,2014-12-14 14:34:14:664
-8.3356,0.3841,-5.6149,-2.1004,-9.2406,-2.5238,-4.3866,9.949,-2.3718,-20.2,43.15,15.01,277.05,77.97,151.5,0.0,70.61,35.178024,126.90881,,156.55228501486238,,64.51613,,0 / 22,4752,2014-12-14 14:34:14:714
-7.2628,0.9397,-4.0822,-2.4778,-9.079,-2.7574,-4.9313,12.4291,-1.8076,-21.32,42.03,14.76,301.64,70.44,140.23,0.0,70.61,35.178024,126.90881,,156.55228501486238,,64.51613,,0 / 22,4802,2014-12-14 14:34:14:764
-2.4157,-5.9573,1.6844,-3.4358,-8.653,-3.0807,1.8096,5.3638,1.9515,-20.95,40.53,15.33,313.26,62.19,132.71,0.0,70.61,35.178024,126.90881,,156.55228501486238,,64.51613,,0 / 22,4861,2014-12-14 14:34:14:823
6.5504,-19.3873,-2.0706,-2.5834,-9.2731,-1.8723,11.0615,-8.5073,11.1603,-20.57,42.78,14.89,313.26,62.19,132.71,0.0,70.61,35.178024,126.90881,,156.55228501486238,,64.51613,,0 / 22,4902,2014-12-14 14:34:14:864
0.4772,-5.8424,-1.4767,-1.9945,-9.4927,-1.4426,-1.017,-1.0378,4.3345,-21.32,41.65,15.89,309.54,71.01,125.93,0.0,70.61,35.178024,126.90881,,156.55228501486238,,64.51613,,0 / 22,4952,2014-12-14 14:34:14:914
-0.8448,-8.9077,1.2821,-1.2985,-9.6167,-1.4154,2.4341,0.0174,2.1949,-19.82,43.15,15.33,301.16,76.02,132.51,0.0,70.61,35.178024,126.90881,,156.55228501486238,,64.51613,,0 / 22,5055,2014-12-14 14:34:15:017
-0.8448,-8.9077,1.2821,-1.2985,-9.6167,-1.4154,2.4341,0.0174,2.1949,-19.82,43.15,15.33,301.16,76.02,132.51,0.0,70.61,35.178024,126.90881,,156.55228501486238,,64.51613,,0 / 22,5056,2014-12-14 14:34:15:018
1.5692,-9.789,1.2821,-1.0465,-9.7052,-0.9408,2.3724,0.2026,2.144,-20.57,43.9,18.08,301.16,76.02,132.51,0.0,65.839,35.178024,126.90881,,156.55228501486238,,64.51613,,0 / 22,5103,2014-12-14 14:34:15:065
2.0098,-9.2525,1.4162,-0.7402,-9.7571,-0.6493,2.0685,0.2951,2.0753,-19.82,43.15,15.51,289.25,83.05,131.92,0.0,65.839,35.178024,126.90881,,156.55228501486238,,64.51613,,0 / 22,5152,2014-12-14 14:34:15:114
2.2014,-10.0189,1.7419,-0.4051,-9.7903,-0.3941,2.4802,0.3302,1.8067,-19.45,43.15,15.95,281.29,86.7,134.21,0.0,65.839,35.178024,126.90881,,156.55228501486238,,64.51613,,0 / 22,5202,2014-12-14 14:34:15:164
0.9561,-9.6932,0.9947,-0.0201,-9.8059,-0.1221,0.3575,0.5568,0.7238,-19.45,42.4,16.64,281.29,86.7,134.21,0.0,65.839,35.178024,126.90881,,156.55228501486238,,64.51613,,0 / 22,5252,2014-12-14 14:34:15:214
0.3047,-9.7698,1.1863,0.0956,-9.8058,0.09,0.1427,0.2049,0.8828,-20.57,45.34,15.01,241.41,89.28,170.63,0.0,65.839,35.178024,126.90881,,156.55228501486238,,64.51613,,0 / 22,5302,2014-12-14 14:34:15:264
0.2281,-9.5016,0.2859,0.1198,-9.8044,0.1716,0.1262,-0.0088,0.2154,-19.13,44.28,16.83,93.56,89.23,-46.7,0.0,65.839,35.178024,126.90881,,156.55228501486238,,64.51613,,0 / 22,5352,2014-12-14 14:34:15:314
0.7454,-9.6357,1.2246,0.1985,-9.7997,0.3108,0.4926,-0.0443,0.8899,-20.2,43.15,17.08,83.92,88.57,-36.61,0.0,65.839,35.178024,126.90881,,156.55228501486238,,64.51613,,0 / 22,5405,2014-12-14 14:34:15:367
1.3201,-9.3292,1.2055,0.2429,-9.7962,0.3815,0.6139,0.1126,0.9755,-19.13,42.78,16.83,83.92,88.57,-36.61,0.0,65.656,35.178024,126.90881,,156.55228501486238,,64.51613,,0 / 22,5452,2014-12-14 14:34:15:414
1.3393,-9.5782,0.8606,0.3765,-9.7867,0.4992,0.9971,0.2685,0.7362,-19.45,42.03,18.45,77.84,86.34,-37.02,0.0,65.656,35.178024,126.90881,,156.55228501486238,,64.51613,,0 / 22,5502,2014-12-14 14:34:15:464
0.573,-9.5016,1.0522,0.5354,-9.7744,0.5866,0.5282,0.0467,0.3398,-19.07,43.9,17.01,82.6,85.35,-42.39,0.0,65.656,35.178024,126.90881,,156.55228501486238,,64.51613,,0 / 22,5552,2014-12-14 14:34:15:514
0.6688,-9.5782,1.0139,0.5572,-9.7677,0.6724,0.0964,0.0494,0.4079,-18.38,43.15,17.45,82.6,85.35,-42.39,0.0,65.656,35.178024,126.90881,,156.55228501486238,,64.51613,,0 / 22,5602,2014-12-14 14:34:15:564
0.822,-9.5399,0.784,0.5764,-9.7639,0.7098,0.1404,-0.0211,0.1801,-19.07,44.21,17.45,79.15,84.89,-39.65,0.0,65.656,35.178024,126.90881,,156.55228501486238,,64.51613,,0 / 22,5652,2014-12-14 14:34:15:614
1.0328,-9.6549,0.8031,0.6085,-9.761,0.7234,0.2738,0.046,0.0937,-19.07,44.59,17.01,78.01,84.65,-39.08,0.0,65.656,35.178024,126.90881,,156.55228501486238,,64.51613,,0 / 22,5702,2014-12-14 14:34:15:664
0.937,-9.4058,0.8031,0.6867,-9.7544,0.7424,0.3206,0.1164,0.0989,-18.76,43.53,17.58,79.51,84.08,-42.77,0.0,55.477,35.178024,126.90881,,156.55228501486238,,64.51613,,0 / 22,5752,2014-12-14 14:34:15:714
0.937,-9.5208,0.8415,0.7187,-9.7509,0.7569,0.1577,0.1076,0.0814,-18.7,43.53,16.95,79.51,84.08,-42.77,0.0,55.477,35.178024,126.90881,,156.55228501486238,,64.51613,,0 / 22,5802,2014-12-14 14:34:15:764
0.8603,-9.5782,0.9181,0.7538,-9.7453,0.7946,0.0709,0.0365,0.1233,-18.76,43.9,18.45,81.55,83.65,-43.62,0.0,55.477,35.178024,126.90881,,156.55228501486238,,64.51613,,0 / 22,5853,2014-12-14 14:34:15:815
0.9561,-9.5399,0.8989,0.7683,-9.7427,0.8122,0.1166,-0.0237,0.1072,-19.82,42.78,17.26,82.36,83.45,-43.41,0.0,55.477,35.178024,126.90881,,156.55228501486238,,64.51613,,0 / 22,5902,2014-12-14 14:34:15:864
0.9561,-9.5591,0.7648,0.8036,-9.7389,0.8242,0.1405,0.0124,0.0574,-19.07,43.53,17.45,82.36,83.45,-43.41,0.0,55.477,35.178024,126.90881,,156.55228501486238,,64.51613,,0 / 22,5952,2014-12-14 14:34:15:914
1.5309,-9.2525,-1.5342,0.8527,-9.7372,0.7938,0.3343,0.109,-0.2591,-18.38,44.59,17.89,81.15,83.26,-44.27,0.0,55.477,35.178024,126.90881,,156.55228501486238,,64.51613,,0 / 22,6003,2014-12-14 14:34:15:965
0.0365,-9.3483,0.7648,0.9026,-9.7416,0.6761,0.1716,0.0266,-0.3582,-19.07,42.4,19.64,80.31,83.18,-47.05,0.0,55.477,35.178024,126.90881,,156.55228501486238,,64.51613,,0 / 22,6052,2014-12-14 14:34:16:014
1.5692,-10.1913,0.9564,0.8523,-9.7481,0.647,-0.1178,-0.0885,-0.2623,-16.88,43.53,21.83,80.31,83.18,-47.05,0.0,57.542,35.178024,126.90881,,156.55228501486238,,64.51613,,0 / 22,6102,2014-12-14 14:34:16:064
0.8603,-9.5591,0.8989,0.9008,-9.7422,0.6692,-0.0049,-0.0472,0.0882,-16.13,41.65,21.7,82.87,83.74,-52.8,0.0,57.542,35.178024,126.90881,,156.55228501486238,,64.51613,,0 / 22,6152,2014-12-14 14:34:16:114
0.7645,-9.6166,1.1097,0.8962,-9.7397,0.7105,-0.0158,-0.1282,0.376,-17.63,43.53,21.58,80.62,83.3,-51.59,0.0,57.542,35.178024,126.90881,,156.55228501486238,,64.51613,,0 / 22,6202,2014-12-14 14:34:16:164
1.5883,-9.6357,0.3433,0.8952,-9.7331,0.7978,0.0863,0.0844,0.2719,-17.63,43.53,18.14,80.62,83.3,-51.59,0.0,57.542,35.178024,126.90881,,156.55228501486238,,64.51613,,0 / 22,6252,2014-12-14 14:34:16:214
1.7799,-10.3063,-0.4038,0.9227,-9.7332,0.7642,0.378,0.0136,-0.4653,-18.38,42.4,19.58,79.46,82.98,-48.29,0.0,57.542,35.178024,126.90881,,156.55228501486238,,64.51613,,0 / 22,6302,2014-12-14 14:34:16:264