ACCELEROMETER X (m/s²),ACCELEROMETER Y (m/s²),ACCELEROMETER Z (m/s²),GRAVITY X (m/s²),GRAVITY Y (m/s²),GRAVITY Z (m/s²),LINEAR ACCELERATION X (m/s²),LINEAR ACCELERATION Y (m/s²),LINEAR ACCELERATION Z (m/s²),MAGNETIC FIELD X (μT),MAGNETIC FIELD Y (μT),MAGNETIC FIELD Z (μT),ORIENTATION X (°),ORIENTATION Y (°),ORIENTATION Z (°),PROXIMITY (i),SOUND LEVEL (dB),LOCATION Latitude : ,LOCATION Longitude : ,LOCATION Altitude ( m),LOCATION Altitude-google ( m),LOCATION Speed ( Kmh),LOCATION Accuracy ( m),LOCATION ORIENTATION (°),Satellites in range,Time since start in ms ,YYYY-MO-DD HH-MI-SS_SSS
0.6113,-9.4058,0.7265,0.8791,-9.7566,0.4534,-0.2467,0.0104,0.319,-4.32,28.28,0.08,153.38,83.96,-66.67,0.0,54.79,35.177998,126.90891,,155.24389885801799,,77.896774,,0 / 22,5,2014-12-14 14:32:38:273
2.2397,-10.1338,0.784,1.0087,-9.7418,0.5002,1.5959,-0.6138,0.3001,-2.82,27.21,1.01,95.38,84.21,-62.72,0.0,54.79,35.177998,126.90891,,155.24389885801799,,77.896774,,0 / 22,53,2014-12-14 14:32:38:321
4.8644,-10.8618,1.3779,1.1956,-9.7193,0.5252,2.7093,-0.8091,0.4038,-3.2,26.84,2.95,66.43,83.41,-63.62,0.0,54.79,35.177998,126.90891,,155.24389885801799,,77.896774,,0 / 22,103,2014-12-14 14:32:38:371
4.577,-12.1263,2.3741,1.7298,-9.6232,0.7559,0.9606,-1.943,1.633,-2.07,26.84,1.76,66.43,83.41,-63.62,0.0,54.79,35.177998,126.90891,,155.24389885801799,,77.896774,,0 / 22,155,2014-12-14 14:32:38:423
0.1898,-11.8198,3.5236,1.2901,-9.5844,1.6265,-1.2933,-1.473,2.1006,-2.45,26.46,0.58,24.36,78.9,-66.39,0.0,54.79,35.177998,126.90891,,155.24389885801799,,77.896774,,0 / 22,203,2014-12-14 14:32:38:471
2.6421,-11.7814,4.2899,1.3565,-9.5289,1.8789,1.3785,-0.8823,1.853,-3.2,26.46,0.14,32.55,77.78,-38.42,0.0,54.79,35.177998,126.90891,,155.24389885801799,,77.896774,,0 / 22,253,2014-12-14 14:32:38:521
3.0061,-8.4671,2.355,1.5874,-9.4714,1.9857,1.7541,0.7366,0.6261,-3.95,28.28,0.14,32.81,74.98,-38.64,0.0,67.934,35.177998,126.90891,,155.24389885801799,,77.896774,,0 / 22,303,2014-12-14 14:32:38:571
2.029,-6.4746,1.876,1.7922,-9.4131,2.0863,0.0255,3.5353,-0.1984,-4.7,27.21,-2.3,32.81,74.98,-38.64,0.0,67.934,35.177998,126.90891,,155.24389885801799,,77.896774,,0 / 22,353,2014-12-14 14:32:38:621
1.7799,-6.2255,2.4124,1.8527,-9.3807,2.1774,-0.1136,3.1611,-0.0224,-5.76,27.9,-3.8,33.08,73.71,-40.66,0.0,67.934,35.177998,126.90891,,155.24389885801799,,77.896774,,0 / 22,403,2014-12-14 14:32:38:671
3.2551,-6.8769,5.1329,1.9822,-9.2478,2.5922,0.8164,2.4882,2.2181,-6.51,29.03,-4.67,63.58,71.84,-38.37,0.0,67.934,35.177998,126.90891,,155.24389885801799,,77.896774,,0 / 22,453,2014-12-14 14:32:38:721
3.6383,-7.49,5.1138,2.2229,-9.075,2.979,1.5624,1.1743,2.3754,-6.51,30.9,-5.42,63.58,71.84,-38.37,0.0,67.934,35.177998,126.90891,,155.24389885801799,,77.896774,,0 / 22,503,2014-12-14 14:32:38:771
-1.8793,-3.8116,2.8339,1.9806,-9.0192,3.3018,-3.6362,4.0909,-0.0192,-6.51,30.53,-3.05,34.03,67.73,-36.73,0.0,67.934,35.177998,126.90891,,155.24389885801799,,77.896774,,0 / 22,553,2014-12-14 14:32:38:821
-0.7681,-15.0767,6.5506,1.2465,-8.9183,3.8833,-3.7281,-3.5808,3.1851,-6.51,30.9,-1.92,34.34,66.88,-30.96,0.0,67.934,35.177998,126.90891,,155.24389885801799,,77.896774,,0 / 22,603,2014-12-14 14:32:38:871
0.8603,-5.3251,-0.7104,0.7487,-9.4179,2.6292,-1.5534,4.0713,-3.7763,-5.38,29.78,2.01,29.48,72.49,-16.62,0.0,68.073,35.177998,126.90891,,155.24389885801799,,77.896774,,0 / 22,653,2014-12-14 14:32:38:921
-1.7452,-15.4407,-2.3005,0.4308,-9.6454,1.7177,-2.5735,-6.7396,-4.4394,-3.95,30.53,4.82,29.48,72.49,-16.62,0.0,68.073,35.177998,126.90891,,155.24389885801799,,77.896774,,0 / 22,703,2014-12-14 14:32:38:971
-2.6073,-10.4404,-1.8599,-0.02,-9.7726,0.8168,-2.4569,-1.3353,-2.6603,-2.07,29.03,8.14,27.67,79.6,-14.08,0.0,68.073,35.177998,126.90891,,155.24389885801799,,77.896774,,0 / 22,753,2014-12-14 14:32:39:021
-3.9292,-9.7507,-2.7795,-0.4954,-9.7886,0.3302,-3.8263,-0.6471,-3.3972,0.49,28.65,10.26,358.87,85.22,1.4,0.0,68.073,35.177998,126.90891,,155.24389885801799,,77.896774,,0 / 22,803,2014-12-14 14:32:39:071
8.3704,-32.2233,-7.4541,-0.7609,-9.7766,-0.0975,-3.7284,-2.4801,-5.7021,1.99,29.03,10.33,358.87,85.22,1.4,0.0,68.073,35.177998,126.90891,,155.24389885801799,,77.896774,,0 / 22,853,2014-12-14 14:32:39:121
6.7228,-18.5252,7.9875,0.4476,-9.7537,-0.9142,8.4169,-15.319,4.6519,8.24,20.15,16.2,246.85,85.51,97.3,0.0,68.073,35.177998,126.90891,,155.24389885801799,,77.896774,,0 / 22,903,2014-12-14 14:32:39:171
10.382,-6.283,9.7501,1.0203,-9.7526,-0.1289,5.7434,0.0107,7.8723,8.62,19.84,17.32,120.52,84.04,-153.91,0.0,68.073,35.177998,126.90891,,155.24389885801799,,77.896774,,0 / 22,954,2014-12-14 14:32:39:222
11.953,-5.6125,8.4665,2.2969,-9.4107,1.5273,7.7878,6.7691,9.1135,7.49,18.71,20.08,52.91,81.39,-78.07,0.0,70.547,35.177998,126.90891,,155.24389885801799,,77.896774,,0 / 22,1003,2014-12-14 14:32:39:271
9.6923,-4.2139,8.0833,3.2293,-8.9953,2.1969,6.475,7.3155,5.2739,8.62,16.46,19.89,52.91,81.39,-78.07,0.0,70.547,35.177998,126.90891,,155.24389885801799,,77.896774,,0 / 22,1053,2014-12-14 14:32:39:321
12.2212,-19.4831,-7.8756,3.7297,-8.8958,1.7676,4.9781,-3.0763,-9.1708,6.43,18.71,18.89,29.36,66.53,-55.77,0.0,70.547,35.177998,126.90891,,155.24389885801799,,77.896774,,0 / 22,1103,2014-12-14 14:32:39:371
0.2281,-32.0701,-1.2276,3.4016,-9.1217,1.1806,-1.7973,-17.9886,-1.4235,3.12,20.15,17.32,38.84,65.11,-64.64,0.0,70.547,35.177998,126.90891,,155.24389885801799,,77.896774,,0 / 22,1153,2014-12-14 14:32:39:421
-3.2587,-22.1844,-7.4349,1.6087,-9.6733,0.0929,-6.8888,-8.4514,-7.4285,-7.63,28.28,18.7,96.45,80.54,-86.69,0.0,70.547,35.177998,126.90891,,155.24389885801799,,77.896774,,0 / 22,1203,2014-12-14 14:32:39:471
-8.3548,-11.36,-6.8027,0.953,-9.7486,-0.4755,-9.0101,2.9252,-6.3851,-12.45,31.28,16.2,96.45,80.54,-86.69,0.0,70.547,35.177998,126.90891,,155.24389885801799,,77.896774,,0 / 22,1253,2014-12-14 14:32:39:521
-10.2898,-1.3019,-6.2088,0.5196,-9.7655,-0.7322,-10.7149,9.2145,-5.3237,-15.76,33.46,14.76,193.37,84.75,-144.64,0.0,72.543,35.177998,126.90891,,155.24389885801799,,77.896774,,0 / 22,1303,2014-12-14 14:32:39:571
-10.673,5.9783,-10.2895,-0.9845,-9.5567,-1.9676,-9.195,18.1129,-7.5217,-16.51,34.96,15.76,193.37,84.75,-144.64,0.0,72.543,35.177998,126.90891,,155.24389885801799,,77.896774,,0 / 22,1353,2014-12-14 14:32:39:621
10.0563,-9.8848,13.8308,-0.3236,-9.7078,-1.3504,16.2107,-0.7299,16.968,-14.63,37.9,14.76,288.47,68.71,147.79,0.0,72.543,35.177998,126.90891,,155.24389885801799,,77.896774,,0 / 22,1403,2014-12-14 14:32:39:671
-6.688,0.8056,-11.9754,-0.1675,-9.7564,-0.9769,-2.9156,7.3669,-4.9379,-12.45,39.4,19.08,238.15,81.86,166.52,0.0,72.543,35.177998,126.90891,,155.24389885801799,,77.896774,,0 / 22,1453,2014-12-14 14:32:39:721
4.3472,-36.8022,-17.7996,-0.7218,-9.6728,-1.4442,-7.3682,-2.178,-6.4929,-11.7,40.84,18.7,238.15,81.86,166.52,0.0,72.543,35.177998,126.90891,,155.24389885801799,,77.896774,,0 / 22,1503,2014-12-14 14:32:39:771
-7.3011,-24.7708,-9.3124,-3.2614,-8.1873,-4.3013,-21.8404,24.4347,-13.7392,-10.57,40.53,21.95,259.21,80.52,153.44,0.0,72.543,35.177998,126.90891,,155.24389885801799,,77.896774,,0 / 22,1553,2014-12-14 14:32:39:821
3.485,-25.1731,-13.01,-2.6215,-8.2898,-4.5362,5.4483,-13.8645,-7.8072,-1.01,37.9,27.33,287.42,54.19,142.12,0.0,72.543,35.177998,126.90891,,155.24389885801799,,77.896774,,0 / 22,1603,2014-12-14 14:32:39:871
7.719,-27.9127,0.6116,-1.3072,-9.0131,-3.6366,9.837,-16.4978,5.633,2.74,34.59,31.76,287.42,54.19,142.12,0.0,71.549,35.177998,126.90891,,155.24389885801799,,77.896774,,0 / 22,1653,2014-12-14 14:32:39:921
9.1559,-9.2334,7.9875,-0.3101,-9.3869,-2.8213,10.6867,0.6831,9.7921,7.87,29.78,32.76,190.71,66.79,160.23,0.0,71.549,35.177998,126.90891,,155.24389885801799,,77.896774,,0 / 22,1703,2014-12-14 14:32:39:971
9.8456,-5.6125,13.984,0.3433,-9.7273,-1.1969,6.6847,7.1158,17.2197,8.24,27.21,31.08,190.71,66.79,160.23,0.0,71.549,35.177998,126.90891,,155.24389885801799,,77.896774,,0 / 22,1753,2014-12-14 14:32:40:021
5.5924,-3.62,3.5428,2.5018,-9.4645,0.5784,4.1376,6.8147,3.0472,10.87,31.28,27.58,140.25,82.71,-163.99,0.0,71.549,35.177998,126.90891,,155.24389885801799,,77.896774,,0 / 22,1803,2014-12-14 14:32:40:071
1.2818,-4.7504,6.1866,2.555,-9.426,0.8899,-0.54,5.6239,4.3396,9.37,33.46,21.7,36.33,73.98,-70.8,0.0,71.549,35.177998,126.90891,,155.24389885801799,,77.896774,,0 / 22,1854,2014-12-14 14:32:40:122
-7.6076,-33.4686,-8.1055,1.9991,-9.5979,-0.2314,-9.9653,-22.3733,-4.6117,-2.07,34.96,13.45,53.95,72.63,-85.37,0.0,71.549,35.177998,126.90891,,155.24389885801799,,77.896774,,0 / 22,1903,2014-12-14 14:32:40:171
-7.3586,-24.8857,-7.205,0.7534,-9.7439,-0.8119,-9.8909,-11.8544,-6.0791,-7.26,35.34,8.64,53.95,72.63,-85.37,0.0,71.549,35.177998,126.90891,,155.24389885801799,,77.896774,,0 / 22,1953,2014-12-14 14:32:40:221
-7.7034,-9.2909,-6.8219,0.2795,-9.7129,-1.3233,-5.863,3.8321,-5.1919,-12.82,33.46,8.64,237.83,82.07,-168.07,0.0,71.969,35.177998,126.90891,,155.24389885801799,,77.896774,,0 / 22,2003,2014-12-14 14:32:40:271
-11.5159,6.6871,-9.4274,-0.7816,-9.5896,-1.8972,-12.0916,13.5391,-4.9805,-13.88,34.21,7.76,287.67,77.92,157.61,0.0,71.969,35.177998,126.90891,,155.24389885801799,,77.896774,,0 / 22,2053,2014-12-14 14:32:40:321
-11.8224,10.6146,-8.9676,-2.0525,-9.1459,-2.8826,-8.5039,19.403,-6.1354,-13.88,33.09,10.14,287.67,77.92,157.61,0.0,71.969,35.177998,126.90891,,155.24389885801799,,77.896774,,0 / 22,2105,2014-12-14 14:32:40:373
4.1747,-3.5242,5.5927,-2.7013,-8.8825,-3.1582,6.7114,5.4324,8.765,-12.45,33.09,11.7,299.02,68.85,144.55,0.0,71.969,35.177998,126.90891,,155.24389885801799,,77.896774,,0 / 22,2153,2014-12-14 14:32:40:421
-22.4553,-0.8229,-15.8646,-1.6976,-9.5129,-1.6712,-14.1319,10.0179,-16.0521,-9.13,30.9,11.39,277.9,84.69,132.93,0.0,71.969,35.177998,126.90891,,155.24389885801799,,77.896774,,0 / 22,2203,2014-12-14 14:32:40:471
9.0409,-34.1966,-2.3005,-0.0329,-9.6848,-1.5406,4.6591,-12.9194,0.9511,-9.13,29.78,16.26,277.9,84.69,132.93,0.0,71.969,35.177998,126.90891,,155.24389885801799,,77.896774,,0 / 22,2253,2014-12-14 14:32:40:521
-4.4657,-26.1502,-17.6655,-3.5797,-8.1312,-4.152,-1.086,-13.7183,-11.2411,-9.13,30.53,14.2,287.7,70.76,142.07,0.0,71.969,35.177998,126.90891,,155.24389885801799,,77.896774,,0 / 22,2303,2014-12-14 14:32:40:571
6.8569,-28.545,-4.3121,-2.1252,-8.8136,-3.7383,10.254,-16.1492,-2.1989,-0.95,27.96,19.33,258.31,63.99,150.38,0.0,70.174,35.177998,126.90891,,155.24389885801799,,77.896774,,0 / 22,2353,2014-12-14 14:32:40:621
9.9605,-16.7243,0.5349,-0.3912,-9.3739,-2.8544,10.2135,-3.7214,5.6288,3.43,25.34,22.33,258.31,63.99,150.38,0.0,70.174,35.177998,126.90891,,155.24389885801799,,77.896774,,0 / 22,2403,2014-12-14 14:32:40:671
6.1097,-5.4209,6.1483,0.3488,-9.5242,-2.3107,5.1266,8.203,9.8334,6.8,20.9,24.95,171.05,72.91,172.2,0.0,70.174,35.177998,126.90891,,155.24389885801799,,77.896774,,0 / 22,2453,2014-12-14 14:32:40:721
8.562,-5.4017,12.2981,1.404,-9.6912,-0.528,6.7673,6.229,13.1345,7.49,18.71,27.08,142.65,78.68,-162.41,0.0,70.174,35.177998,126.90891,,155.24389885801799,,77.896774,,0 / 22,2503,2014-12-14 14:32:40:771
9.3858,-3.9074,6.3016,2.3527,-9.5141,0.3434,6.0215,7.0615,5.6116,8.62,20.9,23.2,51.69,75.97,-81.7,0.0,70.174,35.177998,126.90891,,155.24389885801799,,77.896774,,0 / 22,2554,2014-12-14 14:32:40:822
4.0789,-4.2906,4.2325,2.5908,-9.4404,0.5804,2.3213,6.5934,3.4564,10.87,24.96,22.95,51.69,75.97,-81.7,0.0,70.174,35.177998,126.90891,,155.24389885801799,,77.896774,,0 / 22,2603,2014-12-14 14:32:40:871
-8.9104,-31.1313,-9.2166,3.1023,-9.302,-0.1405,8.7248,-11.9412,-11.9031,0.87,33.09,19.58,56.29,71.54,-92.59,0.0,72.204,35.177998,126.90891,,155.24389885801799,,77.896774,,0 / 22,2654,2014-12-14 14:32:40:922
-6.4581,-27.7595,-6.9943,0.6933,-9.7156,-1.1384,-4.9474,-1.5864,-7.0946,-4.7,34.96,18.26,114.24,80.97,-114.71,0.0,72.204,35.177998,126.90891,,155.24389885801799,,77.896774,,0 / 22,2703,2014-12-14 14:32:40:971
-13.2018,-2.9686,-6.4962,0.029,-9.6688,-1.6385,-10.075,8.236,-4.2395,-15.76,34.59,15.64,237.01,80.38,-178.99,0.0,72.204,35.177998,126.90891,,155.24389885801799,,77.896774,,0 / 22,2753,2014-12-14 14:32:41:021
-14.1023,8.4306,-5.7682,-2.0364,-9.2608,-2.5021,-11.5773,21.5018,-0.9142,-16.13,35.34,16.2,237.01,80.38,-178.99,0.0,72.204,35.177998,126.90891,,155.24389885801799,,77.896774,,0 / 22,2803,2014-12-14 14:32:41:071
-9.6001,7.875,-1.6683,-2.8467,-9.0129,-2.6143,0.2043,11.4053,3.8366,-17.26,35.34,16.39,293.09,70.79,140.86,0.0,72.204,35.177998,126.90891,,155.24389885801799,,77.896774,,0 / 22,2853,2014-12-14 14:32:41:121
9.3283,-11.973,11.2636,-2.4648,-9.2526,-2.1176,7.5287,2.7581,9.0387,-15.76,35.71,15.82,293.09,70.79,140.86,0.0,72.204,35.177998,126.90891,,155.24389885801799,,77.896774,,0 / 22,2903,2014-12-14 14:32:41:171
-0.4807,-2.3939,-0.2889,-1.0664,-9.7308,-0.5867,6.2315,0.5351,9.476,-17.26,36.84,19.01,296.56,70.65,130.67,0.0,72.204,35.177998,126.90891,,155.24389885801799,,77.896774,,0 / 22,2954,2014-12-14 14:32:41:222
-22.2062,-21.4947,15.8424,-0.8682,-9.5146,-2.211,16.9941,-28.6984,12.5231,-16.88,30.53,22.33,285.73,82.87,118.82,0.0,70.121,35.177998,126.90891,,155.24389885801799,,77.896774,,0 / 22,3003,2014-12-14 14:32:41:271
-19.1409,-8.946,-10.8643,-5.1129,-7.5286,-3.6536,-12.4041,-2.3056,-9.1362,-17.95,28.65,23.64,252.05,75.98,158.56,0.0,70.121,35.177998,126.90891,,155.24389885801799,,77.896774,,0 / 22,3053,2014-12-14 14:32:41:321
13.8688,-24.3876,0.9947,-2.0636,-8.9865,-3.3399,20.6577,-15.5229,6.3693,-7.63,25.71,30.64,277.59,52.62,132.68,0.0,70.121,35.177998,126.90891,,155.24389885801799,,77.896774,,0 / 22,3103,2014-12-14 14:32:41:371
6.7036,-16.1879,1.8568,-1.1772,-9.3521,-2.7061,8.7805,-1.4281,6.1657,-3.2,23.9,34.14,277.59,52.62,132.68,0.0,70.121,35.177998,126.90891,,155.24389885801799,,77.896774,,0 / 22,3153,2014-12-14 14:32:41:421
10.3054,-5.2868,14.1756,0.0879,-9.7126,-1.352,9.3933,7.5994,14.5269,-1.32,18.34,34.7,209.63,72.49,156.49,0.0,70.121,35.177998,126.90891,,155.24389885801799,,77.896774,,0 / 22,3203,2014-12-14 14:32:41:471
6.2055,-4.7695,11.0145,0.5163,-9.7676,-0.7052,5.1793,6.8523,11.5427,1.24,18.71,34.95,140.27,84.89,-143.79,0.0,70.121,35.177998,126.90891,,155.24389885801799,,77.896774,,0 / 22,3253,2014-12-14 14:32:41:521
1.4926,-3.6775,3.811,1.5618,-9.6327,0.9711,0.3282,5.9733,2.1032,4.93,24.21,32.39,54.79,82.23,-68.14,0.0,70.121,35.177998,126.90891,,155.24389885801799,,77.896774,,0 / 22,3303,2014-12-14 14:32:41:571
13.888,-21.2456,-14.83,2.4462,-9.4923,-0.2868,11.4968,-19.201,-8.6661,3.43,27.59,29.33,54.79,82.23,-68.14,0.0,73.021,35.177998,126.90891,,155.24389885801799,,77.896774,,0 / 22,3353,2014-12-14 14:32:41:621
-9.3127,-34.0242,-9.2358,1.0271,-9.7067,-0.9468,-11.2402,-17.9522,-6.9843,-8.76,34.96,22.95,83.41,75.45,-96.69,0.0,73.021,35.177998,126.90891,,155.24389885801799,,77.896774,,0 / 22,3403,2014-12-14 14:32:41:671
-4.0442,-18.3144,-9.8105,0.7097,-9.7056,-1.2118,-6.7726,-6.5126,-6.8717,-12.07,34.96,18.83,182.5,81.77,-149.64,0.0,73.021,35.177998,126.90891,,155.24389885801799,,77.896774,,0 / 22,3453,2014-12-14 14:32:41:721
-13.0486,-1.321,-6.0364,-0.1722,-9.6184,-1.9044,-10.8209,9.5061,-3.0867,-18.7,37.9,13.58,257.19,78.76,174.83,0.0,73.021,35.177998,126.90891,,155.24389885801799,,77.896774,,0 / 22,3503,2014-12-14 14:32:41:771
-11.286,9.0819,-3.6224,-2.0367,-9.2101,-2.6825,-8.8858,20.5144,0.2909,-19.82,36.4,15.2,257.19,78.76,174.83,0.0,73.021,35.177998,126.90891,,155.24389885801799,,77.896774,,0 / 22,3553,2014-12-14 14:32:41:821
4.7878,-5.8424,9.0412,-2.6004,-9.0417,-2.767,-5.6989,17.3058,2.9246,-19.07,38.28,15.08,304.59,67.22,136.78,0.0,73.021,35.177998,126.90891,,155.24389885801799,,77.896774,,0 / 22,3603,2014-12-14 14:32:41:871
5.2476,-9.7124,10.3248,-1.0818,-9.745,-0.1865,6.2792,-0.2764,9.9816,-19.07,41.59,14.01,312.51,70.18,126.7,0.0,73.021,35.177998,126.90891,,155.24389885801799,,77.896774,,0 / 22,3653,2014-12-14 14:32:41:921
-7.9142,-17.0308,10.3056,-0.9703,-9.7585,-0.0028,1.8905,3.8631,2.4527,-19.07,40.15,16.08,312.51,70.18,126.7,0.0,70.207,35.177998,126.90891,,155.24389885801799,,77.896774,,0 / 22,3703,2014-12-14 14:32:41:971
-39.5828,16.0747,-39.8124,-2.1761,-8.9709,-3.3102,-30.8378,19.1056,-28.6129,-22.76,41.59,13.45,328.01,84.32,90.17,0.0,70.207,35.177998,126.90891,,155.24389885801799,,77.896774,,0 / 22,3753,2014-12-14 14:32:42:021
-1.0555,-20.3452,-18.9299,-4.5069,-7.665,-4.1359,-30.7808,20.307,-10.1406,-24.26,40.15,17.95,295.78,66.17,146.68,0.0,70.207,35.177998,126.90891,,155.24389885801799,,77.896774,,0 / 22,3803,2014-12-14 14:32:42:071
-1.3812,-19.7321,-3.5458,-2.4975,-8.7588,-3.6355,0.3717,-7.1418,-1.1299,-12.82,41.59,25.33,292.51,60.18,142.37,0.0,70.207,35.177998,126.90891,,155.24389885801799,,77.896774,,0 / 22,3853,2014-12-14 14:32:42:121
7.9489,-18.9083,-2.5112,-2.0512,-8.9608,-3.4158,7.3348,-7.7936,2.522,-8.38,39.4,27.51,292.51,60.18,142.37,0.0,70.207,35.177998,126.90891,,155.24389885801799,,77.896774,,0 / 22,3910,2014-12-14 14:32:42:178
6.5695,-14.023,1.2629,-0.9693,-9.2865,-2.9987,9.3557,-2.0081,4.7977,-1.32,38.65,33.26,213.28,71.25,162.09,0.0,70.207,35.177998,126.90891,,155.24389885801799,,77.896774,,0 / 22,3953,2014-12-14 14:32:42:221
6.3588,-3.6966,3.3512,-0.6309,-9.5625,-2.0812,3.4296,7.0913,8.003,7.49,33.46,32.83,186.44,77.19,163.13,0.0,70.207,35.177998,126.90891,,155.24389885801799,,77.896774,,0 / 22,4003,2014-12-14 14:32:42:271
2.5271,-4.1948,4.5773,0.8396,-9.745,-0.7075,2.8327,5.1723,5.9091,11.55,34.59,31.45,186.44,77.19,163.13,0.0,73.05,35.177998,126.90891,,155.24389885801799,,77.896774,,0 / 22,4053,2014-12-14 14:32:42:321
7.4508,-4.1756,4.7306,1.0499,-9.7445,-0.3356,2.3723,5.2717,5.3811,15.3,37.15,28.2,100.89,83.57,-130.12,0.0,73.05,35.177998,126.90891,,155.24389885801799,,77.896774,,0 / 22,4103,2014-12-14 14:32:42:371
8.8494,-5.2868,-3.8906,1.8897,-9.6225,-0.0818,4.4275,4.4967,-0.9529,16.37,37.53,23.64,66.34,83.55,-107.73,0.0,73.05,35.177998,126.90891,,155.24389885801799,,77.896774,,0 / 22,4153,2014-12-14 14:32:42:421
-3.3162,-33.3728,-10.8643,2.9086,-9.2174,-1.658,-0.2059,-19.7119,-1.7755,10.87,44.21,19.26,51.48,67.65,-117.99,0.0,73.05,35.177998,126.90891,,155.24389885801799,,77.896774,,0 / 22,4203,2014-12-14 14:32:42:471
-19.4474,-35.8251,-5.5574,0.4284,-9.6165,-1.8734,-18.0397,-17.5455,-2.8387,-1.7,47.9,17.08,51.48,67.65,-117.99,0.0,73.05,35.177998,126.90891,,155.24389885801799,,77.896774,,0 / 22,4253,2014-12-14 14:32:42:521
-10.2706,-18.0079,-11.0942,-0.3865,-9.5792,-2.064,-7.6866,-3.8804,-4.333,-15.01,48.28,12.7,214.21,78.7,-167.12,0.0,73.05,35.177998,126.90891,,155.24389885801799,,77.896774,,0 / 22,4303,2014-12-14 14:32:42:571
-13.6233,2.1275,-2.7986,-2.3295,-9.0678,-2.9187,-10.9027,16.1106,0.9233,-22.01,49.34,9.64,299.94,73.35,155.85,0.0,70.679,35.177998,126.90891,,155.24389885801799,,77.896774,,0 / 22,4353,2014-12-14 14:32:42:621
-8.9295,-1.5509,-1.2085,-3.2359,-8.7668,-2.9736,-5.2599,11.3526,2.8593,-26.07,46.4,4.82,320.96,67.62,141.41,0.0,70.679,35.177998,126.90891,,155.24389885801799,,77.896774,,0 / 22,4403,2014-12-14 14:32:42:671
-5.9983,-5.9382,0.7457,-3.7175,-8.6215,-2.8321,-1.6323,6.0399,3.628,-24.63,49.03,6.64,320.96,67.62,141.41,0.0,70.679,35.177998,126.90891,,155.24389885801799,,77.896774,,0 / 22,4453,2014-12-14 14:32:42:721
-1.477,-6.3596,1.8952,-3.7625,-8.7175,-2.4536,2.8792,4.2081,4.9266,-23.88,49.71,8.76,328.79,61.54,127.3,0.0,70.679,35.177998,126.90891,,155.24389885801799,,77.896774,,0 / 22,4505,2014-12-14 14:32:42:773
1.0328,-16.686,-0.3272,-2.1571,-9.3419,-2.0608,4.225,-4.1733,-1.7417,-19.45,50.46,11.89,328.79,61.54,127.3,0.0,70.679,35.177998,126.90891,,155.24389885801799,,77.896774,,0 / 22,4554,2014-12-14 14:32:42:822
3.6958,-16.5327,4.8264,-1.7415,-9.5445,-1.4282,2.0661,-2.2442,3.4113,-16.88,52.34,14.89,305.91,72.29,133.69,0.0,70.679,35.177998,126.90891,,155.24389885801799,,77.896774,,0 / 22,4603,2014-12-14 14:32:42:871
1.7416,-10.6319,-0.6912,-1.5992,-9.5817,-1.3434,0.0444,2.548,-1.3843,-17.26,49.03,16.01,303.97,77.1,125.39,0.0,70.679,35.177998,126.90891,,155.24389885801799,,77.896774,,0 / 22,4653,2014-12-14 14:32:42:921
2.2397,-10.517,-2.5112,-1.3744,-9.6109,-1.3825,3.6517,-0.0174,-0.5582,-15.38,50.46,15.33,294.97,78.53,135.17,0.0,65.688,35.177998,126.90891,,155.24389885801799,,77.896774,,0 / 22,4703,2014-12-14 14:32:42:971
1.3393,-8.8502,-1.151,-0.6811,-9.6777,-1.4312,1.9694,1.7438,0.6466,-14.63,50.84,17.08,294.97,78.53,135.17,0.0,65.688,35.177998,126.90891,,155.24389885801799,,77.896774,,0 / 22,4753,2014-12-14 14:32:43:021
1.0328,-9.1568,0.7074,-0.5789,-9.697,-1.3428,1.6704,1.6039,1.609,-15.38,49.71,17.26,265.19,80.7,154.55,0.0,65.688,35.177998,126.90891,,155.24389885801799,,77.896774,,0 / 22,4803,2014-12-14 14:32:43:071
0.9753,-10.3446,1.2055,-0.2628,-9.7777,-0.7052,1.4546,0.2967,1.6905,-15.38,51.59,15.76,261.1,83.69,157.12,0.0,65.688,35.177998,126.90891,,155.24389885801799,,77.896774,,0 / 22,4853,2014-12-14 14:32:43:121
1.2818,-9.2142,-0.1356,-0.1876,-9.7801,-0.6966,1.1459,1.4504,0.2328,-15.38,49.34,17.51,261.1,83.69,157.12,0.0,65.688,35.177998,126.90891,,155.24389885801799,,77.896774,,0 / 22,4903,2014-12-14 14:32:43:171
0.7837,-11.6665,-1.3617,-0.0592,-9.7618,-0.935,0.6084,-1.9301,-0.0462,-17.26,51.21,15.33,244.13,85.78,164.93,0.0,65.688,35.177998,126.90891,,155.24389885801799,,77.896774,,0 / 22,4953,2014-12-14 14:32:43:221
-1.7835,-10.2679,0.2092,-0.0931,-9.7677,-0.868,-0.5091,-2.0097,0.7984,-16.88,50.84,16.39,241.03,84.52,176.38,0.0,65.688,35.177998,126.90891,,155.24389885801799,,77.896774,,0 / 22,5030,2014-12-14 14:32:43:298
-0.0784,-7.6816,-0.6337,-0.3529,-9.7685,-0.7884,-0.4651,2.4889,0.0523,-17.26,50.46,15.33,241.03,84.52,176.38,0.0,57.952,35.177998,126.90891,,155.24389885801799,,77.896774,,0 / 22,5053,2014-12-14 14:32:43:321
2.5654,-11.0726,1.0139,-0.0908,-9.785,-0.6453,2.5125,-0.9156,1.5384,-17.26,51.21,16.64,259.79,84.95,155.88,0.0,57.952,35.177998,126.90891,,155.24389885801799,,77.896774,,0 / 22,5103,2014-12-14 14:32:43:371
0.3047,-8.2755,-0.0973,0.263,-9.7948,-0.4038,0.025,1.5274,0.3225,-17.26,50.09,19.45,212.79,86.94,-167.68,0.0,57.952,35.177998,126.90891,,155.24389885801799,,77.896774,,0 / 22,5153,2014-12-14 14:32:43:421
0.2664,-10.5745,0.5541,0.2807,-9.7946,-0.3957,0.2238,0.8466,0.1478,-16.13,50.84,19.26,212.79,86.94,-167.68,0.0,57.952,35.177998,126.90891,,155.24389885801799,,77.896774,,0 / 22,5203,2014-12-14 14:32:43:471
0.0557,-8.946,-0.059,0.2335,-9.8021,-0.1856,-0.2478,0.6131,0.2504,-16.88,51.21,19.89,185.54,87.16,-144.64,0.0,57.952,35.177998,126.90891,,155.24389885801799,,77.896774,,0 / 22,5253,2014-12-14 14:32:43:521
0.6496,-9.4058,0.4008,0.251,-9.8019,-0.1721,0.2228,0.9346,0.2063,-16.88,50.84,17.83,171.29,88.26,-128.47,0.0,57.952,35.177998,126.90891,,155.24389885801799,,77.896774,,0 / 22,5303,2014-12-14 14:32:43:571
1.1477,-9.7507,1.0139,0.4384,-9.7968,0.0246,0.776,-0.0611,0.9579,-15.01,51.59,20.14,140.63,88.01,-106.4,0.0,57.952,35.177998,126.90891,,155.24389885801799,,77.896774,,0 / 22,5353,2014-12-14 14:32:43:621
0.9561,-9.2717,0.8031,0.4708,-9.7949,0.0895,0.4361,0.404,0.9061,-17.26,50.46,19.45,140.63,88.01,-106.4,0.0,61.91,35.177998,126.90891,,155.24389885801799,,77.896774,,0 / 22,5403,2014-12-14 14:32:43:671
0.5921,-9.5208,0.5732,0.5229,-9.7912,0.1718,0.2443,0.3048,0.5104,-15.38,51.21,18.83,112.02,87.2,-79.24,0.0,61.91,35.177998,126.90891,,155.24389885801799,,77.896774,,0 / 22,5455,2014-12-14 14:32:43:723
-0.0401,-9.5974,0.3625,0.4741,-9.7923,0.2384,-0.4568,0.113,0.0321,-16.51,51.96,17.95,103.12,86.67,-66.6,0.0,61.91,35.177998,126.90891,,155.24389885801799,,77.896774,,0 / 22,5503,2014-12-14 14:32:43:771
0.4389,-9.7124,0.5924,0.443,-9.7933,0.2558,-0.188,0.1301,0.2304,-15.76,50.46,21.45,103.12,86.67,-66.6,0.0,61.91,35.177998,126.90891,,155.24389885801799,,77.896774,,0 / 22,5555,2014-12-14 14:32:43:823
0.9944,-9.425,0.7074,0.4649,-9.7908,0.3072,0.3254,0.0441,0.4178,-15.38,49.71,19.45,92.09,87.01,-59.99,0.0,61.91,35.177998,126.90891,,155.24389885801799,,77.896774,,0 / 22,5603,2014-12-14 14:32:43:871
1.0136,-9.1376,-0.3847,0.5578,-9.7854,0.323,0.4395,0.4193,-0.5455,-16.51,51.21,20.14,92.09,87.01,-59.99,0.0,61.91,35.177998,126.90891,,155.24389885801799,,77.896774,,0 / 22,5653,2014-12-14 14:32:43:921
0.4197,-9.0993,-0.2697,0.6175,-9.7844,0.2323,0.2614,0.273,-0.6616,-14.63,50.46,20.14,89.23,86.23,-59.93,0.0,61.91,35.177998,126.90891,,155.24389885801799,,77.896774,,0 / 22,5703,2014-12-14 14:32:43:971
0.2856,-10.2296,0.7074,0.5318,-9.7907,0.1722,-0.865,0.0588,-0.2558,-13.2,50.09,23.2,91.53,86.14,-69.39,0.0,58.179,35.177998,126.90891,,155.24389885801799,,77.896774,,0 / 22,5753,2014-12-14 14:32:44:021
1.2052,-10.0572,1.2821,0.5758,-9.7857,0.2824,0.4551,-0.6107,0.7564,-10.57,49.4,25.14,80.97,86.25,-63.87,0.0,58.179,35.177998,126.90891,,155.24389885801799,,77.896774,,0 / 22,5803,2014-12-14 14:32:44:071
1.5309,-9.7315,0.9373,0.6755,-9.7756,0.3886,0.8217,-0.0664,0.6326,-11.32,49.34,24.08,80.97,86.25,-63.87,0.0,58.179,35.177998,126.90891,,155.24389885801799,,77.896774,,0 / 22,5853,2014-12-14 14:32:44:121
0.9944,-9.3675,-0.2122,0.8796,-9.7566,0.4525,0.8134,0.1316,0.2862,-12.45,49.34,22.76,79.69,84.57,-62.25,0.0,58.179,35.177998,126.90891,,155.24389885801799,,77.896774,,0 / 22,5903,2014-12-14 14:32:44:171
0.6113,-9.4825,-0.308,0.8722,-9.7604,0.38,-0.3624,0.2838,-0.1949,-15.01,51.21,20.14,91.86,84.43,-66.46,0.0,58.179,35.177998,126.90891,,155.24389885801799,,77.896774,,0 / 22,5953,2014-12-14 14:32:44:221