ACCELEROMETER X (m/s²),ACCELEROMETER Y (m/s²),ACCELEROMETER Z (m/s²),GRAVITY X (m/s²),GRAVITY Y (m/s²),GRAVITY Z (m/s²),LINEAR ACCELERATION X (m/s²),LINEAR ACCELERATION Y (m/s²),LINEAR ACCELERATION Z (m/s²),MAGNETIC FIELD X (μT),MAGNETIC FIELD Y (μT),MAGNETIC FIELD Z (μT),ORIENTATION X (°),ORIENTATION Y (°),ORIENTATION Z (°),PROXIMITY (i),SOUND LEVEL (dB),LOCATION Latitude : ,LOCATION Longitude : ,LOCATION Altitude ( m),LOCATION Altitude-google ( m),LOCATION Speed ( Kmh),LOCATION Accuracy ( m),LOCATION ORIENTATION (°),Satellites in range,Time since start in ms ,YYYY-MO-DD HH-MI-SS_SSS
1.301,-9.5591,1.0522,0.5898,-9.7868,0.2026,0.5475,-0.5015,1.1313,-5.38,27.53,5.14,139.91,87.15,-90.54,0.0,72.087,35.178055,126.908905,,155.13731749302656,,75.79355,,0 / 22,2,2014-12-14 14:32:06:247
1.4926,-9.2909,0.42,0.7563,-9.7731,0.2911,0.7154,0.2355,0.1186,-5.76,27.15,5.01,109.19,86.35,-71.04,0.0,40.699,35.178055,126.908905,,155.13731749302656,,75.79355,,0 / 22,52,2014-12-14 14:32:06:297
0.4389,-9.425,0.7074,0.7815,-9.7703,0.3166,-0.1247,0.1342,0.2198,-4.26,28.65,4.39,109.19,86.35,-71.04,0.0,40.699,35.178055,126.908905,,155.13731749302656,,75.79355,,0 / 22,102,2014-12-14 14:32:06:347
0.6304,-9.3483,0.4966,0.7022,-9.774,0.3829,-0.2796,0.1918,0.1977,-3.2,26.84,2.64,77.1,85.26,-62.99,0.0,40.699,35.178055,126.908905,,155.13731749302656,,75.79355,,0 / 22,152,2014-12-14 14:32:06:397
2.8528,-10.3829,1.033,0.8076,-9.7646,0.4143,1.2493,-0.542,0.3463,-3.2,27.53,1.64,79.13,85.32,-61.4,0.0,40.699,35.178055,126.908905,,155.13731749302656,,75.79355,,0 / 22,202,2014-12-14 14:32:06:447
3.964,-10.5553,1.4928,0.8076,-9.7646,0.4143,1.2493,-0.542,0.3463,-2.07,25.71,3.58,79.13,85.32,-61.4,0.0,40.699,35.178055,126.908905,,155.13731749302656,,75.79355,,0 / 22,252,2014-12-14 14:32:06:497
2.2397,-11.7623,5.4969,1.3266,-9.673,0.9186,-0.1494,-1.4006,3.3882,-1.32,27.15,2.2,40.12,81.49,-66.27,0.0,40.699,35.178055,126.908905,,155.13731749302656,,75.79355,,0 / 22,302,2014-12-14 14:32:06:547
2.0865,-12.4328,5.7077,1.3171,-9.5631,1.7272,0.5558,-2.03,3.7927,-2.45,25.34,0.64,32.71,80.53,-55.3,0.0,40.699,35.178055,126.908905,,155.13731749302656,,75.79355,,0 / 22,352,2014-12-14 14:32:06:597
4.1939,-12.4903,5.7268,1.4386,-9.4474,2.2017,1.5006,-1.8944,4.1237,-2.07,26.4,1.33,18.28,74.44,-33.16,0.0,66.303,35.178055,126.908905,,155.13731749302656,,75.79355,,0 / 22,402,2014-12-14 14:32:06:647
4.1939,-12.0497,3.8302,1.6738,-9.357,2.4115,2.0826,-1.1981,1.6227,-3.57,26.09,-0.11,18.28,74.44,-33.16,0.0,66.303,35.178055,126.908905,,155.13731749302656,,75.79355,,0 / 22,452,2014-12-14 14:32:06:697
2.0098,-8.1222,1.0522,1.9595,-9.3342,2.2811,1.1701,0.2714,-1.1876,-5.38,29.03,-3.05,17.62,72.58,-34.77,0.0,66.303,35.178055,126.908905,,155.13731749302656,,75.79355,,0 / 22,502,2014-12-14 14:32:06:747
1.8949,-2.892,1.0714,2.0318,-9.3377,2.202,-1.0523,5.976,-1.8087,-7.63,27.9,-6.55,141.17,72.36,-41.97,0.0,66.303,35.178055,126.908905,,155.13731749302656,,75.79355,,0 / 22,552,2014-12-14 14:32:06:797
2.0673,-3.6966,1.876,2.1957,-9.2809,2.2837,0.7415,4.0402,0.2734,-8.7,29.78,-7.86,150.54,71.15,-43.88,0.0,66.303,35.178055,126.908905,,155.13731749302656,,75.79355,,0 / 22,602,2014-12-14 14:32:06:847
1.7608,-5.2485,3.332,2.4823,-9.1209,2.6112,-0.2864,2.9519,0.997,-7.26,30.46,-7.49,150.54,71.15,-43.88,0.0,66.303,35.178055,126.908905,,155.13731749302656,,75.79355,,0 / 22,652,2014-12-14 14:32:06:897
-1.1704,-1.5509,2.4316,2.134,-9.136,2.8549,-3.5522,3.7734,0.1986,-6.88,30.84,-6.55,6.54,68.45,-43.55,0.0,70.116,35.178055,126.908905,,155.13731749302656,,75.79355,,0 / 22,702,2014-12-14 14:32:06:947
7.4508,-22.4526,20.4595,1.7297,-8.9729,3.5587,2.966,-9.4075,10.645,-8.01,31.21,0.2,44.34,69.61,-29.11,0.0,70.116,35.178055,126.908905,,155.13731749302656,,75.79355,,0 / 22,752,2014-12-14 14:32:06:997
1.1477,0.5565,-6.2663,0.8006,-9.4709,2.4148,-12.1872,2.646,-10.8002,-6.51,31.59,0.89,44.34,69.61,-29.11,0.0,70.116,35.178055,126.908905,,155.13731749302656,,75.79355,,0 / 22,802,2014-12-14 14:32:07:047
-3.2395,-16.6285,-3.0285,0.5855,-9.7143,1.2081,-0.4077,-4.8881,-8.4277,-5.76,30.84,3.39,36.51,74.96,-18.34,0.0,70.116,35.178055,126.908905,,155.13731749302656,,75.79355,,0 / 22,852,2014-12-14 14:32:07:097
-8.0674,-9.5591,-3.0094,-0.8593,-9.7683,0.1121,-6.9549,-0.413,-2.7215,-2.07,29.03,7.45,31.39,85.6,-24.53,0.0,70.116,35.178055,126.908905,,155.13731749302656,,75.79355,,0 / 22,902,2014-12-14 14:32:07:147
-1.0746,-16.3603,-9.7148,-1.1742,-9.6942,-0.9022,-0.576,-6.081,-8.6315,-0.26,27.9,9.76,31.39,85.6,-24.53,0.0,70.116,35.178055,126.908905,,155.13731749302656,,75.79355,,0 / 22,952,2014-12-14 14:32:07:197
7.2784,-31.9934,-10.4428,-0.5135,-9.6087,-1.892,6.1411,-17.8534,-8.7224,5.3,24.96,14.01,223.2,81.32,127.54,0.0,70.116,35.178055,126.908905,,155.13731749302656,,75.79355,,0 / 22,1002,2014-12-14 14:32:07:247
7.2975,-23.7937,5.3245,0.4211,-9.7396,-1.0643,5.4947,-8.761,7.961,7.18,21.65,16.64,223.2,81.32,127.54,0.0,70.116,35.178055,126.908905,,155.13731749302656,,75.79355,,0 / 22,1052,2014-12-14 14:32:07:297
13.1791,-6.6279,10.4972,1.5266,-9.6866,0.1013,10.403,7.1645,8.493,8.24,18.34,18.89,124.26,83.3,-158.41,0.0,71.584,35.178055,126.908905,,155.13731749302656,,75.79355,,0 / 22,1102,2014-12-14 14:32:07:347
14.9608,-5.4784,9.9033,2.7674,-9.3379,1.1473,11.0339,6.1466,9.0534,9.37,19.4,19.14,54.54,81.02,-86.2,0.0,71.584,35.178055,126.908905,,155.13731749302656,,75.79355,,0 / 22,1152,2014-12-14 14:32:07:397
4.7112,-5.6125,7.5852,3.537,-8.9396,1.9349,2.8681,5.7445,6.0718,8.24,17.96,19.33,54.54,81.02,-86.2,0.0,71.584,35.178055,126.908905,,155.13731749302656,,75.79355,,0 / 22,1202,2014-12-14 14:32:07:447
-0.6149,-33.871,-1.9557,3.2201,-9.1946,1.1227,-4.1064,-19.8671,-2.9323,3.87,22.03,19.64,31.71,65.73,-61.32,0.0,71.584,35.178055,126.908905,,155.13731749302656,,75.79355,,0 / 22,1252,2014-12-14 14:32:07:497
-5.2512,-27.3763,-8.4312,1.84,-9.6277,0.3052,-11.5216,-18.9509,-7.5387,-3.57,27.15,18.89,58.69,69.65,-70.78,0.0,71.584,35.178055,126.908905,,155.13731749302656,,75.79355,,0 / 22,1302,2014-12-14 14:32:07:547
-5.8834,-17.05,-8.9293,0.8281,-9.7479,-0.6801,-8.6045,2.868,-7.5217,-14.26,34.21,15.2,143.6,82.87,-107.82,0.0,71.584,35.178055,126.908905,,155.13731749302656,,75.79355,,0 / 22,1352,2014-12-14 14:32:07:597
-9.9833,1.8784,-8.8143,-0.0175,-9.7127,-1.3541,-10.16,14.6353,-6.4373,-17.95,35.28,13.26,184.33,83.73,-129.39,0.0,72.687,35.178055,126.908905,,155.13731749302656,,75.79355,,0 / 22,1402,2014-12-14 14:32:07:647
-14.2747,8.6413,-10.2512,-1.7451,-9.1993,-2.9151,-11.5366,19.1043,-5.5398,-20.2,36.78,12.58,184.33,83.73,-129.39,0.0,72.687,35.178055,126.908905,,155.13731749302656,,75.79355,,0 / 22,1452,2014-12-14 14:32:07:697
0.5347,-0.4397,2.5274,-2.0242,-9.1381,-2.9272,3.317,8.3968,7.4314,-18.7,39.34,13.58,295.88,69.73,149.09,0.0,72.687,35.178055,126.908905,,155.13731749302656,,75.79355,,0 / 22,1502,2014-12-14 14:32:07:747
2.2972,-4.9803,1.2821,-1.0636,-9.6237,-1.5566,8.8463,0.1644,11.0442,-18.32,40.09,16.7,295.88,69.73,149.09,0.0,72.687,35.178055,126.908905,,155.13731749302656,,75.79355,,0 / 22,1552,2014-12-14 14:32:07:797
38.8704,-39.2928,30.7859,-0.8631,-9.6773,-1.3324,3.2185,3.8367,3.773,-16.45,38.96,20.45,270.35,78.92,145.66,0.0,72.687,35.178055,126.908905,,155.13731749302656,,75.79355,,0 / 22,1604,2014-12-14 14:32:07:849
-16.7653,11.9365,-23.2597,-0.8496,-9.6265,-1.6673,22.3898,-25.6147,19.4134,-17.95,40.09,19.2,267.76,79.0,153.0,0.0,72.687,35.178055,126.908905,,155.13731749302656,,75.79355,,0 / 22,1652,2014-12-14 14:32:07:897
-27.7813,0.0201,-11.2857,-4.3398,-7.7772,-4.1052,-33.7624,33.4465,-15.8422,-17.57,40.46,22.01,267.76,79.0,153.0,0.0,72.687,35.178055,126.908905,,155.13731749302656,,75.79355,,0 / 22,1702,2014-12-14 14:32:07:947
7.1634,-38.6222,-10.6152,-3.8111,-7.711,-4.7102,9.9746,-26.5412,-5.0183,-8.01,38.59,28.32,296.9,52.47,133.41,0.0,71.113,35.178055,126.908905,,155.13731749302656,,75.79355,,0 / 22,1752,2014-12-14 14:32:07:997
8.1022,-16.0537,4.0217,-1.3253,-9.0763,-3.4691,9.274,-7.5538,7.3143,6.43,30.84,36.7,219.33,59.77,151.66,0.0,71.113,35.178055,126.908905,,155.13731749302656,,75.79355,,0 / 22,1802,2014-12-14 14:32:08:047
8.9451,-4.8845,12.1257,-0.3617,-9.5003,-2.4048,9.6076,5.9753,14.5466,8.24,28.65,34.89,219.33,59.77,151.66,0.0,71.113,35.178055,126.908905,,155.13731749302656,,75.79355,,0 / 22,1852,2014-12-14 14:32:08:097
8.562,-4.0415,7.9492,0.2463,-9.6288,-1.8426,11.008,6.949,12.1849,10.49,29.78,33.58,169.69,75.64,171.45,0.0,71.113,35.178055,126.908905,,155.13731749302656,,75.79355,,0 / 22,1902,2014-12-14 14:32:08:147
3.6958,-3.0644,4.3666,1.8584,-9.6246,-0.29,6.3674,6.5808,8.2451,10.87,31.21,30.58,169.69,75.64,171.45,0.0,71.113,35.178055,126.908905,,155.13731749302656,,75.79355,,0 / 22,1953,2014-12-14 14:32:08:198
15.8804,-31.7444,-11.2283,3.1067,-9.2827,-0.5915,10.9268,-8.4978,-14.3417,6.8,36.4,21.33,65.92,78.94,-98.87,0.0,71.113,35.178055,126.908905,,155.13731749302656,,75.79355,,0 / 22,2002,2014-12-14 14:32:08:247
-8.6996,-30.9589,-8.0672,2.4217,-9.4755,-0.722,-8.0767,-21.7316,-2.2699,-0.57,37.53,16.51,63.27,71.19,-100.78,0.0,71.113,35.178055,126.908905,,155.13731749302656,,75.79355,,0 / 22,2052,2014-12-14 14:32:08:297
-5.8451,-24.8666,-7.5882,1.055,-9.6828,-1.1408,-10.1215,-12.5132,-5.2684,-7.63,37.53,10.83,63.27,71.19,-100.78,0.0,72.538,35.178055,126.908905,,155.13731749302656,,75.79355,,0 / 22,2102,2014-12-14 14:32:08:347
-4.5615,-12.0688,-7.0134,0.6581,-9.6525,-1.6021,-4.13,1.8943,-5.1715,-12.07,34.15,9.89,191.53,80.88,-137.24,0.0,72.538,35.178055,126.908905,,155.13731749302656,,75.79355,,0 / 22,2152,2014-12-14 14:32:08:397
-10.558,8.3731,-8.048,-1.3612,-9.2964,-2.8096,-9.217,18.3819,-4.2384,-13.88,32.71,9.2,267.97,77.83,174.63,0.0,72.538,35.178055,126.908905,,155.13731749302656,,75.79355,,0 / 22,2202,2014-12-14 14:32:08:447
0.937,-0.9379,1.2821,-1.3612,-9.2964,-2.8096,-9.217,18.3819,-4.2384,-11.32,32.71,11.26,267.97,77.83,174.63,0.0,72.538,35.178055,126.908905,,155.13731749302656,,75.79355,,0 / 22,2252,2014-12-14 14:32:08:497
3.2168,-10.1913,13.1411,-0.4691,-9.6975,-1.3818,12.1142,-2.7319,15.7342,-11.7,32.71,11.39,303.97,66.43,146.62,0.0,72.538,35.178055,126.908905,,155.13731749302656,,75.79355,,0 / 22,2302,2014-12-14 14:32:08:547
-13.7191,6.0166,-19.8112,-0.9932,-9.5769,-1.8619,-7.2188,11.8058,-12.2802,-8.01,31.21,14.01,262.84,77.57,151.92,0.0,72.538,35.178055,126.908905,,155.13731749302656,,75.79355,,0 / 22,2352,2014-12-14 14:32:08:597
-1.1896,-16.4752,-5.8065,0.2893,-9.754,-0.9729,14.1635,-19.9995,-6.4859,-10.57,29.78,12.83,262.84,77.57,151.92,0.0,72.538,35.178055,126.908905,,155.13731749302656,,75.79355,,0 / 22,2402,2014-12-14 14:32:08:647
-3.661,-31.2079,-13.0866,-4.4939,-7.8213,-3.8473,-22.2829,3.0382,-9.3942,-10.2,29.03,15.33,200.59,84.06,-163.44,0.0,69.556,35.178055,126.908905,,155.13731749302656,,75.79355,,0 / 22,2452,2014-12-14 14:32:08:697
1.3585,-35.7485,-11.0942,-3.8993,-8.1091,-3.8997,0.5112,-19.8598,-8.3702,-5.38,26.78,18.33,200.59,84.06,-163.44,0.0,69.556,35.178055,126.908905,,155.13731749302656,,75.79355,,0 / 22,2502,2014-12-14 14:32:08:747
3.2934,-25.5754,-6.0555,-2.4328,-8.7611,-3.6736,8.0726,-13.0194,-4.0192,-1.7,27.53,22.64,281.09,55.78,135.0,0.0,69.556,35.178055,126.908905,,155.13731749302656,,75.79355,,0 / 22,2552,2014-12-14 14:32:08:797
4.8453,-4.6354,9.4052,-0.294,-9.6787,-1.5515,1.3844,8.4351,13.3768,6.05,20.53,27.08,224.86,63.3,146.49,0.0,69.556,35.178055,126.908905,,155.13731749302656,,75.79355,,0 / 22,2602,2014-12-14 14:32:08:847
9.8073,-5.3251,9.1945,0.6785,-9.7683,-0.5385,9.4193,6.3639,9.5026,7.87,20.9,25.76,172.62,80.73,169.27,0.0,69.556,35.178055,126.908905,,155.13731749302656,,75.79355,,0 / 22,2652,2014-12-14 14:32:08:897
3.485,-2.7196,6.8955,1.7458,-9.6199,0.7621,2.1618,7.2725,6.3313,9.37,20.53,26.82,69.81,83.42,-92.7,0.0,69.556,35.178055,126.908905,,155.13731749302656,,75.79355,,0 / 22,2702,2014-12-14 14:32:08:947
4.9602,-2.7962,2.8722,2.3277,-9.4676,1.0566,4.0708,4.7665,0.4974,11.24,23.46,24.45,69.81,83.42,-92.7,0.0,69.556,35.178055,126.908905,,155.13731749302656,,75.79355,,0 / 22,2752,2014-12-14 14:32:08:997
-3.1246,-37.1279,-0.9019,3.0786,-9.3105,-0.084,9.7678,-25.6532,-3.7359,7.55,30.15,24.01,33.64,74.89,-65.59,0.0,74.076,35.178055,126.908905,,155.13731749302656,,75.79355,,0 / 22,2802,2014-12-14 14:32:09:047
-12.3014,-32.7023,-5.998,0.9144,-9.7307,-0.8042,-12.8146,-15.2598,-5.1309,-5.38,34.21,21.33,75.51,71.7,-91.56,0.0,74.076,35.178055,126.908905,,155.13731749302656,,75.79355,,0 / 22,2852,2014-12-14 14:32:09:097
-8.8912,-9.8465,-5.5957,0.087,-9.6995,-1.4428,-7.9498,4.5756,-3.5484,-15.76,35.28,16.7,195.24,82.9,-149.07,0.0,74.076,35.178055,126.908905,,155.13731749302656,,75.79355,,0 / 22,2902,2014-12-14 14:32:09:147
-13.2976,9.0E-4,-5.9023,-1.0513,-9.5567,-1.9327,-11.7429,14.5056,-3.1037,-18.32,34.21,16.51,195.24,82.9,-149.07,0.0,74.076,35.178055,126.908905,,155.13731749302656,,75.79355,,0 / 22,2952,2014-12-14 14:32:09:197
-6.2282,3.4686,-0.5762,-1.6851,-9.3856,-2.2894,-10.1912,18.0402,-3.6512,-19.07,33.09,17.64,271.91,77.04,151.46,0.0,74.076,35.178055,126.908905,,155.13731749302656,,75.79355,,0 / 22,3002,2014-12-14 14:32:09:247
20.5359,-14.5211,18.5054,-2.0725,-9.4075,-1.8368,11.6551,0.9361,12.801,-19.07,33.09,17.39,298.86,66.5,136.02,0.0,74.076,35.178055,126.908905,,155.13731749302656,,75.79355,,0 / 22,3052,2014-12-14 14:32:09:297
-0.9405,-0.6122,-8.3545,-0.647,-9.772,-0.5099,1.7832,4.2286,1.8251,-19.07,30.09,18.2,298.86,66.5,136.02,0.0,74.076,35.178055,126.908905,,155.13731749302656,,75.79355,,0 / 22,3102,2014-12-14 14:32:09:347
19.6738,-32.2042,28.4677,-2.2633,-9.3581,-1.864,-8.4062,-1.3471,1.8021,-17.95,29.03,20.2,278.86,85.18,128.24,0.0,71.561,35.178055,126.908905,,155.13731749302656,,75.79355,,0 / 22,3152,2014-12-14 14:32:09:397
-12.5313,-10.2296,-11.6497,-4.5406,-7.8981,-3.6296,-16.1108,3.1804,-6.1407,-20.51,26.4,23.95,256.86,77.09,155.13,0.0,71.561,35.178055,126.908905,,155.13731749302656,,75.79355,,0 / 22,3202,2014-12-14 14:32:09:447
7.4891,-22.1078,-10.5194,-3.0937,-8.4872,-3.8166,10.1117,-24.011,-3.6074,-13.51,26.46,25.95,256.86,77.09,155.13,0.0,71.561,35.178055,126.908905,,155.13731749302656,,75.79355,,0 / 22,3252,2014-12-14 14:32:09:497
5.8607,-26.5142,1.7036,-2.3773,-8.7433,-3.7514,10.642,-12.2606,-2.1456,-9.45,23.84,28.95,264.19,59.93,140.97,0.0,71.561,35.178055,126.908905,,155.13731749302656,,75.79355,,0 / 22,3302,2014-12-14 14:32:09:547
8.198,-12.0113,4.2133,-0.5813,-9.5168,-2.294,8.1999,-0.018,7.5959,-1.32,19.03,34.45,213.52,70.35,155.79,0.0,71.561,35.178055,126.908905,,155.13731749302656,,75.79355,,0 / 22,3355,2014-12-14 14:32:09:600
7.4508,-5.191,6.6464,-0.1738,-9.6053,-1.9694,8.4843,5.8548,8.2203,1.24,18.65,33.14,213.52,70.35,155.79,0.0,71.561,35.178055,126.908905,,155.13731749302656,,75.79355,,0 / 22,3402,2014-12-14 14:32:09:647
9.4049,-3.7733,8.2174,1.0081,-9.7388,-0.5562,6.0382,7.5668,10.3711,4.18,17.96,34.01,178.09,78.37,174.96,0.0,72.886,35.178055,126.908905,,155.13731749302656,,75.79355,,0 / 22,3452,2014-12-14 14:32:09:697
5.0943,-3.1027,3.1405,1.9262,-9.6073,0.4002,7.0387,7.1419,6.9752,7.18,20.9,34.45,178.09,78.37,174.96,0.0,72.886,35.178055,126.908905,,155.13731749302656,,75.79355,,0 / 22,3502,2014-12-14 14:32:09:747
14.501,-16.3603,-15.5772,3.095,-9.3012,-0.2792,10.0097,-5.6006,-12.6561,7.18,28.28,28.83,59.22,78.43,-78.26,0.0,72.886,35.178055,126.908905,,155.13731749302656,,75.79355,,0 / 22,3552,2014-12-14 14:32:09:797
-6.4964,-32.4532,-4.7528,2.4429,-9.4921,-0.322,-6.9003,-20.8107,1.4737,-0.57,35.65,23.83,70.53,71.53,-95.16,0.0,72.886,35.178055,126.908905,,155.13731749302656,,75.79355,,0 / 22,3602,2014-12-14 14:32:09:847
-3.4694,-17.663,-6.9368,0.7345,-9.7145,-1.1224,-4.5051,-2.3086,-5.3522,-10.95,41.21,18.64,139.2,81.63,-119.71,0.0,72.886,35.178055,126.908905,,155.13731749302656,,75.79355,,0 / 22,3652,2014-12-14 14:32:09:897
-11.5734,-3.6775,-5.5383,0.0172,-9.6917,-1.4971,-10.1522,8.0643,-3.1816,-19.82,36.78,16.7,139.2,81.63,-119.71,0.0,72.886,35.178055,126.908905,,155.13731749302656,,75.79355,,0 / 22,3702,2014-12-14 14:32:09:947
-10.7687,3.9475,-5.9214,-0.9859,-9.5497,-2.0005,-9.2477,17.0891,-2.9521,-20.88,38.59,15.64,244.12,81.22,-179.34,0.0,72.886,35.178055,126.908905,,155.13731749302656,,75.79355,,0 / 22,3752,2014-12-14 14:32:09:997
0.1898,-1.3976,2.3167,-2.1099,-9.1626,-2.7868,-6.9522,18.3377,-2.8032,-21.26,38.21,15.14,244.12,81.22,-179.34,0.0,71.392,35.178055,126.908905,,155.13731749302656,,75.79355,,0 / 22,3802,2014-12-14 14:32:10:047
2.5463,-9.7507,11.2636,-0.4826,-9.7734,-0.647,15.8202,-3.5214,16.3914,-19.82,40.84,18.01,302.96,69.12,142.87,0.0,71.392,35.178055,126.908905,,155.13731749302656,,75.79355,,0 / 22,3852,2014-12-14 14:32:10:097
-0.7681,4.4073,-13.6422,-0.3764,-9.7994,0.0297,1.2062,7.9212,-3.7233,-19.82,42.28,16.45,4.34,88.26,46.79,0.0,71.392,35.178055,126.908905,,155.13731749302656,,75.79355,,0 / 22,3902,2014-12-14 14:32:10:147
-37.6861,10.3081,-29.831,0.5527,-9.7489,-0.9075,21.954,-24.4764,-2.6474,-23.88,40.84,16.26,4.34,88.26,46.79,0.0,71.392,35.178055,126.908905,,155.13731749302656,,75.79355,,0 / 22,3952,2014-12-14 14:32:10:197
-36.4409,4.5797,-2.0898,-2.0252,-9.0671,-3.1395,-36.7157,24.0822,-29.7156,-26.82,38.59,16.51,295.45,67.61,147.18,0.0,71.392,35.178055,126.908905,,155.13731749302656,,75.79355,,0 / 22,4002,2014-12-14 14:32:10:247
-0.9597,-15.479,-8.6419,-1.997,-9.0757,-3.1329,2.9879,-4.3831,-4.05,-16.45,40.84,24.01,294.43,61.7,139.26,0.0,71.392,35.178055,126.908905,,155.13731749302656,,75.79355,,0 / 22,4052,2014-12-14 14:32:10:297
1.5883,-12.3562,4.6923,-1.7368,-9.141,-3.0979,3.7545,-5.4531,-0.8439,-10.57,40.09,27.64,294.43,61.7,139.26,0.0,71.392,35.178055,126.908905,,155.13731749302656,,75.79355,,0 / 22,4102,2014-12-14 14:32:10:347
-4.3124,-10.9385,0.1901,-1.2547,-9.4618,-2.2518,-2.2093,3.2857,0.2785,-5.76,39.34,29.26,250.91,68.77,150.72,0.0,72.861,35.178055,126.908905,,155.13731749302656,,75.79355,,0 / 22,4152,2014-12-14 14:32:10:397
-0.1167,-2.7579,0.4008,-1.1106,-9.4546,-2.3552,6.7426,7.6522,1.2889,8.24,34.53,31.2,195.89,74.6,154.75,0.0,72.861,35.178055,126.908905,,155.13731749302656,,75.79355,,0 / 22,4202,2014-12-14 14:32:10:447
3.6383,-4.9994,-0.5954,-0.3276,-9.594,-2.0047,1.5507,5.8376,2.0384,13.05,35.28,32.33,195.89,74.6,154.75,0.0,72.861,35.178055,126.908905,,155.13731749302656,,75.79355,,0 / 22,4252,2014-12-14 14:32:10:497
3.6,-8.9077,3.1596,-0.0321,-9.7145,-1.3407,4.1623,4.1968,10.1202,17.49,31.59,32.08,156.68,78.05,170.72,0.0,72.861,35.178055,126.908905,,155.13731749302656,,75.79355,,0 / 22,4302,2014-12-14 14:32:10:547
4.5004,-15.0767,-3.0477,2.4192,-9.3983,-1.4106,7.1337,-5.2536,-3.7424,22.68,38.21,27.76,87.1,83.63,-133.2,0.0,72.861,35.178055,126.908905,,155.13731749302656,,75.79355,,0 / 22,4352,2014-12-14 14:32:10:597
-4.9638,-16.3028,-1.6491,1.9423,-9.4866,-1.5496,-6.0721,-6.0147,-2.8213,18.99,42.28,27.01,87.1,83.63,-133.2,0.0,72.861,35.178055,126.908905,,155.13731749302656,,75.79355,,0 / 22,4402,2014-12-14 14:32:10:647
-5.4427,-39.2928,-8.5078,0.8376,-9.6174,-1.7249,-4.6825,-24.1766,-5.4438,8.24,52.65,22.26,75.54,75.32,-128.58,0.0,72.861,35.178055,126.908905,,155.13731749302656,,75.79355,,0 / 22,4452,2014-12-14 14:32:10:697
-16.8419,-27.9702,-8.4312,0.2306,-9.6252,-1.8637,-12.8876,-19.7266,-6.8421,-3.2,55.96,17.32,138.44,78.72,-154.1,0.0,71.823,35.178055,126.908905,,155.13731749302656,,75.79355,,0 / 22,4502,2014-12-14 14:32:10:747
-15.0794,-1.5701,-7.7223,-2.0376,-9.226,-2.6267,-13.2253,-0.0633,-4.4551,-14.26,55.21,13.2,138.44,78.72,-154.1,0.0,71.823,35.178055,126.908905,,155.13731749302656,,75.79355,,0 / 22,4552,2014-12-14 14:32:10:797
-13.7766,0.7098,-5.6915,-2.5478,-9.0287,-2.8569,-9.3494,14.6701,-2.3337,-27.2,50.78,3.76,319.65,70.18,142.2,0.0,71.823,35.178055,126.908905,,155.13731749302656,,75.79355,,0 / 22,4602,2014-12-14 14:32:10:847
-7.3011,-2.5663,-1.2085,-4.1023,-8.3924,-2.9849,-6.3999,13.0709,2.3893,-28.63,49.71,5.33,330.54,61.44,130.87,0.0,71.823,35.178055,126.908905,,155.13731749302656,,75.79355,,0 / 22,4652,2014-12-14 14:32:10:897
-2.933,-6.283,-1.3809,-4.2249,-8.3369,-2.9694,0.2647,6.1387,2.1049,-27.2,51.15,6.64,330.54,61.44,130.87,0.0,71.823,35.178055,126.908905,,155.13731749302656,,75.79355,,0 / 22,4702,2014-12-14 14:32:10:947
7.0676,-9.9806,3.7535,-3.6125,-8.76,-2.5265,9.6891,1.1302,6.705,-22.38,51.9,10.83,330.04,58.23,125.1,0.0,71.823,35.178055,126.908905,,155.13731749302656,,75.79355,,0 / 22,4752,2014-12-14 14:32:10:997
8.6961,-15.8238,6.2058,-2.8208,-9.0362,-2.5614,4.7791,0.3682,-2.0888,-21.26,48.96,16.33,319.27,63.29,124.97,0.0,69.698,35.178055,126.908905,,155.13731749302656,,75.79355,,0 / 22,4802,2014-12-14 14:32:11:047
0.573,-13.5057,4.2708,-1.6747,-9.5858,-1.2157,-1.3158,-0.6494,6.4742,-20.51,48.59,18.45,296.48,74.24,138.4,0.0,69.698,35.178055,126.908905,,155.13731749302656,,75.79355,,0 / 22,4852,2014-12-14 14:32:11:097
-2.6073,-6.0148,-1.3809,-1.8495,-9.5752,-1.0321,-2.3757,2.3941,3.1865,-20.2,50.46,18.45,296.48,74.24,138.4,0.0,69.698,35.178055,126.908905,,155.13731749302656,,75.79355,,0 / 22,4902,2014-12-14 14:32:11:147
1.7799,-11.8964,-0.787,-1.2665,-9.6686,-1.0416,3.7461,-1.6081,0.2962,-19.45,51.15,19.51,307.45,77.53,119.17,0.0,69.698,35.178055,126.908905,,155.13731749302656,,75.79355,,0 / 22,4952,2014-12-14 14:32:11:197
0.0748,-8.218,-1.8024,-0.908,-9.7,-1.1205,0.6577,2.0252,-0.8,-19.07,51.53,19.58,291.28,80.37,129.43,0.0,69.698,35.178055,126.908905,,155.13731749302656,,75.79355,,0 / 22,5030,2014-12-14 14:32:11:275
0.0748,-8.218,-1.8024,-0.908,-9.7,-1.1205,0.6577,2.0252,-0.8,-19.07,51.53,19.58,291.28,80.37,129.43,0.0,69.698,35.178055,126.908905,,155.13731749302656,,75.79355,,0 / 22,5052,2014-12-14 14:32:11:297
3.3701,-9.0035,0.6307,-0.2892,-9.7362,-1.1373,3.9241,0.9837,0.5361,-18.32,48.96,20.95,277.27,81.54,140.98,0.0,69.698,35.178055,126.908905,,155.13731749302656,,75.79355,,0 / 22,5102,2014-12-14 14:32:11:347
1.7608,-9.7698,2.2209,0.1306,-9.764,-0.9047,2.4549,0.7515,2.3579,-18.7,48.59,18.76,223.66,84.65,-171.79,0.0,65.388,35.178055,126.908905,,155.13731749302656,,75.79355,,0 / 22,5152,2014-12-14 14:32:11:397
0.1323,-9.31,-1.7641,0.1736,-9.7849,-0.6285,-0.5239,0.0976,-0.322,-20.88,50.78,17.83,218.39,86.19,-164.56,0.0,65.388,35.178055,126.908905,,155.13731749302656,,75.79355,,0 / 22,5202,2014-12-14 14:32:11:447
0.9944,-9.5782,-1.7449,0.2243,-9.7741,-0.7659,0.7116,0.4354,-0.8675,-20.88,51.15,18.7,218.39,86.19,-164.56,0.0,65.388,35.178055,126.908905,,155.13731749302656,,75.79355,,0 / 22,5252,2014-12-14 14:32:11:497
1.4542,-9.8273,1.1863,0.2641,-9.7874,-0.5549,0.7824,0.3057,1.7953,-21.26,49.71,16.95,216.95,85.84,-162.96,0.0,65.388,35.178055,126.908905,,155.13731749302656,,75.79355,,0 / 22,5302,2014-12-14 14:32:11:547
1.7225,-9.9039,-0.0973,0.64,-9.7813,-0.2949,0.9718,0.0171,0.2321,-19.82,50.84,18.08,175.61,86.59,-128.1,0.0,65.388,35.178055,126.908905,,155.13731749302656,,75.79355,,0 / 22,5352,2014-12-14 14:32:11:597
-0.27,-9.6932,0.7265,0.6556,-9.7815,-0.25,0.2178,0.0374,0.6347,-22.38,50.09,14.45,166.54,85.9,-110.87,0.0,65.388,35.178055,126.908905,,155.13731749302656,,75.79355,,0 / 22,5402,2014-12-14 14:32:11:647
-0.0401,-9.5016,0.9947,0.5296,-9.7914,-0.1326,-0.9869,0.5282,0.7921,-21.63,50.09,13.64,166.54,85.9,-110.87,0.0,65.388,35.178055,126.908905,,155.13731749302656,,75.79355,,0 / 22,5452,2014-12-14 14:32:11:697
1.55,-9.8081,0.7265,0.5787,-9.7896,-0.0098,0.7981,-0.0223,0.7189,-20.88,50.4,14.14,157.97,86.81,-104.06,0.0,52.943,35.178055,126.908905,,155.13731749302656,,75.79355,,0 / 22,5502,2014-12-14 14:32:11:747
1.6841,-9.3483,0.8031,0.9001,-9.7643,0.1348,0.8617,0.3056,0.677,-20.13,50.4,14.7,132.68,85.58,-86.15,0.0,52.943,35.178055,126.908905,,155.13731749302656,,75.79355,,0 / 22,5553,2014-12-14 14:32:11:798
1.5692,-9.425,0.8989,0.9959,-9.753,0.2399,0.5964,0.2435,0.6677,-20.13,50.78,15.14,132.68,85.58,-86.15,0.0,52.943,35.178055,126.908905,,155.13731749302656,,75.79355,,0 / 22,5602,2014-12-14 14:32:11:847
1.3393,-9.6357,0.5349,1.1023,-9.7379,0.3574,0.2209,0.0132,0.239,-19.45,51.15,14.01,120.44,84.0,-76.46,0.0,52.943,35.178055,126.908905,,155.13731749302656,,75.79355,,0 / 22,5652,2014-12-14 14:32:11:897
1.2627,-9.5016,0.6307,1.1124,-9.7361,0.3752,0.1321,0.095,0.2434,-18.32,51.9,14.14,109.2,83.21,-72.03,0.0,52.943,35.178055,126.908905,,155.13731749302656,,75.79355,,0 / 22,5702,2014-12-14 14:32:11:947
1.1669,-9.4441,0.7074,1.1278,-9.7316,0.4415,0.0656,0.0187,0.5116,-18.7,50.78,15.01,109.2,83.21,-72.03,0.0,52.943,35.178055,126.908905,,155.13731749302656,,75.79355,,0 / 22,5752,2014-12-14 14:32:11:997
1.6267,-9.5016,0.9373,1.1736,-9.7224,0.5181,0.318,0.0858,0.3412,-19.07,51.53,17.83,104.97,82.91,-68.62,0.0,52.943,35.178055,126.908905,,155.13731749302656,,75.79355,,0 / 22,5802,2014-12-14 14:32:12:047
1.0711,-9.6166,1.0714,1.2276,-9.7093,0.6267,-0.1094,-0.0215,0.3811,-17.95,51.53,18.26,95.57,82.48,-66.18,0.0,42.425,35.178055,126.908905,,155.13731749302656,,75.79355,,0 / 22,5852,2014-12-14 14:32:12:097
0.7837,-9.3867,0.6499,1.2093,-9.7105,0.6431,-0.2599,0.047,0.2217,-18.7,51.53,18.2,95.57,82.48,-66.18,0.0,42.425,35.178055,126.908905,,155.13731749302656,,75.79355,,0 / 22,5902,2014-12-14 14:32:12:147
1.0711,-9.5591,0.7457,1.1664,-9.7147,0.6596,-0.1713,0.1194,0.1083,-19.07,52.65,18.08,92.26,81.97,-62.0,0.0,42.425,35.178055,126.908905,,155.13731749302656,,75.79355,,0 / 22,5952,2014-12-14 14:32:12:197
1.2435,-9.5591,0.8415,1.1768,-9.7122,0.6777,0.092,-0.0394,0.1353,-17.95,53.03,18.64,87.78,82.15,-60.51,0.0,42.425,35.178055,126.908905,,155.13731749302656,,75.79355,,0 / 22,6003,2014-12-14 14:32:12:248
1.3585,-9.5016,0.8798,1.1772,-9.7102,0.7049,-0.0292,0.0826,0.1765,-17.57,53.03,19.64,86.14,82.04,-60.06,0.0,42.425,35.178055,126.908905,,155.13731749302656,,75.79355,,0 / 22,6052,2014-12-14 14:32:12:297
1.186,-9.4441,0.7457,1.2129,-9.7033,0.7385,0.1422,0.0615,0.1001,-16.82,52.65,19.14,83.18,81.75,-58.7,0.0,42.425,35.178055,126.908905,,155.13731749302656,,75.79355,,0 / 22,6102,2014-12-14 14:32:12:347
1.665,-9.1376,-1.0744,1.2095,-9.706,0.7072,-0.026,0.0593,-0.4766,-17.95,53.03,18.7,83.18,81.75,-58.7,0.0,55.533,35.178055,126.908905,,155.13731749302656,,75.79355,,0 / 22,6152,2014-12-14 14:32:12:397
1.2818,-9.6932,0.8798,1.1772,-9.7188,0.5744,-0.9355,0.0235,0.1919,-15.76,51.9,20.51,81.58,81.79,-59.69,0.0,55.533,35.178055,126.908905,,155.13731749302656,,75.79355,,0 / 22,6202,2014-12-14 14:32:12:447
1.3201,-10.3446,0.8415,1.1613,-9.7173,0.6298,0.1703,-0.7365,0.277,-14.63,52.65,22.14,82.9,82.32,-63.99,0.0,55.533,35.178055,126.908905,,155.13731749302656,,75.79355,,0 / 22,6252,2014-12-14 14:32:12:497
1.0136,-9.8081,1.1288,1.1535,-9.7149,0.6789,-0.0608,-0.2294,0.3863,-14.63,51.53,21.76,80.71,82.26,-61.53,0.0,55.533,35.178055,126.908905,,155.13731749302656,,75.79355,,0 / 22,6302,2014-12-14 14:32:12:547
1.2052,-9.425,1.1671,1.1449,-9.7121,0.7317,-0.0188,0.1667,0.3184,-15.76,51.53,22.95,80.71,82.26,-61.53,0.0,55.533,35.178055,126.908905,,155.13731749302656,,75.79355,,0 / 22,6352,2014-12-14 14:32:12:597
0.6304,-9.674,-0.0015,1.1985,-9.7112,0.6533,0.3497,0.1467,-0.8931,-16.45,53.4,18.89,78.84,82.04,-57.42,0.0,55.533,35.178055,126.908905,,155.13731749302656,,75.79355,,0 / 22,6402,2014-12-14 14:32:12:647