ACCELEROMETER X (m/s²),ACCELEROMETER Y (m/s²),ACCELEROMETER Z (m/s²),GRAVITY X (m/s²),GRAVITY Y (m/s²),GRAVITY Z (m/s²),LINEAR ACCELERATION X (m/s²),LINEAR ACCELERATION Y (m/s²),LINEAR ACCELERATION Z (m/s²),GYROSCOPE X (rad/s),GYROSCOPE Y (rad/s),GYROSCOPE Z (rad/s),LIGHT (lux),MAGNETIC FIELD X (μT),MAGNETIC FIELD Y (μT),MAGNETIC FIELD Z (μT),ORIENTATION X (°),ORIENTATION Y (°),ORIENTATION Z (°),PROXIMITY (i),SOUND LEVEL (dB),LOCATION Latitude : ,LOCATION Longitude : ,LOCATION Altitude ( m),LOCATION Altitude-google ( m),LOCATION Speed ( Kmh),LOCATION Accuracy ( m),LOCATION ORIENTATION (°),Satellites in range,Time since start in ms ,YYYY-MO-DD HH-MI-SS_SSS
-0.52972,-8.73704,3.73855,0.30047,-9.46667,2.54249,0.46672,-0.73442,1.16029,-0.32912,-0.3159,0.05593,61.0,-13.86,31.26,1.38,56.792,74.629,-6.99,,20.784,,,,NaN,,,,0 / 0,3,2014-12-14 13:31:51:723
-0.52972,-8.73704,3.73855,0.30047,-9.46667,2.54249,0.46672,-0.73442,1.16029,-0.32912,-0.3159,0.05593,61.0,-13.86,31.26,1.38,56.792,74.629,-6.99,,20.784,,,,NaN,,,,0 / 0,54,2014-12-14 13:31:51:774
1.50535,-9.55346,2.95804,0.35449,-9.49525,2.42637,1.15086,-0.05821,0.53166,-0.35255,-0.40645,-0.00799,61.0,-13.44,31.44,1.26,62.092,75.52,-8.312,,20.784,,,,NaN,,,,0 / 0,104,2014-12-14 13:31:51:824
0.91638,-9.81922,3.51828,0.53376,-9.56214,2.11019,0.38262,-0.25708,1.40809,-0.58904,0.23591,-0.03888,61.0,-13.5,31.5,2.28,62.092,75.52,-8.312,,14.4485,,,,NaN,,,,0 / 0,154,2014-12-14 13:31:51:874
-0.33579,-8.38749,1.77051,0.52149,-9.62424,1.80927,-0.85727,1.23675,-0.03876,-0.6945,0.09742,-0.05592,61.0,-13.8,31.44,3.54,67.878,78.93,-16.079,,14.4485,,,,NaN,,,,0 / 0,204,2014-12-14 13:31:51:924
-0.17538,-10.16877,-0.30047,0.56249,-9.72046,1.16957,-0.73786,-0.44831,-1.47004,-0.83192,-0.19126,-0.04314,61.0,-13.86,30.66,4.2,83.397,82.395,-25.685,,14.4485,,,,NaN,,,,0 / 0,254,2014-12-14 13:31:51:974
0.43515,-9.44812,-0.60454,0.56952,-9.75607,0.81717,-0.13437,0.30795,-1.42171,-0.89051,-0.17635,-0.08788,61.0,-13.86,30.3,4.92,83.397,82.395,-25.685,,14.4485,,,,NaN,,,,0 / 0,303,2014-12-14 13:31:52:023
-0.62788,-9.88865,-0.09457,0.577,-9.78346,0.34985,-1.20488,-0.1052,-0.44442,-1.16961,0.01753,-0.09108,61.0,-13.8,30.48,5.82,118.673,86.054,-58.77,,14.4485,,,,NaN,,,,0 / 0,353,2014-12-14 13:31:52:073
1.22044,-9.15363,0.71467,0.5571,-9.78375,-0.37484,0.66334,0.63012,1.08951,-1.22714,0.22526,-0.02503,61.0,-13.98,29.52,8.16,184.813,86.074,-123.934,,14.4485,,,,NaN,,,,0 / 0,404,2014-12-14 13:31:52:124
0.69851,-9.23982,0.67397,0.62294,-9.75398,-0.80161,0.07557,0.51415,1.47558,-1.29425,0.36587,-0.06338,61.0,-13.38,28.5,9.66,184.813,86.074,-123.934,,14.4485,,,,NaN,,,,0 / 0,454,2014-12-14 13:31:52:174
-1.0756,-9.72585,-0.39863,0.59855,-9.71582,-1.19007,-1.67415,-0.01003,0.79143,-1.29638,0.64284,0.0751,61.0,-12.42,27.78,10.26,210.938,82.193,-153.3,,14.4485,,,,NaN,,,,0 / 0,504,2014-12-14 13:31:52:224
3.45663,-9.51276,-2.08415,0.81253,-9.56753,-1.99347,2.6441,0.05477,-0.09068,-1.18879,0.91874,-0.21252,61.0,-13.08,27.48,11.64,216.431,79.87,-159.488,,41.0075,,,,NaN,,,,0 / 0,554,2014-12-14 13:31:52:274
-0.72844,-10.43453,-3.09211,1.02876,-9.44453,-2.43191,-1.75719,-0.99,-0.6602,-1.49665,1.0274,-0.5076,61.0,-13.62,27.06,12.3,216.431,79.87,-159.488,,41.0075,,,,NaN,,,,0 / 0,604,2014-12-14 13:31:52:324
0.01616,-13.12322,1.32998,1.11869,-9.34502,-2.75528,-3.27646,-6.72786,6.67339,-1.46256,0.6503,-0.37444,61.0,-14.04,26.64,13.2,219.452,74.38,-157.07,,41.0075,,,,NaN,,,,0 / 0,653,2014-12-14 13:31:52:373
-1.96863,-13.69783,8.18937,1.29975,-9.42732,-2.36816,-3.26838,-4.27051,10.55753,-0.16294,0.7973,-0.33396,61.0,-16.02,24.42,15.36,214.294,72.621,-156.451,,41.0075,,,,NaN,,,,0 / 0,704,2014-12-14 13:31:52:424
-6.16327,-12.13441,6.13514,1.19141,-9.56319,-1.81585,-7.35469,-2.57122,7.95099,1.28902,1.11369,-0.0474,61.0,-17.76,24.0,15.84,199.866,77.205,-146.73,,41.0075,,,,NaN,,,,0 / 0,754,2014-12-14 13:31:52:474
-2.90955,-13.0083,-0.02035,1.03175,-9.69547,-1.05076,-3.9413,-3.31283,1.0304,2.2616,-0.12522,0.51719,61.0,-17.88,23.64,15.66,199.866,77.205,-146.73,,41.0075,,,,NaN,,,,0 / 0,804,2014-12-14 13:31:52:524
1.67534,-14.64832,-1.92374,0.50203,-9.74156,1.0114,1.17331,-4.90677,-2.93514,2.82513,-0.78248,0.58856,61.0,-19.08,25.56,14.22,146.414,85.551,-98.973,,41.0075,,,,NaN,,,,0 / 0,853,2014-12-14 13:31:52:573
1.51254,-13.36743,-2.47201,0.50203,-9.74156,1.0114,1.17331,-4.90677,-2.93514,2.82513,-0.78248,0.58856,61.0,-19.08,25.56,14.22,146.414,85.551,-98.973,,41.0075,,,,NaN,,,,0 / 0,903,2014-12-14 13:31:52:623
1.92195,-9.98442,-2.92691,-0.12644,-9.15633,3.50975,1.00452,-0.86491,-7.03387,2.89437,-0.7729,1.07006,61.0,-15.54,33.9,4.98,51.821,77.084,-6.739,,52.8238,,,,NaN,,,,0 / 0,954,2014-12-14 13:31:52:674
-1.41797,-6.48649,-2.91733,-0.24989,-8.61928,4.67094,-1.16807,2.13278,-7.58827,2.65895,-2.29516,0.81546,61.0,-13.62,36.66,-0.6,41.515,64.443,3.604,,52.8238,,,,NaN,,,,0 / 0,1003,2014-12-14 13:31:52:723
0.6195,-4.77464,-4.45202,0.00344,-8.16976,5.42466,0.61606,3.39513,-9.87668,2.02299,-2.38038,0.52891,71.0,-12.3,37.2,-6.78,41.515,64.443,3.604,,52.8238,,,,NaN,,,,0 / 0,1054,2014-12-14 13:31:52:774
2.20207,-3.39558,-4.06416,0.36497,-7.91688,5.77586,1.8371,4.5213,-9.84002,0.99927,-1.54202,0.32864,71.0,-10.86,36.24,-12.42,42.854,53.833,-3.616,,52.8238,,,,NaN,,,,0 / 0,1104,2014-12-14 13:31:52:824
0.7847,-3.137,-1.49997,0.52777,-7.93588,5.73696,0.25693,4.79888,-7.23692,0.02561,-0.75266,0.4831,71.0,-10.56,35.34,-15.48,42.854,53.833,-3.616,,52.8238,,,,NaN,,,,0 / 0,1154,2014-12-14 13:31:52:874
-0.01975,-12.3044,15.92743,0.58224,-8.16333,5.40282,-0.60199,-4.14107,10.52461,0.00964,-1.13402,0.08043,71.0,-12.06,29.46,-18.84,70.894,55.298,-5.228,,52.8238,,,,NaN,,,,0 / 0,1203,2014-12-14 13:31:52:923
-0.85533,-12.42411,10.55005,0.97848,-8.04856,5.51669,-1.83381,-4.37555,5.03336,0.65306,-2.8246,0.31372,71.0,-12.66,28.74,-18.42,89.056,55.157,-10.058,,52.8238,,,,NaN,,,,0 / 0,1254,2014-12-14 13:31:52:974
5.91787,-2.84252,-0.413,1.51239,-7.97838,5.49799,-0.10564,-2.14401,0.75896,0.50179,-2.03204,0.34355,87.0,-12.06,28.8,-18.24,89.056,55.157,-10.058,,52.8238,,,,NaN,,,,0 / 0,1304,2014-12-14 13:31:53:024
2.6426,-19.51813,4.46878,1.86673,-8.21466,5.02049,-2.93155,-11.21683,11.72306,-0.63059,-0.25731,0.16565,87.0,-12.12,27.48,-16.44,93.605,54.446,-15.381,,51.7502,,,,NaN,,,,0 / 0,1353,2014-12-14 13:31:53:073
7.62015,2.25474,-12.12543,1.8995,-8.28154,4.89674,5.72065,10.53628,-17.02217,0.82776,0.43511,0.42451,87.0,-12.3,25.5,-15.78,113.397,57.617,-21.202,,51.7502,,,,NaN,,,,0 / 0,1404,2014-12-14 13:31:53:124
-8.73225,-19.51813,5.53659,1.42141,-8.86199,3.95163,-10.15366,-10.65614,1.58496,-3.16805,2.88629,0.60348,87.0,-12.24,24.36,-13.44,122.835,64.645,-19.784,,51.7502,,,,NaN,,,,0 / 0,1454,2014-12-14 13:31:53:174
-1.29586,-11.4808,1.73939,1.22149,-9.10201,3.43987,-2.51735,-2.37879,-1.70048,-1.24312,-1.08502,0.14328,105.0,-11.46,24.9,-11.52,122.835,64.645,-19.784,,51.7502,,,,NaN,,,,0 / 0,1504,2014-12-14 13:31:53:224
2.724,-7.19996,-1.96444,1.23346,-9.45365,2.29739,1.49054,2.25369,-4.26183,-2.60665,1.78161,0.09854,105.0,-10.92,24.96,-9.72,128.378,71.262,-23.583,,51.7502,,,,NaN,,,,0 / 0,1553,2014-12-14 13:31:53:273
0.47824,-10.05146,0.98761,1.08772,-9.63307,1.48096,-0.60947,-0.41839,-0.49336,-2.60559,2.294,0.21359,105.0,-10.08,25.14,-7.08,149.591,79.201,-36.296,,51.7502,,,,NaN,,,,0 / 0,1604,2014-12-14 13:31:53:324
0.21727,-10.05625,2.53426,0.9294,-9.73452,0.73876,-0.71213,-0.32172,1.7955,-2.1177,2.27802,0.11452,129.0,-9.96,25.2,-5.88,149.591,79.201,-36.296,,51.7502,,,,NaN,,,,0 / 0,1654,2014-12-14 13:31:53:374
-2.09552,-10.06822,-0.21668,0.82046,-9.75996,-0.49036,-2.81468,-0.28012,0.23194,-1.54885,0.36161,-0.10066,129.0,-10.56,25.08,-1.98,190.039,84.678,-76.044,,51.7502,,,,NaN,,,,0 / 0,1704,2014-12-14 13:31:53:424
-0.34058,-9.25419,-0.76255,0.77752,-9.73273,-0.91773,-0.70823,0.46926,0.24047,-1.50943,0.03351,-0.07829,129.0,-11.22,24.3,-0.36,243.891,82.955,-139.728,,56.1948,,,,NaN,,,,0 / 0,1753,2014-12-14 13:31:53:473
2.96342,-11.7681,4.34428,0.949,-9.61257,-1.69375,2.01442,-2.15553,6.03803,-1.49132,0.9507,-0.11132,57.0,-11.16,23.94,2.1,245.07,81.197,-147.608,,56.1948,,,,NaN,,,,0 / 0,1804,2014-12-14 13:31:53:524
-0.84096,-11.35869,0.87508,1.09849,-9.57651,-1.80418,-1.93945,-1.78218,2.67926,-0.88732,1.15949,-0.46711,57.0,-10.98,23.64,3.3,245.07,81.197,-147.608,,56.1948,,,,NaN,,,,0 / 0,1854,2014-12-14 13:31:53:574
-1.42754,-13.8319,7.06409,1.02202,-9.58728,-1.79206,-2.44957,-4.24462,8.85615,-0.31847,0.77174,0.10706,57.0,-11.22,22.74,6.0,238.024,76.927,-149.941,,56.1948,,,,NaN,,,,0 / 0,1904,2014-12-14 13:31:53:624
0.23403,-15.11519,4.50709,0.94631,-9.74754,-0.51131,-0.71227,-5.36765,5.0184,3.27467,0.90063,0.30946,57.0,-12.06,21.72,8.64,216.733,77.856,-150.304,,56.1948,,,,NaN,,,,0 / 0,1954,2014-12-14 13:31:53:674
1.25636,-15.50066,-8.5485,0.77602,-9.75203,0.68459,0.48034,-5.74863,-9.23309,3.49944,1.21915,0.59921,57.0,-13.02,20.52,9.84,93.199,83.943,-48.582,,56.1948,,,,NaN,,,,0 / 0,2004,2014-12-14 13:31:53:724
-1.06602,-15.59643,2.62524,0.17178,-9.55436,2.20401,-1.2378,-6.04207,0.42123,2.4182,-1.00619,0.97632,57.0,-13.44,21.06,10.08,57.61,80.215,-15.497,,56.1948,,,,NaN,,,,0 / 0,2054,2014-12-14 13:31:53:774
-1.43473,-12.92689,-2.38103,-0.07467,-9.28606,3.15197,-1.36006,-3.64083,-5.533,3.13512,-1.14467,1.11374,57.0,-14.04,24.3,8.04,57.61,80.215,-15.497,,50.8021,,,,NaN,,,,0 / 0,2104,2014-12-14 13:31:53:824
1.98419,-5.4929,-4.33231,-0.09143,-8.63394,4.64954,2.07562,3.14104,-8.98185,2.61101,-3.02274,0.37444,63.0,-14.04,26.7,6.0,38.776,66.376,3.089,,50.8021,,,,NaN,,,,0 / 0,2153,2014-12-14 13:31:53:873
1.18214,-2.72041,-6.03459,0.27099,-8.27661,5.25303,0.91114,5.55619,-11.28761,2.14762,-2.84058,0.34249,63.0,-12.6,29.52,-0.12,39.902,57.563,-2.953,,50.8021,,,,NaN,,,,0 / 0,2204,2014-12-14 13:31:53:924
1.80942,-3.64218,-5.13915,1.01005,-7.82694,5.8215,0.79936,4.18477,-10.96065,0.03733,-1.30659,0.49056,63.0,-12.3,29.88,-6.18,42.656,52.951,-9.843,,50.8021,,,,NaN,,,,0 / 0,2253,2014-12-14 13:31:53:973
1.53408,-4.73872,-0.27892,1.0925,-8.21346,5.2457,0.44158,3.47473,-5.52462,-0.75736,-0.52789,0.63756,81.0,-12.66,29.34,-8.04,42.656,52.951,-9.843,,50.8021,,,,NaN,,,,0 / 0,2304,2014-12-14 13:31:54:024
3.62901,-11.0666,15.64252,0.91025,-8.47443,4.85035,2.71877,-2.59217,10.79216,-0.53258,-1.11698,-0.03994,81.0,-13.02,28.56,-9.54,60.169,56.881,-11.765,,50.8021,,,,NaN,,,,0 / 0,2354,2014-12-14 13:31:54:074
2.07757,-12.08653,8.41682,1.33492,-8.47278,4.75399,0.74265,-3.61375,3.66283,0.74467,-2.26853,0.23916,81.0,-13.86,28.14,-8.94,75.227,61.063,-13.442,,50.8021,,,,NaN,,,,0 / 0,2404,2014-12-14 13:31:54:124
7.79253,-7.26939,5.1607,1.47064,-8.32763,4.96557,6.32189,1.05824,0.19513,0.58488,-0.97636,-0.10493,109.0,-13.38,27.84,-8.22,75.227,61.063,-13.442,,50.8021,,,,NaN,,,,0 / 0,2453,2014-12-14 13:31:54:173
-1.10672,-10.13286,-10.0329,1.82019,-8.37911,4.75907,-4.85185,9.06325,-20.29146,-0.12565,0.23804,0.66952,109.0,-13.2,27.66,-5.58,60.399,58.123,-16.498,,51.7838,,,,NaN,,,,0 / 0,2504,2014-12-14 13:31:54:224
-5.01406,-17.89486,-2.57018,1.42889,-8.86543,3.94116,-6.94303,12.8627,-19.08882,-3.47484,0.79517,1.04663,109.0,-13.44,27.24,-5.4,60.77,59.402,-19.9,,51.7838,,,,NaN,,,,0 / 0,2554,2014-12-14 13:31:54:274
4.2539,-17.12153,4.28442,1.36006,-9.15528,3.2407,1.6327,-0.36287,-4.30747,-1.95791,-0.28501,-0.21039,109.0,-13.86,26.34,-4.98,60.77,59.402,-19.9,,51.7838,,,,NaN,,,,0 / 0,2603,2014-12-14 13:31:54:323
2.08236,-7.07786,-5.24929,1.4042,-9.55242,1.71754,0.12899,1.16074,-2.41859,-2.73342,1.11156,0.39468,109.0,-15.36,27.6,-2.64,84.095,68.999,-22.767,,51.7838,,,,NaN,,,,0 / 0,2653,2014-12-14 13:31:54:373
-1.24798,-9.9916,1.92853,1.04492,-9.74605,0.30855,-1.67519,-0.13512,1.56341,-2.86125,2.23221,0.41812,171.0,-15.0,27.66,0.9,132.543,81.001,-51.563,,51.7838,,,,NaN,,,,0 / 0,2704,2014-12-14 13:31:54:424
-1.30783,-9.05307,1.53827,0.9894,-9.75667,-0.03546,-1.02966,0.56907,3.03974,-1.88867,1.95311,0.22531,171.0,-15.06,27.06,2.88,168.682,84.206,-92.053,,51.7838,,,,NaN,,,,0 / 0,2754,2014-12-14 13:31:54:474
-1.20488,-9.13687,-1.21027,0.84919,-9.73527,-0.82226,-0.98222,-0.63761,3.46112,-1.31662,0.95603,0.10706,171.0,-15.18,26.22,4.62,168.682,84.206,-92.053,,51.7838,,,,NaN,,,,0 / 0,2804,2014-12-14 13:31:54:524
2.27629,-11.34672,0.17837,0.83109,-9.64145,-1.58855,-0.13767,-0.54992,0.60633,-1.52328,1.06894,0.01865,171.0,-15.96,25.08,7.38,203.355,83.077,-134.077,,54.0789,,,,NaN,,,,0 / 0,2854,2014-12-14 13:31:54:574
1.97941,-11.75134,4.93086,0.95155,-9.5807,-1.86478,1.99826,-2.36233,5.25198,-1.65963,0.90916,-0.08042,95.0,-15.96,25.08,7.38,203.355,83.077,-134.077,,54.0789,,,,NaN,,,,0 / 0,2903,2014-12-14 13:31:54:623
-4.31734,-11.75373,1.64362,1.04327,-9.56259,-1.90788,-5.36062,-2.19114,3.5515,-0.33764,0.81648,-0.16245,95.0,-17.94,22.92,9.66,230.798,77.501,-152.774,,54.0789,,,,NaN,,,,0 / 0,2954,2014-12-14 13:31:54:674
0.15742,-16.45116,12.04403,0.86446,-9.66614,-1.41033,-1.3418,-6.89306,14.05187,0.06609,0.56188,0.23916,95.0,-18.3,22.26,10.08,222.858,78.041,-152.537,,54.0789,,,,NaN,,,,0 / 0,3004,2014-12-14 13:31:54:724
0.11672,-14.99309,7.27718,0.87927,-9.73632,-0.77557,-0.76255,-5.25677,8.05275,3.32261,1.18825,0.08895,57.0,-19.92,20.52,11.28,194.254,83.134,-131.414,,54.0789,,,,NaN,,,,0 / 0,3053,2014-12-14 13:31:54:773
-0.7428,-15.64192,-9.44393,0.72874,-9.68514,1.35572,-1.47154,-5.95677,-10.79964,2.80063,1.42474,0.44369,57.0,-22.56,19.92,11.88,135.46,84.802,-75.945,,54.0789,,,,NaN,,,,0 / 0,3104,2014-12-14 13:31:54:824
0.66738,-15.64431,-1.74418,0.47555,-9.60524,1.91985,0.19184,-6.03907,-3.66403,1.9335,0.12086,0.81653,57.0,-24.36,20.46,11.34,135.46,84.802,-75.945,,54.0789,,,,NaN,,,,0 / 0,3154,2014-12-14 13:31:54:874
-0.73322,-11.02829,-3.78882,0.09008,-9.11966,3.60492,-0.82331,-1.90863,-7.39374,2.89011,-1.6805,1.11054,57.0,-27.9,23.22,5.34,64.319,74.352,-5.916,,50.486,,,,NaN,,,,0 / 0,3203,2014-12-14 13:31:54:923
2.50374,-6.03878,-3.48715,0.02948,-8.74722,4.43376,2.47426,2.70844,-7.92092,2.72286,-1.87545,0.87938,57.0,-28.86,24.78,2.52,64.556,63.12,-0.381,,50.486,,,,NaN,,,,0 / 0,3254,2014-12-14 13:31:54:974
1.7735,-3.65415,-5.75925,0.45639,-8.0945,5.51744,1.31711,4.44035,-11.27669,1.72791,-2.01073,0.36805,77.0,-28.44,30.12,-1.32,62.947,55.63,-4.729,,50.486,,,,NaN,,,,0 / 0,3303,2014-12-14 13:31:55:023
2.80541,-3.43867,-5.29717,0.74864,-7.93139,5.7187,2.05677,4.49272,-11.01587,0.94387,-1.68263,0.21252,77.0,-28.56,32.34,-3.6,62.947,55.63,-4.729,,50.486,,,,NaN,,,,0 / 0,3354,2014-12-14 13:31:55:074
0.4543,-4.89913,-1.17675,1.04836,-8.19251,5.2873,-0.59406,3.29337,-6.46405,-0.8756,-0.18274,0.39255,77.0,-28.2,33.9,-6.06,67.25,54.46,-10.066,,50.486,,,,NaN,,,,0 / 0,3404,2014-12-14 13:31:55:124
0.83737,-9.46727,7.04733,0.85009,-8.43866,4.92323,-0.01272,-1.02861,2.12411,-1.64898,0.66414,0.54063,105.0,-28.2,34.68,-6.48,71.98,59.372,-9.797,,50.486,,,,NaN,,,,0 / 0,3454,2014-12-14 13:31:55:174
-1.2815,-16.52059,18.7454,0.76959,-8.56017,4.72241,-2.05108,-7.96042,14.02299,0.28234,-1.82325,0.20081,105.0,-28.26,36.18,-6.18,71.98,59.372,-9.797,,50.486,,,,NaN,,,,0 / 0,3504,2014-12-14 13:31:55:224
0.61471,-9.87429,8.51498,0.97504,-8.42385,4.92517,-0.36033,-1.45044,3.58981,0.71697,-0.98062,0.2807,105.0,-28.08,37.02,-5.76,70.689,59.204,-11.198,,50.486,,,,NaN,,,,0 / 0,3554,2014-12-14 13:31:55:274
4.16531,-19.51813,8.03614,1.37113,-8.46305,4.76102,2.79418,-11.05508,3.27512,-0.34829,0.55229,0.89536,105.0,-26.88,38.76,-2.94,66.794,59.654,-16.066,,52.071,,,,NaN,,,,0 / 0,3604,2014-12-14 13:31:55:324
6.35361,-7.31728,-3.81755,1.38894,-8.49867,4.69189,4.96468,1.18139,-8.50944,0.49007,-0.21789,0.40108,137.0,-26.82,39.06,-3.0,66.794,59.654,-16.066,,52.071,,,,NaN,,,,0 / 0,3654,2014-12-14 13:31:55:374
-4.81294,-18.89564,3.1376,1.18034,-9.08001,3.51155,-5.99328,-9.81563,-0.37394,-2.12942,1.28519,0.15926,137.0,-26.04,40.02,-1.92,66.621,60.069,-16.49,,52.071,,,,NaN,,,,0 / 0,3703,2014-12-14 13:31:55:423
-0.72844,-9.0818,-2.1057,0.9707,-9.35983,2.76096,-1.69913,0.27803,-4.86666,-1.84499,0.02499,0.20294,137.0,-25.32,40.26,-0.78,82.351,72.637,-19.371,,52.071,,,,NaN,,,,0 / 0,3754,2014-12-14 13:31:55:474
1.12228,-8.22468,-0.68115,0.86281,-9.52802,2.15493,0.25947,1.30334,-2.83608,-2.18694,0.85802,0.39468,203.0,-24.96,40.56,-0.54,82.351,72.637,-19.371,,52.071,,,,NaN,,,,0 / 0,3804,2014-12-14 13:31:55:524
-0.96786,-8.93815,1.90938,0.48557,-9.77283,0.65481,-1.45343,0.83468,1.25456,-2.14326,2.25671,0.07404,203.0,-23.76,40.86,2.76,94.652,81.055,-24.143,,52.071,,,,NaN,,,,0 / 0,3854,2014-12-14 13:31:55:574
-1.52331,-10.88464,4.89255,0.39025,-9.79243,-0.35838,-1.91357,-1.0922,5.25093,-1.13339,1.19891,0.03356,203.0,-23.52,39.06,8.82,153.635,87.41,-77.878,,52.071,,,,NaN,,,,0 / 0,3904,2014-12-14 13:31:55:624
-0.44353,-9.0004,-1.76572,0.35449,-9.76146,-0.87164,-0.68145,0.69611,0.8875,-1.03965,0.78026,-0.04847,133.0,-23.76,38.94,9.48,220.724,86.193,-147.435,,53.9233,,,,NaN,,,,0 / 0,3954,2014-12-14 13:31:55:674
0.46627,-10.42256,-0.50159,0.38382,-9.71417,-1.28868,0.91369,-0.83677,2.17483,-1.52328,1.0029,-0.04634,133.0,-24.18,38.52,10.74,220.724,86.193,-147.435,,53.9233,,,,NaN,,,,0 / 0,4004,2014-12-14 13:31:55:724
-4.46578,-13.20941,2.48877,0.5372,-9.61526,-1.85177,-5.54811,-3.71445,4.30732,-0.80529,0.86335,-0.28069,133.0,-25.86,36.66,11.58,242.671,80.209,-164.128,,53.9233,,,,NaN,,,,0 / 0,4054,2014-12-14 13:31:55:774
1.41198,-14.6172,7.25323,0.39893,-9.66659,-1.60322,-1.95083,-2.22721,4.96453,-0.26094,0.72273,0.20081,63.0,-25.8,36.42,12.12,245.012,79.028,-166.66,,53.9233,,,,NaN,,,,0 / 0,4104,2014-12-14 13:31:55:824
-0.64943,-15.2756,10.72962,0.41779,-9.71043,-1.30529,-1.06318,-5.52597,11.70151,2.33404,1.06788,0.1763,63.0,-25.86,35.22,13.62,231.745,81.966,-162.252,,53.9233,,,,NaN,,,,0 / 0,4154,2014-12-14 13:31:55:874
4.22996,-14.59565,1.33716,0.38247,-9.79917,0.03472,3.84748,-4.79648,1.30245,3.57081,1.0764,0.1763,63.0,-26.22,34.86,14.22,231.745,81.966,-162.252,,53.9233,,,,NaN,,,,0 / 0,4204,2014-12-14 13:31:55:924
2.43191,-14.84944,-9.827,0.29134,-9.70909,1.34943,2.14057,-5.14035,-11.17643,3.20649,2.44633,0.34249,63.0,-27.06,34.56,13.92,66.379,81.907,-12.183,,53.9233,,,,NaN,,,,0 / 0,4253,2014-12-14 13:31:55:973
-2.1482,-14.39214,0.70509,-0.27548,-9.40981,2.74809,-1.87271,-4.98233,-2.043,3.01262,-0.48102,0.97312,63.0,-26.04,36.24,7.44,52.507,73.643,5.724,,53.9233,,,,NaN,,,,0 / 0,4304,2014-12-14 13:31:56:024
0.88047,-7.60937,-3.70742,-0.46343,-8.78358,4.33665,1.3439,1.17421,-8.04407,2.95509,-1.96599,0.79629,79.0,-25.08,36.6,0.42,52.507,73.643,5.724,,51.7439,,,,NaN,,,,0 / 0,4354,2014-12-14 13:31:56:074
2.30981,-4.54719,-4.73693,-0.2478,-8.41756,5.02528,1.78817,4.85454,-10.64133,2.3692,-2.35801,0.36166,79.0,-22.62,36.24,-8.28,60.431,63.594,6.1,,51.7439,,,,NaN,,,,0 / 0,4403,2014-12-14 13:31:56:123
1.23002,-2.57915,-5.30435,0.41225,-7.84385,5.87148,0.50548,5.30046,-11.14606,1.54468,-1.87332,0.3084,79.0,-22.32,34.92,-10.98,63.716,54.982,-0.969,,51.7439,,,,NaN,,,,0 / 0,4453,2014-12-14 13:31:56:173
1.21326,-3.09391,-4.13359,0.56728,-7.90625,5.77407,0.64599,4.81235,-9.90766,-0.06706,-1.19368,0.42451,79.0,-22.14,33.0,-12.72,63.716,54.982,-0.969,,51.7439,,,,NaN,,,,0 / 0,4504,2014-12-14 13:31:56:224
2.47022,-7.53994,3.91332,0.52358,-8.41248,5.01271,1.94664,0.87254,-1.09939,-1.83221,0.56401,0.49908,101.0,-23.7,30.84,-13.38,72.809,53.728,-5.611,,51.7439,,,,NaN,,,,0 / 0,4553,2014-12-14 13:31:56:273
0.41599,-18.90761,19.82459,0.54154,-8.65594,4.57726,-0.12555,-10.25167,15.24732,0.03946,-1.83816,-0.09001,101.0,-23.76,30.24,-13.56,91.705,61.965,-6.747,,51.7439,,,,NaN,,,,0 / 0,4604,2014-12-14 13:31:56:324
4.05757,-5.56472,5.70897,1.03175,-8.38,4.98817,3.02582,2.81528,0.7208,0.80219,-0.89327,0.29988,101.0,-22.62,30.9,-11.34,81.823,58.707,-11.686,,51.7439,,,,NaN,,,,0 / 0,4654,2014-12-14 13:31:56:374
6.69838,-11.2318,-12.28824,1.36739,-8.35427,4.95061,5.33099,-2.87753,-17.23885,-0.89051,-1.37477,-0.20826,141.0,-21.84,30.72,-9.36,81.823,58.707,-11.686,,51.0152,,,,NaN,,,,0 / 0,4704,2014-12-14 13:31:56:424
6.38234,-15.54854,-0.62848,1.39672,-8.57019,4.55766,4.98563,-6.97835,-5.18614,0.67436,0.48731,0.10706,141.0,-21.78,30.66,-8.52,78.417,58.418,-15.44,,51.0152,,,,NaN,,,,0 / 0,4754,2014-12-14 13:31:56:474
-5.68204,-15.43362,-1.59334,1.25561,-9.0031,3.67959,-6.93765,-6.43053,-5.27293,-3.12331,1.09451,0.48097,141.0,-21.0,29.88,-7.2,91.348,66.643,-18.842,,51.0152,,,,NaN,,,,0 / 0,4804,2014-12-14 13:31:56:524
1.74717,-13.20701,2.02909,1.15924,-9.27469,2.96791,0.58793,-3.93233,-0.93883,-1.31768,-0.87303,-0.08469,203.0,-21.24,29.7,-5.58,91.348,66.643,-18.842,,51.0152,,,,NaN,,,,0 / 0,4854,2014-12-14 13:31:56:574
1.79505,-7.69556,-1.52391,1.10747,-9.58174,1.77096,0.68758,1.88618,-3.29487,-2.38082,1.73154,0.23916,203.0,-21.78,29.88,-4.02,96.802,71.04,-21.335,,51.0152,,,,NaN,,,,0 / 0,4903,2014-12-14 13:31:56:623
-1.82737,-8.96688,1.99557,0.77991,-9.77104,0.30107,-2.60729,0.80415,1.6945,-2.44367,2.55073,0.20081,203.0,-20.58,30.54,-1.26,123.008,81.677,-40.948,,51.0152,,,,NaN,,,,0 / 0,4954,2014-12-14 13:31:56:674
-1.00856,-10.322,3.62841,0.67187,-9.77942,-0.28865,-1.68043,-0.54259,3.91706,-1.54991,1.52807,0.04315,141.0,-20.64,30.54,2.58,196.989,85.724,-113.249,,51.565,,,,NaN,,,,0 / 0,5016,2014-12-14 13:31:56:736
-1.25277,-9.60853,0.89663,0.57625,-9.76789,-0.65511,-2.78431,1.3828,-1.11061,-1.05563,0.47772,0.00693,141.0,-21.36,30.12,3.72,196.989,85.724,-113.249,,51.565,,,,NaN,,,,0 / 0,5054,2014-12-14 13:31:56:774
3.11905,-9.63247,0.00838,0.54498,-9.71358,-1.23331,2.57407,0.0811,1.24169,-1.28253,0.43724,0.0048,141.0,-21.18,29.58,4.2,236.848,83.913,-150.299,,51.565,,,,NaN,,,,0 / 0,5104,2014-12-14 13:31:56:824
3.18848,-10.89422,0.36033,0.75762,-9.6419,-1.62207,2.43086,-1.25232,1.9824,-1.45723,1.08918,-0.21039,141.0,-21.36,28.8,6.18,241.942,79.481,-154.964,,51.565,,,,NaN,,,,0 / 0,5154,2014-12-14 13:31:56:874
-1.63344,-11.16237,2.06979,0.88526,-9.59162,-1.84054,-2.5187,-1.57075,3.91033,-1.17494,1.40131,-0.27963,75.0,-21.24,28.56,7.26,241.942,79.481,-154.964,,51.565,,,,NaN,,,,0 / 0,5204,2014-12-14 13:31:56:924
0.90441,-11.47361,1.84473,0.79263,-9.59491,-1.86613,0.11178,-1.8787,3.71086,-0.17892,0.96029,0.16672,75.0,-22.2,27.3,8.04,240.381,77.581,-156.62,,51.565,,,,NaN,,,,0 / 0,5253,2014-12-14 13:31:56:973
-0.94152,-17.04492,13.14058,1.10896,-9.69472,-0.97639,-2.86691,-5.28161,10.74593,2.42246,1.62608,-0.27537,75.0,-23.1,26.88,8.28,232.214,79.0,-151.139,,51.565,,,,NaN,,,,0 / 0,5303,2014-12-14 13:31:57:023
-2.07158,-15.06013,-3.68348,1.11046,-9.74365,0.01616,-3.17247,-4.13613,-0.68055,3.29278,1.6591,0.14861,71.0,-23.16,26.7,8.46,232.214,79.0,-151.139,,51.565,,,,NaN,,,,0 / 0,5354,2014-12-14 13:31:57:074
-2.09792,-16.33384,-9.48702,0.8052,-9.67796,1.36365,-2.90312,-6.65588,-10.85067,1.98251,-0.19446,1.19363,71.0,-24.48,26.52,6.48,109.521,82.115,-44.049,,50.8825,,,,NaN,,,,0 / 0,5404,2014-12-14 13:31:57:124
-0.1658,-13.63079,0.22625,0.16415,-9.39185,2.81753,-0.32995,-4.23893,-2.59127,2.58438,-1.03282,1.03065,71.0,-25.32,26.28,4.14,82.683,78.344,-13.746,,50.8825,,,,NaN,,,,0 / 0,5454,2014-12-14 13:31:57:174
-0.93913,-10.66677,-2.98198,-0.02499,-9.13148,3.57559,-0.91414,-1.53528,-6.55757,3.05097,-1.12763,0.95501,71.0,-25.32,26.22,1.26,82.683,78.344,-13.746,,50.8825,,,,NaN,,,,0 / 0,5504,2014-12-14 13:31:57:224
1.37128,-5.58627,-3.81995,-0.02215,-8.59623,4.71957,1.39343,3.00996,-8.53952,2.3415,-3.28053,0.73131,81.0,-26.28,27.18,-5.22,70.307,65.84,1.66,,50.8825,,,,NaN,,,,0 / 0,5554,2014-12-14 13:31:57:274
2.33614,-3.67091,-5.06015,0.69342,-8.01309,5.61066,1.64272,4.34218,-10.67081,1.11858,-2.39743,0.39255,81.0,-25.74,27.66,-9.48,75.021,61.232,0.269,,50.8825,,,,NaN,,,,0 / 0,5604,2014-12-14 13:31:57:324
1.87885,-4.55916,-4.72017,1.01379,-7.87962,5.74923,0.86506,3.32046,-10.46939,-0.00315,-1.47917,0.43943,81.0,-25.68,27.78,-10.14,77.875,53.466,-10.0,,50.8825,,,,NaN,,,,0 / 0,5654,2014-12-14 13:31:57:374
2.4774,-5.10264,-2.8096,1.3207,-8.27705,5.09082,1.1567,3.17441,-7.90042,-1.67561,-0.03573,0.39681,147.0,-27.66,27.42,-9.48,87.251,57.568,-14.544,,50.8825,,,,NaN,,,,0 / 0,5704,2014-12-14 13:31:57:424
3.44226,-9.31883,4.79678,1.28673,-8.62317,4.48943,2.15553,-0.69567,0.30736,-1.62022,-0.56091,0.24661,147.0,-27.66,27.24,-8.28,87.251,57.568,-14.544,,51.0345,,,,NaN,,,,0 / 0,5754,2014-12-14 13:31:57:474
1.80942,-10.97562,7.10479,1.58092,-8.5681,4.5011,0.2285,-2.40752,2.60369,1.32311,-1.3311,0.39681,147.0,-27.42,28.62,-6.12,92.852,63.248,-18.385,,51.0345,,,,NaN,,,,0 / 0,5804,2014-12-14 13:31:57:524
1.25396,-2.73238,2.01472,1.58885,-8.32599,4.93206,-0.33489,5.5936,-2.91733,1.19208,-0.53854,0.48736,219.0,-27.42,29.1,-4.08,82.935,60.891,-19.353,,51.0345,,,,NaN,,,,0 / 0,5853,2014-12-14 13:31:57:573
2.20686,-1.06841,-2.89339,1.67235,-8.19056,5.12718,0.53451,7.12215,-8.02058,0.15451,-1.60274,0.51399,219.0,-27.06,29.16,-3.0,82.935,60.891,-19.353,,51.0345,,,,NaN,,,,0 / 0,5904,2014-12-14 13:31:57:624
5.93463,-7.9278,-5.46955,2.00006,-8.37701,4.69009,2.63931,4.007,-17.93601,0.13747,-0.30312,0.12304,219.0,-27.66,30.6,-2.76,78.11,58.881,-22.457,,51.0345,,,,NaN,,,,0 / 0,5953,2014-12-14 13:31:57:673
-3.97976,-15.13674,2.84311,1.90938,-8.45228,4.59178,-2.58753,5.70793,-20.72271,-1.23353,0.87187,0.26366,241.0,-27.6,30.84,-2.94,80.651,59.529,-22.579,,51.0345,,,,NaN,,,,0 / 0,6004,2014-12-14 13:31:57:724
-4.20003,-17.77276,2.38343,1.57419,-8.7966,4.03902,-5.77422,-8.97616,-1.65559,-1.34432,1.50677,-0.01331,241.0,-26.88,31.62,-2.58,80.651,59.529,-22.579,,51.0345,,,,NaN,,,,0 / 0,6054,2014-12-14 13:31:57:774
0.94751,-9.64205,-1.33956,1.03878,-9.26676,3.03645,-0.09128,-0.37529,-4.376,-1.029,0.50968,-0.09427,241.0,-27.84,31.2,-1.08,82.031,67.521,-18.247,,51.0345,,,,NaN,,,,0 / 0,6103,2014-12-14 13:31:57:823
3.73914,-8.24384,-0.71706,1.04821,-9.41834,2.52334,2.69093,1.17451,-3.2404,-1.39651,1.13925,0.00693,241.0,-28.86,31.02,-0.6,96.342,73.822,-22.558,,57.3906,,,,NaN,,,,0 / 0,6153,2014-12-14 13:31:57:873
-1.43473,-9.68514,1.4449,0.9101,-9.58384,1.86912,-2.34482,-0.1013,-0.42422,-0.7499,1.47694,-0.23169,289.0,-29.46,30.9,-0.54,104.676,77.761,-25.962,,57.3906,,,,NaN,,,,0 / 0,6204,2014-12-14 13:31:57:924
-0.7428,-8.55747,0.53271,0.79458,-9.63936,1.61953,-1.53738,1.08188,-1.08682,-0.78612,1.41729,-0.11132,289.0,-29.4,30.72,-0.48,104.676,77.761,-25.962,,57.3906,,,,NaN,,,,0 / 0,6254,2014-12-14 13:31:57:974
-0.65422,-8.96449,1.01634,0.65392,-9.70879,1.2176,-1.21955,0.54797,-0.26351,-0.50595,1.01675,-0.13049,289.0,-29.76,30.48,-0.6,109.83,80.703,-27.003,,57.3906,,,,NaN,,,,0 / 0,6304,2014-12-14 13:31:58:024
-0.65661,-9.43136,-0.06345,0.60768,-9.7444,0.92102,-1.26429,0.31304,-0.98447,-0.4921,1.27561,-0.12943,199.0,-31.38,29.34,-1.92,112.589,81.898,-28.238,,57.3906,,,,NaN,,,,0 / 0,6354,2014-12-14 13:31:58:074
-2.41874,-8.14807,-1.15281,0.56129,-9.75517,0.83318,-2.98003,1.60711,-1.98599,-0.37812,1.22767,-0.16671,199.0,-31.32,29.7,-2.52,124.682,84.12,-33.967,,57.3906,,,,NaN,,,,0 / 0,6403,2014-12-14 13:31:58:123
0.42318,-15.15111,5.71376,0.44128,-9.76266,0.81762,-0.01811,-5.38845,4.89614,0.21097,0.06014,-0.16245,199.0,-31.8,29.76,-2.94,119.158,84.564,-28.356,,57.3906,,,,NaN,,,,0 / 0,6454,2014-12-14 13:31:58:174
2.23319,-9.77373,-0.68594,0.5146,-9.73722,1.04552,1.71859,-0.03651,-1.73146,0.70738,0.71954,-0.16991,129.0,-32.16,29.88,-4.38,119.158,84.564,-28.356,,47.6092,,,,NaN,,,,0 / 0,6503,2014-12-14 13:31:58:223
1.31142,-10.62367,-1.49278,0.74968,-9.71806,1.08068,0.56174,-0.90561,-2.57347,-0.15015,0.88785,-0.33183,129.0,-31.92,29.16,-5.52,121.325,82.23,-28.862,,47.6092,,,,NaN,,,,0 / 0,6554,2014-12-14 13:31:58:274
-2.0213,-11.13364,1.1169,0.73726,-9.72076,1.06572,-2.75857,-1.41288,0.05118,0.2621,0.20288,-0.18589,129.0,-32.34,28.92,-6.72,131.731,82.407,-34.675,,47.6092,,,,NaN,,,,0 / 0,6603,2014-12-14 13:31:58:323
2.15658,-9.18476,1.83037,0.88451,-9.67646,1.32534,1.27207,0.49171,0.50503,0.21949,0.44576,-0.27004,119.0,-32.34,28.56,-7.68,129.822,81.634,-31.761,,47.6092,,,,NaN,,,,0 / 0,6654,2014-12-14 13:31:58:374
0.3729,-8.52635,1.83516,0.95394,-9.64833,1.47363,-0.58104,1.12198,0.36152,0.25997,0.41487,-0.12623,119.0,-31.98,28.2,-8.52,129.822,81.634,-31.761,,47.6092,,,,NaN,,,,0 / 0,6704,2014-12-14 13:31:58:424
2.17573,-11.32278,3.21422,0.93898,-9.63008,1.59753,1.23675,-1.6927,1.61668,0.18221,0.94218,0.01119,119.0,-31.98,27.66,-8.7,128.401,79.108,-30.446,,47.6092,,,,NaN,,,,0 / 0,6753,2014-12-14 13:31:58:473
-0.54887,-8.16483,2.40258,0.92117,-9.59237,1.81914,-1.47004,1.42754,0.58344,0.34093,0.04629,-0.17204,119.0,-33.12,27.06,-9.66,128.401,79.108,-30.446,,47.6092,,,,NaN,,,,0 / 0,6804,2014-12-14 13:31:58:524
1.07919,-9.05068,2.32836,1.02607,-9.52713,2.0861,0.05312,0.47645,0.24226,0.1364,-0.10924,-0.08682,119.0,-32.28,26.82,-11.1,123.377,76.952,-25.857,,47.6092,,,,NaN,,,,0 / 0,6854,2014-12-14 13:31:58:574
2.61626,-10.14483,2.67791,1.0741,-9.4987,2.1892,1.54217,-0.64614,0.48872,0.23015,0.37439,-0.05273,111.0,-31.5,26.7,-12.72,128.869,75.602,-26.134,,47.5,,,,NaN,,,,0 / 0,6904,2014-12-14 13:31:58:624
1.19171,-8.81844,1.64362,1.10642,-9.4767,2.26686,0.08529,0.65826,-0.62324,0.13214,0.33285,-0.05379,111.0,-31.2,26.52,-13.14,128.869,75.602,-26.134,,47.5,,,,NaN,,,,0 / 0,6954,2014-12-14 13:31:58:674
1.31861,-9.46727,2.57736,1.08951,-9.46203,2.33524,0.2291,-0.00524,0.24211,0.00964,0.02392,-0.04847,111.0,-31.5,26.82,-13.44,127.016,74.989,-25.001,,47.5,,,,NaN,,,,0 / 0,7004,2014-12-14 13:31:58:724
0.46627,-9.34517,3.00592,1.09131,-9.45784,2.35155,-0.62504,0.11268,0.65437,0.02561,0.04416,0.00586,111.0,-32.28,26.04,-13.26,126.597,74.671,-24.895,,47.5,,,,NaN,,,,0 / 0,7053,2014-12-14 13:31:58:773
0.48303,-9.45291,3.6739,1.02756,-9.45141,2.40572,-0.54453,-0.0015,1.26818,0.07781,-0.19872,0.04208,111.0,-32.52,25.74,-13.86,127.028,74.598,-24.106,,47.5,,,,NaN,,,,0 / 0,7104,2014-12-14 13:31:58:824
0.86131,-8.78971,2.52229,1.01559,-9.43151,2.48728,-0.03337,0.64928,-0.41809,0.07675,-0.19872,0.02184,111.0,-31.98,25.86,-14.4,127.028,74.598,-24.106,,47.5,,,,NaN,,,,0 / 0,7154,2014-12-14 13:31:58:874
0.69851,-9.58938,2.33076,0.99883,-9.44527,2.44119,-0.08006,-0.30212,0.14335,-0.06493,0.01114,0.02184,111.0,-31.62,25.74,-14.4,126.717,74.1,-22.211,,47.5,,,,NaN,,,,0 / 0,7204,2014-12-14 13:31:58:924
1.13665,-9.745,2.69946,1.00197,-9.44737,2.43176,0.17059,-0.23777,0.27967,-0.05322,-0.05491,-0.01757,111.0,-31.56,25.32,-14.22,125.63,74.397,-22.252,,46.344,,,,NaN,,,,0 / 0,7254,2014-12-14 13:31:58:974
0.79428,-9.08659,2.56539,1.02352,-9.44752,2.42263,-0.19094,0.42557,0.18585,-0.05215,-0.0336,-0.04421,111.0,-31.38,26.1,-14.76,125.63,74.397,-22.252,,46.344,,,,NaN,,,,0 / 0,7304,2014-12-14 13:31:59:024
0.51415,-9.32841,2.51511,1.00616,-9.4562,2.3954,-0.49201,0.12779,0.11971,-0.06493,0.03777,-5.3E-4,111.0,-30.96,26.64,-14.64,128.055,74.477,-23.003,,46.344,,,,NaN,,,,0 / 0,7354,2014-12-14 13:31:59:074
1.21805,-9.37629,2.30681,1.0129,-9.46009,2.37714,0.20515,0.0838,-0.07033,-0.06387,-0.02082,-0.04527,111.0,-31.62,26.64,-13.86,126.015,74.723,-23.079,,46.344,,,,NaN,,,,0 / 0,7403,2014-12-14 13:31:59:123
1.51972,-9.44572,1.68193,1.06961,-9.48119,2.26581,0.32322,0.06898,-0.48812,-0.11926,-0.06876,-0.0506,111.0,-31.56,26.22,-14.22,126.015,74.723,-23.079,,46.344,,,,NaN,,,,0 / 0,7454,2014-12-14 13:31:59:174
0.98102,-9.32123,1.95965,1.09654,-9.50199,2.16331,-0.32426,-0.00254,-0.31963,-0.15228,-0.01656,-0.04847,111.0,-31.8,26.04,-13.74,129.316,75.197,-25.27,,46.344,,,,NaN,,,,0 / 0,7503,2014-12-14 13:31:59:223
0.71048,-9.43615,2.46483,1.10088,-9.50857,2.13219,-0.50817,-0.10834,0.66993,-0.12991,0.01753,-0.0506,111.0,-32.52,26.46,-12.42,129.316,75.197,-25.27,,46.344,,,,NaN,,,,0 / 0,7554,2014-12-14 13:31:59:274
1.38804,-9.21349,1.84952,1.09505,-9.51531,2.10525,0.12315,-0.05058,-0.1239,-0.07026,0.03031,-0.03142,111.0,-32.16,25.74,-13.44,130.325,75.836,-27.308,,43.5741,,,,NaN,,,,0 / 0,7603,2014-12-14 13:31:59:323
0.85174,-9.27574,1.85431,1.10148,-9.5189,2.0855,-0.04818,0.25887,-0.46612,-0.08517,-0.01549,-0.03994,111.0,-31.5,26.04,-13.26,131.616,76.084,-27.841,,43.5741,,,,NaN,,,,0 / 0,7654,2014-12-14 13:31:59:374