ACCELEROMETER X (m/s²),ACCELEROMETER Y (m/s²),ACCELEROMETER Z (m/s²),GRAVITY X (m/s²),GRAVITY Y (m/s²),GRAVITY Z (m/s²),LINEAR ACCELERATION X (m/s²),LINEAR ACCELERATION Y (m/s²),LINEAR ACCELERATION Z (m/s²),GYROSCOPE X (rad/s),GYROSCOPE Y (rad/s),GYROSCOPE Z (rad/s),LIGHT (lux),MAGNETIC FIELD X (μT),MAGNETIC FIELD Y (μT),MAGNETIC FIELD Z (μT),ORIENTATION X (°),ORIENTATION Y (°),ORIENTATION Z (°),PROXIMITY (i),SOUND LEVEL (dB),LOCATION Latitude : ,LOCATION Longitude : ,LOCATION Altitude ( m),LOCATION Altitude-google ( m),LOCATION Speed ( Kmh),LOCATION Accuracy ( m),LOCATION ORIENTATION (°),Satellites in range,Time since start in ms ,YYYY-MO-DD HH-MI-SS_SSS
0.12629,-8.84238,4.28203,0.15787,-9.42433,2.70724,-0.03157,0.58194,1.57479,-0.42408,0.21022,0.00509,91.0,-8.94,31.98,3.36,36.719,73.541,-3.489,1.97,14.8795,,,,NaN,,,,0 / 0,2,2014-12-14 13:26:38:845
0.31304,-8.59099,2.78087,0.14859,-9.44887,2.62075,0.16445,0.85787,0.16011,-0.44538,0.19851,-0.01408,91.0,-9.3,32.4,3.36,39.872,74.474,-3.245,1.97,25.7015,,,,NaN,,,,0 / 0,53,2014-12-14 13:26:38:896
-0.44592,-9.34517,0.55186,-0.00494,-9.55586,2.20401,-0.32741,-0.03127,-1.80238,-0.64672,-0.11681,0.10949,91.0,-8.82,32.22,4.62,36.645,77.012,0.128,1.97,25.7015,,,,NaN,,,,0 / 0,103,2014-12-14 13:26:38:946
1.41677,-10.12807,0.10415,0.03756,-9.67183,1.62028,1.29511,-0.63282,-1.79685,-0.83527,-0.22121,0.05623,91.0,-8.76,31.98,5.04,36.645,77.012,0.128,1.97,25.7015,,,,NaN,,,,0 / 0,152,2014-12-14 13:26:38:995
0.12151,-9.04589,0.8655,0.09352,-9.74694,1.07649,0.02798,0.70105,-0.21099,-1.15485,0.21342,-0.06628,105.0,-9.9,31.26,5.58,42.723,80.487,-1.328,1.97,25.7015,,,,NaN,,,,0 / 0,203,2014-12-14 13:26:39:046
-0.96546,-8.81365,1.60052,0.07826,-9.78001,0.71856,-1.04372,0.96636,0.88196,-1.33701,0.48187,-0.03965,105.0,-9.54,31.08,5.82,55.963,85.773,-6.216,1.97,25.7015,,,,NaN,,,,0 / 0,253,2014-12-14 13:26:39:096
-0.54887,-9.08659,2.10809,-0.01392,-9.80665,0.01796,-0.53495,0.72006,2.09014,-1.2422,0.32421,0.02746,105.0,-9.78,30.72,7.98,51.802,88.106,-4.052,1.97,25.7015,,,,NaN,,,,0 / 0,303,2014-12-14 13:26:39:146
0.49261,-9.44572,0.83199,-0.01811,-9.80291,-0.27339,0.51071,0.35718,1.10537,-1.14952,0.48187,0.02853,99.0,-10.08,30.3,9.3,51.802,88.106,-4.052,1.97,47.2849,,,,NaN,,,,0 / 0,353,2014-12-14 13:26:39:196
2.71203,-9.23982,-1.8998,0.1643,-9.74335,-1.10073,2.54773,0.50353,-0.79906,-1.12076,0.95271,0.01149,99.0,-10.74,29.58,9.96,231.277,86.206,-177.502,1.97,47.2849,,,,NaN,,,,0 / 0,403,2014-12-14 13:26:39:246
-2.65098,-11.21743,-0.65481,0.46103,-9.61811,-1.8576,-3.11201,-1.59933,1.20279,-1.37216,1.27655,-0.33473,99.0,-10.92,29.34,12.0,222.003,83.484,-171.51,1.97,47.2849,,,,NaN,,,,0 / 0,452,2014-12-14 13:26:39:295
-2.41395,-12.08413,0.28132,0.47555,-9.57052,-2.08565,-2.8895,-2.51361,2.36697,-0.93221,0.63633,-0.26548,57.0,-11.7,27.24,13.98,220.556,77.401,-167.156,1.97,47.2849,,,,NaN,,,,0 / 0,503,2014-12-14 13:26:39:346
2.12545,-11.09293,0.6596,0.73517,-9.50513,-2.29858,1.39028,-1.73385,2.88397,-0.74046,0.60437,-0.33046,57.0,-12.6,26.82,15.0,220.556,77.401,-167.156,1.97,47.2849,,,,NaN,,,,0 / 0,553,2014-12-14 13:26:39:396
-6.29735,-15.99626,8.47428,0.92521,-9.48328,-2.31998,-3.9018,-5.41883,6.04416,-0.77135,0.80677,-0.51262,57.0,-13.38,25.92,15.48,214.688,75.754,-162.264,1.97,47.2849,,,,NaN,,,,0 / 0,603,2014-12-14 13:26:39:446
-3.05081,-14.55016,9.64504,0.80774,-9.58803,-1.89426,-3.85856,-4.96213,11.5393,0.65291,0.43606,0.09138,57.0,-15.42,24.36,16.32,206.476,77.878,-156.906,1.97,47.2849,,,,NaN,,,,0 / 0,652,2014-12-14 13:26:39:495
-0.32142,-13.31236,2.11049,0.7024,-9.73093,-0.99344,-1.02382,-3.58143,3.10393,2.03136,0.51702,0.21282,57.0,-16.68,23.82,16.8,206.476,77.878,-156.906,1.97,47.2849,,,,NaN,,,,0 / 0,702,2014-12-14 13:26:39:545
1.73041,-12.34271,-1.78248,0.42482,-9.77942,0.59511,1.30559,-2.56329,-2.37759,2.5086,-0.73573,0.59845,57.0,-17.34,25.32,15.24,153.254,86.296,-108.281,1.97,52.0689,,,,NaN,,,,0 / 0,753,2014-12-14 13:26:39:596
1.17735,-12.49115,-1.44729,0.26366,-9.69726,1.43697,0.91369,-2.79388,-2.88426,2.59701,-0.79326,0.6304,57.0,-17.34,26.88,13.44,54.436,81.432,-10.397,1.97,52.0689,,,,NaN,,,,0 / 0,803,2014-12-14 13:26:39:646
0.40402,-9.95808,-2.47441,-0.15308,-9.18655,3.42865,0.5571,-0.77153,-5.90305,2.79728,-0.53759,0.74758,57.0,-16.5,32.94,7.68,38.418,69.514,2.556,1.97,52.0689,,,,NaN,,,,0 / 0,852,2014-12-14 13:26:39:695
-0.12749,-8.4665,-2.4792,-0.22401,-8.84658,4.22607,0.08874,0.71362,-6.69284,2.56186,-1.68488,0.64319,57.0,-16.5,32.94,7.68,38.418,69.514,2.556,1.97,52.0689,,,,NaN,,,,0 / 0,902,2014-12-14 13:26:39:745
1.31142,-4.80337,-3.75052,0.03157,-8.34319,5.15382,1.66771,3.73106,-8.79929,1.51151,-1.52296,0.25863,57.0,-13.98,37.44,-3.0,38.022,64.435,3.034,1.97,52.0689,,,,NaN,,,,0 / 0,953,2014-12-14 13:26:39:796
1.35691,-4.31974,-2.2278,0.33953,-8.16812,5.41643,0.89438,3.8207,-5.05835,0.72428,-0.50563,0.25543,71.0,-12.42,36.24,-12.0,41.164,56.751,-2.693,1.97,52.0689,,,,NaN,,,,0 / 0,1002,2014-12-14 13:26:39:845
0.63386,-4.57831,0.89902,0.3295,-8.20987,5.35359,0.17747,3.79466,-4.51561,-0.44005,-0.37887,0.18725,71.0,-12.72,34.86,-15.78,66.941,56.842,-3.522,1.97,52.0689,,,,NaN,,,,0 / 0,1053,2014-12-14 13:26:39:896
2.99694,-7.42981,4.00909,0.4757,-8.4424,4.96692,2.52124,1.0126,-0.95783,-1.28161,-0.59086,0.04877,71.0,-12.6,33.9,-16.92,66.941,56.842,-3.522,1.97,50.3936,,,,NaN,,,,0 / 0,1103,2014-12-14 13:26:39:946
1.17735,-12.32116,9.46069,0.74041,-8.56271,4.72241,-1.56461,-4.40967,6.93376,-0.45923,-1.01057,-0.06734,71.0,-12.6,32.52,-18.9,101.768,60.828,-8.911,1.97,50.3936,,,,NaN,,,,0 / 0,1153,2014-12-14 13:26:39:996
3.29382,-10.36989,7.16465,0.85608,-8.54251,4.73947,2.43775,-1.82737,2.42518,0.14371,-0.57381,0.26289,71.0,-12.48,32.16,-18.48,100.351,60.586,-10.239,1.97,50.3936,,,,NaN,,,,0 / 0,1202,2014-12-14 13:26:40:045
-2.47141,-17.96908,-0.99479,0.98776,-8.70532,4.40578,-3.45917,-9.26377,-5.40057,-0.78946,-1.18314,0.1489,87.0,-13.08,32.04,-17.64,100.351,60.586,-10.239,1.97,50.3936,,,,NaN,,,,0 / 0,1253,2014-12-14 13:26:40:096
-1.2384,-0.57281,-14.7423,0.9894,-8.86618,4.07209,-2.2278,8.29337,-18.81438,-0.84912,-0.36289,0.15317,87.0,-12.9,30.48,-15.9,107.424,63.955,-12.278,1.97,50.3936,,,,NaN,,,,0 / 0,1303,2014-12-14 13:26:40:146
-0.22805,-16.34102,0.34357,0.7826,-9.16725,3.39408,-1.01065,-7.17378,-3.05051,-2.31705,1.48854,0.09777,87.0,-12.66,29.58,-15.24,121.684,69.195,-12.984,1.97,50.3936,,,,NaN,,,,0 / 0,1353,2014-12-14 13:26:40:196
-0.13467,-11.14082,0.12091,0.75178,-9.35011,2.86062,-0.88645,-1.79071,-2.73971,-1.40625,-0.12747,-0.17068,87.0,-12.54,29.16,-14.46,121.684,69.195,-12.984,1.97,49.342,,,,NaN,,,,0 / 0,1403,2014-12-14 13:26:40:246
0.25558,-8.49283,-1.55503,0.79682,-9.56678,2.0035,-0.54124,1.07395,-3.55853,-1.94634,0.35829,-0.11315,117.0,-12.48,28.8,-13.32,126.528,72.446,-14.725,1.97,49.342,,,,NaN,,,,0 / 0,1452,2014-12-14 13:26:40:295
0.31544,-9.15603,1.90459,0.60813,-9.77163,0.56309,-0.29269,0.61561,1.3415,-1.61078,1.73781,-0.01834,117.0,-12.66,29.16,-9.78,173.828,85.152,-47.202,1.97,49.342,,,,NaN,,,,0 / 0,1503,2014-12-14 13:26:40:346
-1.22643,-9.98921,1.92614,0.57506,-9.78795,-0.19647,-1.80149,-0.20126,2.12261,-1.20491,0.7631,-0.127,117.0,-12.6,29.52,-7.74,236.348,86.447,-108.863,1.97,49.342,,,,NaN,,,,0 / 0,1553,2014-12-14 13:26:40:396
-0.80505,-9.76894,0.48722,0.55216,-9.78001,-0.46612,-1.35721,0.01107,0.95334,-0.9141,0.21661,-0.06202,117.0,-12.12,29.76,-6.0,236.348,86.447,-108.863,1.97,49.342,,,,NaN,,,,0 / 0,1602,2014-12-14 13:26:40:445
1.97462,-9.7857,-1.60292,0.63955,-9.70445,-1.2598,1.33507,-0.08125,-0.34312,-1.53941,0.99,-0.13978,57.0,-11.22,28.92,-2.82,266.551,84.406,-144.693,1.97,49.342,,,,NaN,,,,0 / 0,1652,2014-12-14 13:26:40:495
2.36008,-12.0985,1.56461,0.81882,-9.62439,-1.69509,1.54127,-2.47411,3.25971,-1.34872,1.08374,-0.33473,57.0,-11.1,28.92,-2.16,275.414,81.717,-153.085,1.97,49.342,,,,NaN,,,,0 / 0,1703,2014-12-14 13:26:40:546
-4.24312,-12.02428,2.37146,1.00871,-9.56229,-1.92823,-5.25183,-2.46199,4.29969,-0.43047,0.77268,-0.2772,57.0,-10.56,27.78,-0.18,277.259,77.179,-152.385,1.97,52.6412,,,,NaN,,,,0 / 0,1752,2014-12-14 13:26:40:595
-1.86808,-11.87105,5.00987,0.94406,-9.59267,-1.80568,-2.81214,-2.27838,6.81554,-0.10663,0.69598,0.10736,57.0,-10.26,27.6,0.9,277.259,77.179,-152.385,1.97,52.6412,,,,NaN,,,,0 / 0,1802,2014-12-14 13:26:40:645
0.62908,-16.78156,13.91151,0.93703,-9.64729,-1.49099,-0.30795,-7.13427,15.4025,0.77328,0.68427,-0.07054,57.0,-10.86,26.28,2.52,245.065,79.655,-147.852,1.97,52.6412,,,,NaN,,,,0 / 0,1853,2014-12-14 13:26:40:696
-3.04842,-16.08245,-9.62589,0.78949,-9.73767,0.85278,-3.83791,-6.34478,-10.47867,2.84309,0.27733,0.86796,57.0,-12.6,24.12,4.5,156.059,84.134,-91.309,1.97,52.6412,,,,NaN,,,,0 / 0,1902,2014-12-14 13:26:40:745
-2.9335,-15.72811,-8.35457,0.52343,-9.69786,1.36006,-3.45693,-6.03025,-9.71462,2.08036,-0.92428,1.17582,57.0,-13.02,23.4,4.74,100.513,83.194,-42.793,1.97,52.6412,,,,NaN,,,,0 / 0,1953,2014-12-14 13:26:40:796
1.37367,-13.11125,-2.59412,0.09592,-9.38228,2.85194,1.27776,-3.72897,-5.44606,3.28837,-1.64334,0.92335,57.0,-13.62,25.74,2.34,57.295,73.083,-1.926,1.97,52.6412,,,,NaN,,,,0 / 0,2003,2014-12-14 13:26:40:846
3.09989,-7.516,-3.23816,-0.00673,-9.00265,3.88893,3.10663,1.48665,-7.12709,2.71313,-2.09181,1.10232,57.0,-13.26,26.28,1.98,57.295,73.083,-1.926,1.97,52.6412,,,,NaN,,,,0 / 0,2052,2014-12-14 13:26:40:895
0.98821,-5.83048,-3.18788,0.11941,-8.58366,4.74097,0.8688,2.75318,-7.92885,2.10593,-2.49555,0.75504,65.0,-13.86,27.24,1.08,50.238,66.637,0.099,1.97,51.3389,,,,NaN,,,,0 / 0,2103,2014-12-14 13:26:40:946
1.13665,-4.73633,-3.60926,0.58808,-8.06906,5.54213,0.54857,3.33273,-9.15139,1.1163,-1.55066,0.41735,65.0,-11.94,29.58,-3.54,44.081,57.486,-3.781,1.97,51.3389,,,,NaN,,,,0 / 0,2153,2014-12-14 13:26:40:996
1.96744,-3.9223,-1.86867,0.74086,-8.12667,5.43873,1.22658,4.20437,-7.3074,-0.12047,-0.42574,0.50364,65.0,-11.64,30.3,-6.12,44.081,57.486,-3.781,1.97,51.3389,,,,NaN,,,,0 / 0,2203,2014-12-14 13:26:41:046
1.13904,-4.73872,-0.35554,0.70853,-8.28005,5.20664,0.13812,3.01894,-4.40623,-1.24859,-0.17434,0.44185,83.0,-11.64,31.02,-8.58,54.149,57.6,-7.749,1.97,51.3389,,,,NaN,,,,0 / 0,2253,2014-12-14 13:26:41:096
-0.659,-15.25406,19.82459,0.69641,-8.75679,4.35954,-1.35542,-6.49726,15.46505,-0.94179,-1.05957,0.05623,83.0,-11.4,31.2,-10.5,68.868,63.245,-9.076,1.97,51.3389,,,,NaN,,,,0 / 0,2303,2014-12-14 13:26:41:146
1.41677,-12.69705,10.81102,0.80924,-8.70128,4.45007,0.60753,-3.99577,6.36095,0.3525,-1.30778,0.41842,83.0,-11.1,31.5,-9.96,68.868,63.245,-9.076,1.97,51.3389,,,,NaN,,,,0 / 0,2353,2014-12-14 13:26:41:196
1.8166,-19.51813,-4.78242,1.14398,-8.67973,4.4188,0.67262,-10.8384,-9.20122,-0.70637,-0.92854,0.01468,113.0,-9.6,32.04,-7.5,50.171,61.107,-10.876,1.97,51.3389,,,,NaN,,,,0 / 0,2402,2014-12-14 13:26:41:245
4.81175,-9.02195,-2.79284,1.20967,-8.76203,4.23474,3.60208,-0.25992,-7.02758,0.90751,0.24112,-0.09185,113.0,-9.78,31.62,-7.14,52.498,63.314,-15.942,1.97,51.3389,,,,NaN,,,,0 / 0,2455,2014-12-14 13:26:41:298
-4.18806,1.1989,-15.95616,1.22224,-8.75949,4.23654,-5.4103,9.95838,-20.1927,-1.20172,0.04617,0.06155,113.0,-9.6,30.6,-7.08,52.498,63.314,-15.942,1.97,51.1606,,,,NaN,,,,0 / 0,2502,2014-12-14 13:26:41:345
0.19573,-11.29644,0.58299,0.83543,-9.35115,2.83354,-0.6397,-1.94529,-2.25055,-1.28055,-0.38633,-0.16109,113.0,-10.74,30.54,-7.26,54.572,63.28,-16.093,1.97,51.1606,,,,NaN,,,,0 / 0,2553,2014-12-14 13:26:41:396
-0.24002,-8.8376,-0.16161,0.77901,-9.67272,1.41557,-0.57162,1.64556,-4.3751,-2.14448,0.69172,0.06368,145.0,-12.06,30.06,-6.84,118.288,77.476,-23.452,1.97,51.1606,,,,NaN,,,,0 / 0,2603,2014-12-14 13:26:41:446
-0.1658,-9.70909,0.81523,0.70464,-9.73183,0.98282,-0.87044,0.02274,-0.16759,-2.32131,1.57589,0.22454,145.0,-12.78,29.7,-4.68,118.288,77.476,-23.452,1.97,51.1606,,,,NaN,,,,0 / 0,2653,2014-12-14 13:26:41:496
-0.43155,-9.4553,1.5694,0.61576,-9.77433,-0.50458,-1.04731,0.31903,2.07398,-1.88775,1.86884,-0.16215,139.0,-11.94,29.94,0.12,228.136,85.344,-129.333,1.97,51.1606,,,,NaN,,,,0 / 0,2704,2014-12-14 13:26:41:547
-0.43155,-9.4553,1.5694,0.61576,-9.77433,-0.50458,-1.04731,0.31903,2.07398,-1.88775,1.86884,-0.16215,139.0,-11.94,29.94,0.12,228.136,85.344,-129.333,1.97,51.1606,,,,NaN,,,,0 / 0,2769,2014-12-14 13:26:41:612
-0.89842,-9.19194,-1.26773,0.64524,-9.70295,-1.26803,-1.54366,0.51101,3.0E-4,-1.10797,0.44032,-0.1792,139.0,-12.18,28.92,2.76,228.136,85.344,-129.333,1.97,51.1606,,,,NaN,,,,0 / 0,2803,2014-12-14 13:26:41:646
2.74555,-10.90858,2.48398,0.84261,-9.58324,-1.90384,1.90294,-1.32534,4.38782,-1.22302,1.22862,-0.42101,139.0,-12.0,28.8,3.9,256.977,77.743,-156.127,1.97,51.1606,,,,NaN,,,,0 / 0,2852,2014-12-14 13:26:41:695
-4.81773,-11.92612,2.00036,0.84261,-9.58324,-1.90384,1.90294,-1.32534,4.38782,-1.22302,1.22862,-0.42101,61.0,-12.0,28.8,3.9,256.977,77.743,-156.127,1.97,51.1606,,,,NaN,,,,0 / 0,2902,2014-12-14 13:26:41:745
-1.60471,-14.92845,6.95157,0.89199,-9.61062,-1.73595,-2.4967,-5.31782,8.68751,-0.01608,0.85577,-0.02154,61.0,-12.9,27.42,4.92,249.692,76.808,-155.092,1.97,51.1606,,,,NaN,,,,0 / 0,2953,2014-12-14 13:26:41:796
-3.7978,-15.42165,9.46548,0.73697,-9.71747,-1.0949,-4.53477,-5.70419,10.56038,1.47103,0.67148,0.17447,61.0,-15.0,24.96,6.66,218.606,82.265,-146.056,1.97,52.3776,,,,NaN,,,,0 / 0,3003,2014-12-14 13:26:41:846
1.50296,-14.30116,6.06092,0.67352,-9.77253,-0.46492,0.82944,-4.52863,6.52585,2.7323,0.64166,0.26289,61.0,-15.6,24.6,6.78,218.606,82.265,-146.056,1.97,52.3776,,,,NaN,,,,0 / 0,3053,2014-12-14 13:26:41:896
1.02412,-14.48552,-8.17979,0.44547,-9.69487,1.40794,0.57865,-4.79065,-9.58773,2.36479,0.80571,0.68154,61.0,-18.3,24.0,5.4,80.995,81.339,-17.557,1.97,52.3776,,,,NaN,,,,0 / 0,3102,2014-12-14 13:26:41:945
-1.8561,-13.66191,-3.11605,0.246,-9.62768,1.84892,-2.10211,-4.03423,-4.96498,1.85133,-0.62707,0.87648,61.0,-18.54,23.76,5.16,80.995,81.339,-17.557,1.97,52.3776,,,,NaN,,,,0 / 0,3153,2014-12-14 13:26:41:996
2.36966,-7.53755,-3.40336,-0.16774,-8.85106,4.21918,2.5374,1.31352,-7.62254,2.57358,-2.10779,0.91163,61.0,-22.02,25.14,-0.3,76.393,79.036,-7.579,1.97,52.3776,,,,NaN,,,,0 / 0,3203,2014-12-14 13:26:42:046
0.67217,-5.84963,-3.72657,-0.04878,-8.51049,4.8722,0.72095,2.66086,-8.59878,2.09208,-2.37198,0.85837,61.0,-23.34,26.1,-1.56,63.688,60.208,0.574,1.97,52.3776,,,,NaN,,,,0 / 0,3253,2014-12-14 13:26:42:096
0.81343,-5.9454,-3.79122,0.16954,-8.19011,5.39114,0.64389,2.24471,-9.18236,1.47529,-1.93841,0.62295,85.0,-24.36,26.88,-3.66,63.688,60.208,0.574,1.97,49.9678,,,,NaN,,,,0 / 0,3302,2014-12-14 13:26:42:145
1.81181,-4.75309,-0.61172,0.45265,-8.12338,5.47509,1.35916,3.37029,-6.08681,0.06914,-0.64518,0.6368,85.0,-24.9,30.12,-5.64,68.763,55.538,-3.807,1.97,49.9678,,,,NaN,,,,0 / 0,3353,2014-12-14 13:26:42:196
0.86371,-5.18405,-0.57341,0.40178,-8.27092,5.25363,0.46193,3.08687,-5.82704,-0.64139,-0.24358,0.52707,85.0,-25.08,31.2,-5.88,67.767,57.501,-4.373,1.97,49.9678,,,,NaN,,,,0 / 0,3403,2014-12-14 13:26:42:246
1.66816,-6.75943,2.89818,0.35943,-8.51318,4.85454,1.30873,1.75375,-1.95636,-1.34979,-0.38526,0.41309,85.0,-25.68,32.1,-5.58,67.767,57.501,-4.373,1.97,49.9678,,,,NaN,,,,0 / 0,3452,2014-12-14 13:26:42:295
1.40719,-12.8,10.60033,0.43141,-8.61958,4.65702,-1.19097,-5.15965,12.80748,-0.68613,-1.32269,0.21495,117.0,-26.1,32.76,-4.86,70.001,61.516,-5.293,1.97,49.9678,,,,NaN,,,,0 / 0,3502,2014-12-14 13:26:42:345
4.03124,-7.19278,5.17986,0.71437,-8.31102,5.15621,3.31687,1.11824,0.02364,0.33013,-0.47048,0.35663,117.0,-25.56,35.1,-0.96,63.522,59.29,-6.75,1.97,49.9678,,,,NaN,,,,0 / 0,3553,2014-12-14 13:26:42:396
2.41276,-19.43433,-0.56862,1.04956,-8.42968,4.90003,1.3632,-11.00465,-5.46866,-0.62754,-1.70086,-0.24844,117.0,-25.5,35.64,1.02,59.135,59.27,-12.09,1.97,49.9678,,,,NaN,,,,0 / 0,3603,2014-12-14 13:26:42:446
3.36325,-8.95491,-2.58454,1.07769,-8.61389,4.56185,2.28556,-0.34102,-7.14639,0.28113,0.23899,0.02214,143.0,-24.36,37.14,1.08,59.135,59.27,-12.09,1.97,49.0844,,,,NaN,,,,0 / 0,3653,2014-12-14 13:26:42:496
-6.51522,-17.13829,1.9812,0.7645,-9.09602,3.58442,-7.27972,-8.04227,-1.60322,-2.27337,1.84434,0.44079,143.0,-24.9,39.18,1.68,61.625,62.584,-13.271,1.97,49.0844,,,,NaN,,,,0 / 0,3703,2014-12-14 13:26:42:546
-1.38684,-11.12166,0.88466,0.52882,-9.29324,3.08657,-1.91566,-1.82842,-2.20192,-1.28907,-0.25423,0.03918,143.0,-24.54,40.02,1.56,66.927,71.378,-9.722,1.97,49.0844,,,,NaN,,,,0 / 0,3753,2014-12-14 13:26:42:596
1.45986,-8.57902,-0.55426,0.5146,-9.60389,1.91611,0.94526,1.02487,-2.47037,-1.75779,0.59478,-0.0535,193.0,-24.3,40.02,2.46,66.927,71.378,-9.722,1.97,49.0844,,,,NaN,,,,0 / 0,3802,2014-12-14 13:26:42:645
0.64823,-9.36911,-0.51116,0.45744,-9.67527,1.53319,0.19079,0.30616,-2.04435,-2.03049,1.58122,0.10097,193.0,-24.66,40.08,3.72,77.624,78.328,-15.033,1.97,49.0844,,,,NaN,,,,0 / 0,3852,2014-12-14 13:26:42:695
-0.58,-8.68676,-0.14006,0.26037,-9.80066,0.2264,-0.84036,1.1139,-0.36646,-1.71305,1.7229,-0.05669,193.0,-25.5,40.02,6.84,120.66,87.984,-48.992,1.97,49.0844,,,,NaN,,,,0 / 0,3903,2014-12-14 13:26:42:746
-1.0732,-9.76176,1.24379,0.27937,-9.77358,-0.75597,-1.35257,0.01182,1.99976,-1.79933,1.6185,-0.10676,193.0,-26.16,39.48,9.24,120.66,87.984,-48.992,1.97,51.4086,,,,NaN,,,,0 / 0,3952,2014-12-14 13:26:42:795
-0.30227,-9.35953,0.14724,0.2894,-9.75532,-0.95948,-0.59167,0.39579,1.10672,-1.28268,0.56602,-0.11848,137.0,-26.7,37.56,10.74,232.533,85.286,-159.718,1.97,51.4086,,,,NaN,,,,0 / 0,4002,2014-12-14 13:26:42:845
1.37367,-10.53269,1.37547,0.46043,-9.65716,-1.64332,0.91324,-0.87553,3.01879,-1.40838,1.11037,-0.0993,137.0,-27.66,37.26,11.1,242.514,82.203,-165.168,1.97,51.4086,,,,NaN,,,,0 / 0,4053,2014-12-14 13:26:42:896
-2.11468,-11.77528,1.75375,0.58703,-9.61347,-1.84638,-2.70171,-2.16181,3.60013,-0.47414,1.33514,-0.23566,137.0,-29.04,35.82,12.84,240.065,78.606,-162.363,1.97,51.4086,,,,NaN,,,,0 / 0,4102,2014-12-14 13:26:42:945
-0.20171,-11.30841,1.76333,0.62549,-9.61856,-1.80672,-0.8272,-1.68986,3.57005,-0.28133,1.21903,-0.06308,61.0,-29.76,35.1,13.74,240.065,78.606,-162.363,1.97,51.4086,,,,NaN,,,,0 / 0,4153,2014-12-14 13:26:42:996
-3.15855,-15.87655,6.34344,0.63401,-9.65342,-1.60681,-4.96228,-6.64421,8.9793,1.19619,0.56176,0.1031,61.0,-30.36,34.08,14.64,234.211,78.758,-160.904,1.97,51.4086,,,,NaN,,,,0 / 0,4202,2014-12-14 13:26:43:045
4.56754,-13.97555,2.94846,0.37783,-9.79872,-0.11836,4.1897,-4.17683,3.06682,3.1126,1.039,0.09351,61.0,-31.92,33.6,12.96,175.086,87.686,-107.394,1.97,51.4086,,,,NaN,,,,0 / 0,4253,2014-12-14 13:26:43:096
0.79667,-13.9133,-7.01621,0.23314,-9.68724,1.5085,0.56354,-4.22607,-8.5247,2.69608,1.7751,0.39605,61.0,-32.34,33.9,11.16,175.086,87.686,-107.394,1.97,49.8204,,,,NaN,,,,0 / 0,4302,2014-12-14 13:26:43:145
-0.89124,-13.49911,0.48243,-0.1652,-9.45964,2.58035,-0.72604,-4.03947,-2.09792,2.51073,-0.76875,0.82641,61.0,-31.74,34.86,9.66,63.475,78.513,-1.26,1.97,49.8204,,,,NaN,,,,0 / 0,4353,2014-12-14 13:26:43:196
-0.87927,-12.36426,-1.74896,-0.28775,-9.25598,3.22738,-0.59152,-3.10827,-4.97635,2.9379,-0.91789,0.79339,75.0,-29.76,37.08,-0.12,63.744,70.707,5.095,1.97,49.8204,,,,NaN,,,,0 / 0,4403,2014-12-14 13:26:43:246
1.6514,-6.35002,-2.85748,-0.17119,-8.52845,4.83808,1.82259,2.17842,-7.69556,2.27957,-2.48703,0.64638,75.0,-27.78,37.56,-6.3,62.937,60.419,2.026,1.97,49.8204,,,,NaN,,,,0 / 0,4453,2014-12-14 13:26:43:296
1.45268,-6.32847,-3.29322,0.08335,-8.2356,5.32351,1.36933,1.90713,-8.61673,1.99621,-2.35706,0.50151,75.0,-26.88,37.56,-8.28,62.937,60.419,2.026,1.97,49.8204,,,,NaN,,,,0 / 0,4503,2014-12-14 13:26:43:346
1.97941,-4.93744,-1.83276,0.51146,-7.91269,5.77033,1.23571,2.36712,-8.7116,0.96077,-1.21297,0.39924,97.0,-25.44,36.48,-10.74,68.1,57.118,-0.897,1.97,49.8204,,,,NaN,,,,0 / 0,4552,2014-12-14 13:26:43:395
1.83336,-4.59747,-1.17914,0.60813,-7.93528,5.73007,1.22523,3.33782,-6.90922,0.11175,-0.45237,0.45783,97.0,-25.86,34.92,-11.76,68.1,57.118,-0.897,1.97,49.8204,,,,NaN,,,,0 / 0,4603,2014-12-14 13:26:43:446
1.85491,-8.37312,6.38414,0.52672,-8.37103,5.08124,1.32818,-0.00209,1.30289,-1.33701,0.00676,0.11588,97.0,-26.46,33.0,-12.78,75.115,55.282,-5.971,1.97,50.2402,,,,NaN,,,,0 / 0,4652,2014-12-14 13:26:43:495
-0.08679,-11.87584,13.70082,0.59436,-8.45722,4.92876,-0.68115,-3.41862,8.77206,-0.8864,-1.02548,-0.00236,97.0,-25.68,32.82,-13.02,83.204,59.587,-6.876,1.97,50.2402,,,,NaN,,,,0 / 0,4703,2014-12-14 13:26:43:546
1.90758,-7.85358,6.4847,0.78156,-8.35322,5.07765,1.12602,0.49964,1.40704,0.26728,-0.332,0.27354,125.0,-24.72,33.12,-12.84,83.204,59.587,-6.876,1.97,50.2402,,,,NaN,,,,0 / 0,4752,2014-12-14 13:26:43:595
0.83019,-19.51813,6.18781,0.83543,-8.34559,5.08169,1.90534,-4.81594,1.17076,-0.13113,-0.52481,0.1798,125.0,-23.58,33.54,-11.4,76.137,58.407,-8.75,1.97,50.2402,,,,NaN,,,,0 / 0,4803,2014-12-14 13:26:43:646
2.58514,-8.28214,-2.68989,0.94706,-8.54595,4.71583,2.89025,2.91898,-10.29552,0.59325,0.21342,0.10416,125.0,-22.26,32.94,-8.34,74.417,60.628,-11.355,1.97,50.2402,,,,NaN,,,,0 / 0,4853,2014-12-14 13:26:43:696
-4.15214,-4.64296,-12.68089,0.90815,-8.79211,4.24791,-12.9013,-1.12767,-12.37982,-2.89549,0.76416,-0.19518,161.0,-22.14,33.0,-8.16,74.417,60.628,-11.355,1.97,50.2402,,,,NaN,,,,0 / 0,4902,2014-12-14 13:26:43:745
-0.45789,-10.62846,0.54468,0.58867,-9.1062,3.5919,-3.71849,-10.41193,0.66379,-1.33168,-0.06994,0.04451,161.0,-21.54,32.76,-7.08,77.741,63.707,-12.067,1.97,50.2402,,,,NaN,,,,0 / 0,4953,2014-12-14 13:26:43:796
-0.77871,-10.72423,1.17436,0.48662,-9.72989,1.12453,-1.38983,-0.93688,0.65077,-2.39268,1.52689,-0.02793,219.0,-21.18,32.16,-4.44,86.686,71.276,-9.59,1.97,50.2948,,,,NaN,,,,0 / 0,5050,2014-12-14 13:26:43:893
-0.77871,-10.72423,1.17436,0.48662,-9.72989,1.12453,-1.38983,-0.93688,0.65077,-2.39268,1.52689,-0.02793,219.0,-21.18,32.16,-4.44,86.686,71.276,-9.59,1.97,50.2948,,,,NaN,,,,0 / 0,5052,2014-12-14 13:26:43:895
-0.47465,-9.88865,1.91416,0.4136,-9.77672,0.64554,-0.88825,-0.11193,1.26863,-1.91864,1.90932,0.02959,219.0,-20.4,32.7,-2.16,122.018,85.516,-32.648,1.97,50.2948,,,,NaN,,,,0 / 0,5102,2014-12-14 13:26:43:945
-1.89202,-10.36031,2.2302,0.39714,-9.79528,-0.25812,-2.28916,-0.56503,2.48832,-1.40412,0.8888,-0.12593,219.0,-20.22,32.58,0.9,212.652,87.232,-123.022,1.97,50.2948,,,,NaN,,,,0 / 0,5153,2014-12-14 13:26:43:996
-1.1139,-8.94055,-0.77452,0.33833,-9.78405,-0.57431,-1.45223,0.84351,-0.20022,-0.94499,0.25709,-0.02367,101.0,-20.58,31.62,1.74,212.652,87.232,-123.022,1.97,50.2948,,,,NaN,,,,0 / 0,5203,2014-12-14 13:26:44:046
3.19327,-10.18074,0.35793,0.56264,-9.70205,-1.31352,2.07577,-0.85398,1.83127,-1.32742,1.0603,-0.12487,101.0,-21.36,30.9,2.94,248.39,84.262,-158.58,1.97,50.2948,,,,NaN,,,,0 / 0,5253,2014-12-14 13:26:44:096
-2.8473,-11.15039,1.32519,0.75597,-9.63023,-1.69061,-3.63724,-1.47737,2.90117,-1.05045,1.13807,-0.35177,101.0,-21.6,30.3,4.92,245.078,80.075,-155.402,1.97,50.2948,,,,NaN,,,,0 / 0,5302,2014-12-14 13:26:44:145
-0.88166,-10.71465,1.04028,0.7838,-9.61167,-1.78114,-2.41186,-0.93733,2.38627,-0.43366,0.90584,-0.03113,101.0,-21.96,29.88,5.64,245.078,80.075,-155.402,1.97,50.2948,,,,NaN,,,,0 / 0,5352,2014-12-14 13:26:44:195
0.8685,-13.19265,5.99867,0.80685,-9.63083,-1.66367,0.21742,-5.24136,10.55798,-0.12687,1.1615,-0.00343,71.0,-23.22,27.6,6.6,244.867,78.555,-156.248,1.97,51.8098,,,,NaN,,,,0 / 0,5403,2014-12-14 13:26:44:246
-2.15538,-14.06414,5.65391,0.78874,-9.76834,-0.35793,-4.19883,-5.41673,9.90302,1.60206,1.29573,-0.14191,71.0,-23.94,27.3,7.56,221.912,81.769,-144.167,1.97,51.8098,,,,NaN,,,,0 / 0,5453,2014-12-14 13:26:44:296
-1.28628,-14.80634,-7.926,0.56114,-9.73422,1.05016,-1.84743,-5.07212,-8.97616,2.96347,0.38173,0.64958,71.0,-23.52,26.1,7.44,94.538,83.026,-28.117,1.97,51.8098,,,,NaN,,,,0 / 0,5502,2014-12-14 13:26:44:345
0.12151,-15.25166,-5.08169,0.26935,-9.63816,1.79026,-0.14784,-5.61351,-6.87196,2.14747,-1.07449,1.02562,71.0,-24.0,25.74,6.66,94.538,83.026,-28.117,1.97,51.8098,,,,NaN,,,,0 / 0,5553,2014-12-14 13:26:44:396
2.80541,-11.43291,-2.53666,-0.01766,-9.18221,3.44346,2.82306,-2.2507,-5.98012,2.86866,-0.46622,0.76782,71.0,-24.96,27.6,0.9,70.0,75.796,-2.595,1.97,51.8098,,,,NaN,,,,0 / 0,5603,2014-12-14 13:26:44:446
3.0975,-8.8352,-2.642,-0.14156,-8.89356,4.1297,3.23906,0.05836,-6.7717,2.43296,-1.55918,0.85624,85.0,-24.78,28.02,-1.02,64.997,65.079,1.963,1.97,51.8098,,,,NaN,,,,0 / 0,5652,2014-12-14 13:26:44:495
0.19573,-6.73788,-3.18309,-0.00868,-8.24339,5.31214,0.2044,1.5055,-8.49523,2.09421,-2.14508,0.62934,85.0,-25.26,27.42,-3.84,67.158,60.023,1.437,1.97,49.8803,,,,NaN,,,,0 / 0,5703,2014-12-14 13:26:44:546
1.88603,-5.13137,-2.23499,0.30376,-7.88291,5.82569,1.58227,2.75154,-8.06068,1.43162,-1.54214,0.44505,85.0,-24.48,28.14,-6.66,67.158,60.023,1.437,1.97,49.8803,,,,NaN,,,,0 / 0,5753,2014-12-14 13:26:44:596
1.66816,-5.1218,-0.97085,0.50996,-7.78475,5.94211,1.1582,2.66295,-6.91296,0.89472,-1.18208,0.3577,123.0,-24.0,28.2,-7.26,67.069,52.544,-4.905,1.97,49.8803,,,,NaN,,,,0 / 0,5803,2014-12-14 13:26:44:646
0.65062,-5.46177,2.63482,0.68714,-7.7623,5.95363,-0.03651,2.30053,-3.31881,-0.2792,-0.49924,0.25543,123.0,-25.14,27.6,-8.82,71.931,52.329,-6.584,1.97,49.8803,,,,NaN,,,,0 / 0,5853,2014-12-14 13:26:44:696
0.93553,-6.01723,2.66834,0.7241,-7.82979,5.85996,0.21144,1.81256,-3.19162,-0.70424,-0.65797,0.19897,123.0,-25.32,27.18,-8.82,71.931,52.329,-6.584,1.97,49.8803,,,,NaN,,,,0 / 0,5903,2014-12-14 13:26:44:746
0.22924,-7.9685,7.16704,0.80236,-8.01698,5.59061,-0.57311,0.04848,1.57643,-0.85551,-0.82521,0.25117,165.0,-25.5,27.24,-8.34,75.348,54.836,-8.167,1.97,49.8803,,,,NaN,,,,0 / 0,5953,2014-12-14 13:26:44:796
2.84371,-10.06822,8.26598,1.29033,-8.01848,5.49634,1.55339,-2.04974,2.76964,0.43133,-0.79219,0.13506,165.0,-26.28,28.2,-7.02,76.509,54.851,-13.212,1.97,49.8803,,,,NaN,,,,0 / 0,6003,2014-12-14 13:26:44:846
3.6745,-7.67641,7.89727,1.35691,-7.90401,5.64418,2.31759,0.2276,2.25309,0.65717,-0.25849,0.35237,165.0,-26.16,28.38,-6.06,76.509,54.851,-13.212,1.97,49.4753,,,,NaN,,,,0 / 0,6053,2014-12-14 13:26:44:896
-2.70844,-19.51813,19.82459,1.71949,-7.89144,5.56233,-4.42793,-11.62669,14.26226,-0.46988,-0.5312,-0.0503,165.0,-24.78,28.92,-3.66,68.233,52.155,-13.926,1.97,49.4753,,,,NaN,,,,0 / 0,6103,2014-12-14 13:26:44:946
7.00484,-2.61507,-9.06086,1.91506,-7.66833,5.80519,5.08977,5.05326,-14.86605,1.76078,-0.56422,-0.19731,201.0,-24.96,28.98,-3.78,68.227,51.439,-18.257,1.97,49.4753,,,,NaN,,,,0 / 0,6153,2014-12-14 13:26:44:996
-1.4467,-19.51813,2.77608,1.37711,-7.92226,5.61365,-2.82381,-11.59587,-2.83758,-1.4968,2.459,0.29591,201.0,-25.5,29.1,-3.84,66.355,49.947,-17.845,1.97,49.4753,,,,NaN,,,,0 / 0,6203,2014-12-14 13:26:45:046
-0.37888,-13.35785,0.74579,1.1136,-8.16228,5.32051,-1.49249,-5.19557,-4.57472,-0.29624,0.20596,0.01362,201.0,-25.56,29.7,-3.96,66.355,49.947,-17.845,1.97,49.4753,,,,NaN,,,,0 / 0,6253,2014-12-14 13:26:45:096
0.89004,-8.21032,0.84874,0.97788,-8.5696,4.6666,-0.08784,0.35928,-3.81785,-0.92049,0.35403,-0.02686,201.0,-27.6,29.88,-4.98,75.087,58.578,-11.757,1.97,49.4753,,,,NaN,,,,0 / 0,6303,2014-12-14 13:26:45:146
1.20847,-9.84795,3.97318,0.90037,-8.83266,4.16471,0.3081,-1.01529,-0.19154,-0.87788,0.66829,-0.06628,201.0,-26.88,30.42,-5.64,84.06,64.247,-12.199,1.97,49.4753,,,,NaN,,,,0 / 0,6353,2014-12-14 13:26:45:196
-1.54486,-8.55747,4.1312,0.74579,-8.95252,3.93278,-2.29065,0.39504,0.19842,-0.68293,0.70451,-0.13978,201.0,-27.0,30.6,-5.28,84.06,64.247,-12.199,1.97,57.674,,,,NaN,,,,0 / 0,6403,2014-12-14 13:26:45:246
1.8573,-9.44094,3.49913,0.59062,-9.03886,3.758,1.26668,-0.40208,-0.25887,-0.23659,0.9655,-0.15363,207.0,-26.52,30.72,-4.08,81.964,66.654,-9.557,1.97,57.674,,,,NaN,,,,0 / 0,6453,2014-12-14 13:26:45:296
-0.9511,-9.7019,3.11605,0.51834,-9.07896,3.67061,-1.46944,-0.62294,-0.55456,-0.26642,1.01769,-0.16748,207.0,-26.64,30.42,-4.2,80.93,67.789,-8.038,1.97,57.674,,,,NaN,,,,0 / 0,6503,2014-12-14 13:26:45:346
-0.18256,-9.1273,3.72179,0.39878,-9.10171,3.62931,-3.79436,-0.23867,-0.26426,0.17034,0.62887,-0.02686,207.0,-27.48,30.12,-4.02,80.93,67.789,-8.038,1.97,57.674,,,,NaN,,,,0 / 0,6552,2014-12-14 13:26:45:395
-0.27833,-9.14405,3.25252,0.21862,-9.07148,3.71894,-0.49695,-0.07257,-0.46642,0.26622,0.02806,-0.10143,207.0,-27.18,30.24,-4.08,79.817,68.142,-6.27,1.97,57.674,,,,NaN,,,,0 / 0,6603,2014-12-14 13:26:45:446
2.34332,-9.26137,1.22703,0.29823,-9.12924,3.56916,2.0451,-0.13213,-2.34213,-0.0981,-0.20736,0.06475,173.0,-27.48,30.06,-5.22,80.937,68.579,-4.776,1.97,57.674,,,,NaN,,,,0 / 0,6652,2014-12-14 13:26:45:495
0.89723,-8.919,4.045,0.38128,-9.17099,3.45229,0.51595,0.25199,0.59271,-0.30796,-0.17434,-0.07693,173.0,-27.66,29.28,-6.0,80.937,68.579,-4.776,1.97,57.674,,,,NaN,,,,0 / 0,6703,2014-12-14 13:26:45:546
1.28269,-9.22306,3.64996,0.47899,-9.18431,3.40456,-0.42407,-0.16131,0.18495,-0.18439,0.11861,-0.06521,173.0,-27.48,29.46,-5.7,87.136,69.398,-7.189,1.97,47.1422,,,,NaN,,,,0 / 0,6753,2014-12-14 13:26:45:596
0.39205,-8.89506,2.86466,0.44278,-9.2289,3.28694,-1.65035,-0.08484,0.28626,-0.22807,0.02061,-0.08865,183.0,-27.42,29.58,-5.46,85.002,69.891,-7.659,1.97,47.1422,,,,NaN,,,,0 / 0,6803,2014-12-14 13:26:45:646
1.59394,-8.85914,2.84072,0.46627,-9.23937,3.25402,1.06677,0.19617,-0.13393,-0.09597,-0.02094,-0.07267,183.0,-27.48,29.52,-5.46,85.002,69.891,-7.659,1.97,47.1422,,,,NaN,,,,0 / 0,6852,2014-12-14 13:26:45:695
0.79428,-9.47924,3.86544,0.57566,-9.24461,3.22125,0.24376,-0.17657,0.6183,-0.03312,-0.08272,-0.12274,183.0,-28.02,29.34,-5.04,88.393,70.579,-9.229,1.97,47.1422,,,,NaN,,,,0 / 0,6903,2014-12-14 13:26:45:746
1.00018,-8.78971,2.87185,0.61995,-9.23668,3.23591,-0.24466,0.41824,-0.8453,0.00949,0.07493,-0.05243,183.0,-28.26,28.8,-4.98,89.436,70.353,-10.62,1.97,47.1422,,,,NaN,,,,0 / 0,6952,2014-12-14 13:26:45:795
0.76555,-9.39784,2.09373,0.6198,-9.2506,3.19581,-0.21578,0.33639,-1.51388,-0.05869,0.05363,-0.05137,183.0,-27.48,29.46,-4.86,89.436,70.353,-10.62,1.97,47.1422,,,,NaN,,,,0 / 0,7003,2014-12-14 13:26:45:846
0.98102,-9.77852,2.97001,0.6617,-9.28142,3.09675,0.25708,-0.32471,-0.04055,-0.07041,-0.02307,-0.06415,183.0,-28.62,29.1,-3.6,88.235,70.973,-11.446,1.97,47.1422,,,,NaN,,,,0 / 0,7052,2014-12-14 13:26:45:895
0.41839,-8.92618,3.20703,0.67412,-9.28651,3.07849,-0.25573,0.36033,0.12854,-0.0768,0.0483,-0.03219,183.0,-28.56,28.74,-3.54,90.532,71.255,-12.351,1.97,42.6103,,,,NaN,,,,0 / 0,7103,2014-12-14 13:26:45:946
0.27473,-9.17518,3.08253,0.65197,-9.29803,3.04827,-0.37724,0.12285,0.03427,-0.10023,0.07707,-0.0013,183.0,-28.2,28.62,-4.02,90.532,71.255,-12.351,1.97,42.6103,,,,NaN,,,,0 / 0,7152,2014-12-14 13:26:45:995
0.66978,-9.0435,2.53426,0.64584,-9.31629,2.99335,0.11732,0.25364,-0.60753,-0.08106,-0.04118,-0.02793,183.0,-28.62,28.74,-3.84,90.432,71.597,-11.845,1.97,42.6103,,,,NaN,,,,0 / 0,7203,2014-12-14 13:26:46:046
0.69851,-9.46967,2.80002,0.6626,-9.33559,2.92886,0.02634,-0.09337,-0.08814,-0.08745,0.01102,-0.01302,183.0,-28.5,28.44,-3.66,91.888,72.008,-12.597,1.97,42.6103,,,,NaN,,,,0 / 0,7253,2014-12-14 13:26:46:096
0.46148,-9.14645,2.66116,0.65227,-9.34906,2.88816,-0.18361,0.16116,-0.11612,-0.05123,-0.00922,0.0019,183.0,-28.8,28.8,-4.44,92.203,72.427,-12.726,1.97,42.6103,,,,NaN,,,,0 / 0,7302,2014-12-14 13:26:46:145
0.57401,-8.95252,2.33554,0.65511,-9.35953,2.85314,-0.08769,0.30451,-0.38083,-0.10023,-0.04651,-0.00769,183.0,-28.98,28.92,-4.38,92.203,72.427,-12.726,1.97,42.6103,,,,NaN,,,,0 / 0,7353,2014-12-14 13:26:46:196
0.85653,-9.2901,2.60369,0.66125,-9.37285,2.8081,0.19528,0.08275,-0.2044,-0.03845,-0.02307,-0.00449,183.0,-29.16,28.98,-4.26,92.865,72.741,-13.046,1.97,42.6103,,,,NaN,,,,0 / 0,7403,2014-12-14 13:26:46:246
0.7033,-9.24701,2.50793,0.69507,-9.39784,2.71473,0.00823,0.15083,-0.2068,-0.17587,-0.16049,-0.01089,183.0,-29.4,28.98,-3.84,93.944,73.104,-13.733,1.97,37.8443,,,,NaN,,,,0 / 0,7453,2014-12-14 13:26:46:296
0.47345,-9.47445,2.1488,0.70689,-9.4146,2.65263,-0.23343,-0.05986,-0.50383,-0.15563,-0.3565,-0.01728,183.0,-28.62,28.74,-4.02,93.944,73.104,-13.733,1.97,37.8443,,,,NaN,,,,0 / 0,7503,2014-12-14 13:26:46:346
0.8661,-9.46248,2.62764,0.75552,-9.43704,2.55806,0.11058,-0.02544,0.06958,-0.13006,-0.35863,-0.03965,183.0,-27.96,28.26,-4.2,98.204,74.218,-16.454,1.97,37.8443,,,,NaN,,,,0 / 0,7553,2014-12-14 13:26:46:396
0.61471,-9.59895,2.82875,0.81792,-9.45395,2.47486,-0.353,-0.27758,0.76794,-0.07254,-0.00816,0.02107,203.0,-28.44,28.2,-3.54,99.567,74.39,-17.606,1.97,37.8443,,,,NaN,,,,0 / 0,7603,2014-12-14 13:26:46:446
-0.11073,-9.42896,3.25492,0.74549,-9.44303,2.5386,-0.72036,0.4118,0.25768,0.09577,0.34125,0.04025,203.0,-28.26,28.8,-2.34,93.526,74.348,-16.366,1.97,37.8443,,,,NaN,,,,0 / 0,7653,2014-12-14 13:26:46:496
0.48782,-8.78492,1.78727,0.67591,-9.42881,2.60983,0.75866,0.70105,-1.38714,0.09471,0.20277,-0.00236,203.0,-28.62,28.74,-1.74,93.526,74.348,-16.366,1.97,37.8443,,,,NaN,,,,0 / 0,7703,2014-12-14 13:26:46:546
0.39684,-9.66599,2.20147,0.6611,-9.4348,2.59232,-0.30002,0.21802,-0.46956,-0.03738,0.04191,0.01681,203.0,-28.68,28.74,-2.34,91.828,74.043,-14.52,1.97,37.8443,,,,NaN,,,,0 / 0,7752,2014-12-14 13:26:46:595