ACCELEROMETER X (m/s²),ACCELEROMETER Y (m/s²),ACCELEROMETER Z (m/s²),GRAVITY X (m/s²),GRAVITY Y (m/s²),GRAVITY Z (m/s²),LINEAR ACCELERATION X (m/s²),LINEAR ACCELERATION Y (m/s²),LINEAR ACCELERATION Z (m/s²),GYROSCOPE X (rad/s),GYROSCOPE Y (rad/s),GYROSCOPE Z (rad/s),LIGHT (lux),MAGNETIC FIELD X (μT),MAGNETIC FIELD Y (μT),MAGNETIC FIELD Z (μT),ORIENTATION X (°),ORIENTATION Y (°),ORIENTATION Z (°),PROXIMITY (i),SOUND LEVEL (dB),LOCATION Latitude : ,LOCATION Longitude : ,LOCATION Altitude ( m),LOCATION Altitude-google ( m),LOCATION Speed ( Kmh),LOCATION Accuracy ( m),LOCATION ORIENTATION (°),Satellites in range,Time since start in ms ,YYYY-MO-DD HH-MI-SS_SSS
-0.97983,-9.34756,1.55503,0.49246,-9.54897,2.17827,-1.47228,0.20141,-0.62324,-0.64885,0.07067,0.07114,107.0,-8.46,30.6,5.82,39.578,76.837,-12.739,1.97,38.3518,,,,NaN,,,,0 / 0,5,2014-12-14 13:27:26:685
-0.88885,-9.85753,0.14485,0.394,-9.63412,1.78892,-1.28284,-0.22341,-1.64407,-0.91303,-0.00283,0.02533,107.0,-8.76,30.06,6.36,39.578,76.837,-12.739,1.97,38.3518,,,,NaN,,,,0 / 0,54,2014-12-14 13:27:26:734
0.2891,-9.4984,0.46807,0.4326,-9.7435,1.02412,-0.1435,0.24511,-0.55605,-1.1932,0.37001,-0.07374,107.0,-7.98,29.94,7.56,47.789,81.555,-16.652,1.97,41.9228,,,,NaN,,,,0 / 0,105,2014-12-14 13:27:26:785
-0.03172,-8.93336,0.65242,0.435,-9.77822,0.60843,-0.46672,0.84485,0.04399,-1.27842,0.59798,-0.11422,107.0,-7.74,29.64,8.46,69.658,85.626,-35.563,1.97,41.9228,,,,NaN,,,,0 / 0,154,2014-12-14 13:27:26:834
-0.39325,-8.84238,1.89501,0.43589,-9.79513,0.18974,-0.82914,0.95274,1.70527,-1.38921,0.78121,-0.09504,107.0,-7.86,28.98,9.06,69.658,85.626,-35.563,1.97,41.9228,,,,NaN,,,,0 / 0,204,2014-12-14 13:27:26:884
0.5764,-8.98364,0.2885,0.37783,-9.77897,-0.63252,0.19857,0.79532,0.92102,-1.13248,1.1679,0.1308,107.0,-7.98,27.0,11.34,135.998,87.394,-105.193,1.97,41.9228,,,,NaN,,,,0 / 0,255,2014-12-14 13:27:26:935
2.5612,-9.19194,-1.1552,0.46896,-9.74739,-0.97025,2.09223,0.55545,-0.18495,-1.09093,1.49493,-0.05882,107.0,-8.52,26.52,12.36,193.874,83.691,-154.203,1.97,41.9228,,,,NaN,,,,0 / 0,304,2014-12-14 13:27:26:984
-1.14742,-9.94132,-3.87262,0.69686,-9.64489,-1.63165,-1.84428,-0.29643,-2.24097,-1.43288,1.41823,-0.3017,65.0,-10.08,24.9,15.48,194.362,79.577,-156.873,1.97,41.9228,,,,NaN,,,,0 / 0,355,2014-12-14 13:27:27:035
0.11193,-13.29081,1.18154,0.66783,-9.53221,-2.20536,-0.5559,-3.7586,3.3869,-1.05897,0.52661,-0.11954,65.0,-10.74,23.88,16.26,194.362,79.577,-156.873,1.97,41.9228,,,,NaN,,,,0 / 0,405,2014-12-14 13:27:27:085
2.07757,-13.06336,3.77446,0.80864,-9.50707,-2.26566,1.26893,-3.55629,6.04012,-0.6872,1.2691,-0.21968,65.0,-11.64,23.04,16.68,202.056,75.8,-160.358,1.97,50.4004,,,,NaN,,,,0 / 0,454,2014-12-14 13:27:27:134
-4.60704,-17.15505,9.76236,1.04896,-9.53685,-2.02968,-5.656,-7.6182,11.79204,-0.59771,1.15192,-0.30703,65.0,-12.6,22.38,16.8,202.056,75.8,-160.358,1.97,50.4004,,,,NaN,,,,0 / 0,505,2014-12-14 13:27:27:185
-3.8385,-13.8726,1.41856,0.79787,-9.71058,-1.1142,-4.63637,-4.16202,2.53277,1.79807,0.3583,0.26076,65.0,-13.98,20.82,17.46,196.103,76.528,-152.67,1.97,50.4004,,,,NaN,,,,0 / 0,554,2014-12-14 13:27:27:234
0.63865,-11.54544,-2.46004,0.61606,-9.78645,-0.13198,0.0226,-1.75899,-2.32806,2.52351,-0.62281,0.379,65.0,-14.76,21.12,17.7,139.703,86.317,-102.092,1.97,50.4004,,,,NaN,,,,0 / 0,605,2014-12-14 13:27:27:285
2.37684,-12.8814,-1.88065,0.50727,-9.7655,0.74026,1.86957,-3.1159,-2.6209,2.77917,-0.9605,0.37474,65.0,-16.32,22.56,17.22,139.703,86.317,-102.092,1.97,50.4004,,,,NaN,,,,0 / 0,655,2014-12-14 13:27:27:335
1.62506,-12.48397,-2.74256,0.25768,-9.48029,2.49581,1.36739,-3.00368,-5.23836,3.11686,-0.15729,0.53027,57.0,-16.56,26.28,14.04,76.171,84.75,-34.421,1.97,50.4004,,,,NaN,,,,0 / 0,705,2014-12-14 13:27:27:385
-0.70928,-9.06744,-2.5606,0.01781,-8.85391,4.21649,-0.72709,-0.21353,-6.77709,3.05614,-0.54931,0.75398,57.0,-15.36,30.3,10.26,38.035,69.435,-1.558,1.97,50.4004,,,,NaN,,,,0 / 0,754,2014-12-14 13:27:27:434
-0.21368,-7.1018,-2.95564,0.10804,-8.48041,4.92353,-0.32172,1.37861,-7.87917,2.51179,-1.99061,0.52281,57.0,-13.62,36.06,1.14,36.89,59.856,-1.257,1.97,52.5065,,,,NaN,,,,0 / 0,805,2014-12-14 13:27:27:485
1.50775,-4.23594,-3.06578,0.43185,-7.91688,5.77122,0.84022,3.87816,-8.90628,0.79459,-0.56103,0.43013,57.0,-12.48,37.92,-5.4,36.89,59.856,-1.257,1.97,52.5065,,,,NaN,,,,0 / 0,855,2014-12-14 13:27:27:535
1.09834,-2.37086,-1.66277,0.48303,-7.87647,5.82225,0.46014,4.94148,-7.85582,0.2513,-0.37354,0.4834,57.0,-12.3,37.62,-10.38,38.817,53.434,-4.743,1.97,52.5065,,,,NaN,,,,0 / 0,905,2014-12-14 13:27:27:585
-0.35494,-4.6262,0.89902,0.55545,-8.12188,5.46776,-1.08158,1.52645,-0.55456,-1.47549,-0.7581,0.08605,77.0,-12.3,35.16,-16.86,65.754,55.915,-5.801,1.97,52.5065,,,,NaN,,,,0 / 0,955,2014-12-14 13:27:27:635
1.27551,-14.65072,13.43267,0.83079,-8.27915,5.19003,0.8661,-6.26862,7.37354,-0.43473,-1.56131,0.04557,77.0,-12.6,33.9,-18.12,65.754,55.915,-5.801,1.97,52.5065,,,,NaN,,,,0 / 0,1005,2014-12-14 13:27:27:685
1.57957,-8.71789,5.95558,1.06138,-8.26254,5.17447,0.48468,-2.9118,3.33093,0.49205,-0.59405,0.38007,77.0,-12.24,33.18,-18.3,83.157,57.59,-9.094,1.97,52.5065,,,,NaN,,,,0 / 0,1054,2014-12-14 13:27:27:734
2.6833,-4.47057,2.62045,1.1573,-8.15914,5.31588,1.526,3.68857,-2.69542,-0.92368,-1.50272,0.29698,77.0,-13.08,32.64,-17.4,76.472,56.305,-12.282,1.97,52.5065,,,,NaN,,,,0 / 0,1104,2014-12-14 13:27:27:784
6.42783,-11.38263,-0.9086,1.26593,-8.53518,4.66016,5.1619,-2.84745,-5.56876,0.43985,-0.73786,0.38007,77.0,-14.04,32.76,-16.38,76.472,56.305,-12.282,1.97,50.1723,,,,NaN,,,,0 / 0,1155,2014-12-14 13:27:27:835
-5.39713,-3.73555,-13.57871,1.36619,-8.68856,4.3374,-9.49929,-5.07152,-6.22627,-2.04647,0.09837,0.00509,97.0,-14.22,31.5,-16.62,111.533,62.373,-17.483,1.97,50.1723,,,,NaN,,,,0 / 0,1204,2014-12-14 13:27:27:884
-0.7428,-11.6867,0.10175,1.07799,-9.34936,2.75647,-0.97294,-7.5356,-0.82091,-1.67576,-0.52374,-0.01088,97.0,-13.08,30.9,-16.08,111.533,62.373,-17.483,1.97,50.1723,,,,NaN,,,,0 / 0,1255,2014-12-14 13:27:27:935
0.54049,-8.19595,-3.09451,1.04357,-9.51156,2.1476,-0.03531,1.3822,-3.7155,-2.19668,0.44884,0.19471,97.0,-13.2,30.06,-14.88,142.878,72.434,-21.359,1.97,50.1723,,,,NaN,,,,0 / 0,1305,2014-12-14 13:27:27:985
1.72083,-9.31404,1.90698,0.8055,-9.72031,1.01873,0.91533,0.40627,0.88825,-2.41079,1.90612,0.25543,133.0,-12.06,30.6,-11.28,154.321,77.854,-28.416,1.97,50.1723,,,,NaN,,,,0 / 0,1355,2014-12-14 13:27:28:035
0.18615,-9.00998,1.13605,0.74056,-9.77493,0.27204,-0.55441,0.76495,0.86401,-1.92503,1.87843,0.00829,133.0,-12.06,30.72,-8.34,196.363,85.386,-69.829,1.97,50.1723,,,,NaN,,,,0 / 0,1404,2014-12-14 13:27:28:084
-2.08116,-9.67796,1.38026,0.63925,-9.77238,-0.5149,-2.72041,0.09442,1.89516,-1.30079,0.85897,-0.01621,133.0,-12.6,30.84,-4.2,246.102,85.199,-128.851,1.97,50.1723,,,,NaN,,,,0 / 0,1455,2014-12-14 13:27:28:135
0.08799,-8.97407,-0.63087,0.59675,-9.75502,-0.81014,-0.50877,0.78096,0.17927,-1.14739,0.77162,-0.04391,133.0,-11.88,30.24,-2.1,246.102,85.199,-128.851,1.97,50.1723,,,,NaN,,,,0 / 0,1504,2014-12-14 13:27:28:184
2.42952,-12.09371,0.45849,0.79039,-9.66015,-1.49234,1.63913,-2.43356,1.95083,-1.58095,1.17961,-0.19305,63.0,-11.04,29.7,-0.3,266.567,82.362,-150.023,1.97,53.2956,,,,NaN,,,,0 / 0,1555,2014-12-14 13:27:28:235
-3.50092,-13.01787,3.48955,0.94751,-9.60374,-1.74403,-4.44843,-3.41413,5.23358,-0.90558,1.16364,-0.45084,63.0,-11.04,29.4,0.54,269.166,78.323,-151.485,1.97,53.2956,,,,NaN,,,,0 / 0,1605,2014-12-14 13:27:28:285
1.76393,-13.88936,11.45266,0.88615,-9.66853,-1.38071,0.87777,-4.22083,12.83337,-0.34312,1.0145,0.06368,63.0,-11.22,28.38,2.34,269.166,78.323,-151.485,1.97,53.2956,,,,NaN,,,,0 / 0,1655,2014-12-14 13:27:28:335
-1.3629,-14.55974,8.79271,0.95289,-9.7236,-0.8459,-2.31579,-4.83614,9.63861,2.92192,1.88482,0.11482,57.0,-11.1,27.36,3.42,217.374,82.534,-131.596,1.97,53.2956,,,,NaN,,,,0 / 0,1705,2014-12-14 13:27:28:385
-2.25594,-15.93401,-8.94833,0.53765,-9.72525,1.14114,-2.79358,-6.20876,-10.08946,3.04869,0.99639,0.79126,57.0,-12.84,24.9,5.46,80.974,82.609,-25.228,1.97,53.2956,,,,NaN,,,,0 / 0,1755,2014-12-14 13:27:28:435
2.14939,-16.46792,0.08499,0.13602,-9.59282,2.03253,2.52708,-5.68728,-1.99242,2.81007,-1.78289,0.86157,57.0,-13.62,24.18,5.94,80.974,82.609,-25.228,1.97,53.2956,,,,NaN,,,,0 / 0,1805,2014-12-14 13:27:28:485
2.71203,-14.16709,-0.77692,0.04788,-9.43719,2.66594,2.4171,-3.43987,-5.79397,3.00395,-1.05211,0.92974,57.0,-15.0,23.94,4.32,59.854,78.011,-3.829,1.97,53.2956,,,,NaN,,,,0 / 0,1854,2014-12-14 13:27:28:534
3.64577,-7.8464,-3.16633,-0.13946,-8.83086,4.26228,2.41814,2.40707,-7.37115,2.43829,-2.30913,0.65171,57.0,-14.4,25.68,3.6,42.141,64.223,1.874,1.97,51.3993,,,,NaN,,,,0 / 0,1905,2014-12-14 13:27:28:585
-0.03172,-3.58472,-4.31315,0.0187,-8.51468,4.86517,-0.03801,3.52471,-9.55945,2.27744,-2.46359,0.41203,65.0,-13.38,27.48,1.86,42.141,64.223,1.874,1.97,51.3993,,,,NaN,,,,0 / 0,1954,2014-12-14 13:27:28:634
1.60112,-4.8704,-2.9724,0.69686,-7.82231,5.87343,0.91384,3.73002,-8.89611,0.7573,-1.05638,0.42587,65.0,-12.6,30.3,-2.52,39.598,55.497,-4.016,1.97,51.3993,,,,NaN,,,,0 / 0,2004,2014-12-14 13:27:28:684
1.97462,-4.81773,-2.22062,0.82929,-7.81662,5.8637,1.14533,2.99889,-8.08432,0.02866,-0.53333,0.48766,65.0,-12.3,31.2,-4.26,38.477,52.906,-6.766,1.97,51.3993,,,,NaN,,,,0 / 0,2055,2014-12-14 13:27:28:735
1.59394,-6.40509,3.03226,0.90591,-8.12068,5.42257,0.68803,1.7156,-2.39031,-1.30185,-0.11362,0.07008,79.0,-13.02,31.44,-8.64,53.948,55.902,-9.484,1.97,51.3993,,,,NaN,,,,0 / 0,2104,2014-12-14 13:27:28:784
0.52852,-12.38341,19.82459,0.98028,-8.28214,5.15921,-0.45176,-4.10127,14.66538,-1.19746,-0.93494,-0.10782,79.0,-12.84,31.8,-9.36,53.948,55.902,-9.484,1.97,51.3993,,,,NaN,,,,0 / 0,2155,2014-12-14 13:27:28:835
2.94666,-7.30291,6.2764,1.34988,-8.18458,5.23073,1.59678,0.88166,1.04567,0.58153,-0.41935,0.2501,79.0,-12.3,31.62,-9.78,58.748,57.8,-13.58,1.97,51.3993,,,,NaN,,,,0 / 0,2204,2014-12-14 13:27:28:884
7.85238,-13.01787,-1.49997,1.55623,-8.03374,5.40446,6.29615,-4.98413,-6.90443,0.53147,-0.72721,-0.05882,101.0,-11.82,31.62,-8.88,46.611,55.006,-16.064,1.97,50.608,,,,NaN,,,,0 / 0,2255,2014-12-14 13:27:28:935
-0.41001,1.04088,-12.95143,1.42395,-8.20508,5.17866,-1.83396,9.24596,-18.13009,-0.16309,-0.18499,0.42907,101.0,-11.94,31.68,-8.7,49.897,56.707,-17.197,1.97,50.608,,,,NaN,,,,0 / 0,2305,2014-12-14 13:27:28:985
-4.58789,-11.15758,-6.37935,1.26339,-8.51258,4.70221,-5.85128,-2.64499,-11.08156,-1.69707,0.2752,-0.20476,101.0,-12.72,31.02,-9.24,49.897,56.707,-17.197,1.97,50.608,,,,NaN,,,,0 / 0,2355,2014-12-14 13:27:29:035
0.34177,-8.4665,-3.77925,1.18917,-9.08749,3.48925,-0.8474,0.621,-7.2685,-2.05926,0.2752,0.15423,101.0,-13.26,30.48,-9.06,81.3,64.467,-15.698,1.97,50.608,,,,NaN,,,,0 / 0,2404,2014-12-14 13:27:29:084
-0.77871,-9.51037,1.23661,0.92865,-9.52099,2.15867,-1.70736,0.01062,-0.92207,-2.49815,1.78468,0.40457,143.0,-13.44,30.42,-6.84,105.952,71.022,-20.776,1.97,50.608,,,,NaN,,,,0 / 0,2455,2014-12-14 13:27:29:135
1.03609,-8.71789,2.74974,0.71856,-9.66434,1.50176,0.31753,0.94646,1.24798,-1.99001,1.75273,0.16808,143.0,-13.68,30.48,-5.16,116.877,80.226,-25.57,1.97,50.608,,,,NaN,,,,0 / 0,2504,2014-12-14 13:27:29:184
0.59556,-8.69155,0.36033,0.60154,-9.77762,0.4546,-0.00599,1.08607,-0.09427,-2.08802,1.72503,-0.1025,143.0,-14.16,29.94,-3.0,116.877,80.226,-25.57,1.97,50.608,,,,NaN,,,,0 / 0,2555,2014-12-14 13:27:29:235
-2.06201,-9.71387,1.13844,0.55905,-9.77732,-0.51415,-1.2818,0.62683,0.80041,-1.57882,0.72688,-0.0748,119.0,-14.4,29.88,1.32,195.993,86.37,-99.739,1.97,50.608,,,,NaN,,,,0 / 0,2604,2014-12-14 13:27:29:284
1.21566,-9.8288,0.20231,0.55695,-9.74934,-0.90052,0.6587,-0.07946,1.10283,-1.38707,0.91756,-0.11528,119.0,-13.86,29.52,2.34,241.995,83.802,-148.264,1.97,51.8236,,,,NaN,,,,0 / 0,2655,2014-12-14 13:27:29:335
-1.13306,-11.86866,1.8591,0.80011,-9.65686,-1.50939,-1.93317,-2.21179,3.36849,-1.31677,1.19027,-0.24844,119.0,-13.62,28.92,3.54,245.042,79.968,-152.072,1.97,51.8236,,,,NaN,,,,0 / 0,2705,2014-12-14 13:27:29:385
-3.85766,-12.31158,1.45448,0.80236,-9.64579,-1.57673,-4.66001,-2.66579,3.03121,-0.30903,0.87282,-0.16641,55.0,-13.86,28.62,4.08,245.042,79.968,-152.072,1.97,51.8236,,,,NaN,,,,0 / 0,2755,2014-12-14 13:27:29:435
-1.38205,-15.56291,10.40161,0.79054,-9.69053,-1.2809,-2.17259,-5.87238,11.68251,0.25769,0.96337,-0.13339,55.0,-15.3,27.66,6.78,242.351,79.796,-153.57,1.97,51.8236,,,,NaN,,,,0 / 0,2805,2014-12-14 13:27:29:485
-2.49296,-13.42249,8.19416,0.68325,-9.77328,-0.432,-3.17621,-3.64921,8.62616,2.17091,0.94632,0.10736,55.0,-16.2,26.46,7.08,189.92,85.272,-122.304,1.97,51.8236,,,,NaN,,,,0 / 0,2855,2014-12-14 13:27:29:535
0.59795,-15.39292,-8.03853,0.44637,-9.68275,1.48874,0.15158,-5.71017,-9.52728,3.07638,0.88667,0.55157,55.0,-17.94,24.9,5.82,76.559,80.881,-16.69,1.97,51.8236,,,,NaN,,,,0 / 0,2905,2014-12-14 13:27:29:585
1.55803,-16.27399,-5.90051,0.19034,-9.56065,2.17468,1.36769,-6.71334,-8.07519,2.36266,0.18679,0.92868,55.0,-18.84,24.72,5.34,76.559,80.881,-16.69,1.97,51.8236,,,,NaN,,,,0 / 0,2955,2014-12-14 13:27:29:635
0.50218,-10.90619,-2.84551,-0.23703,-8.92139,4.06506,0.99569,-1.38175,-7.19936,2.94749,-1.75412,1.12362,65.0,-19.86,24.9,3.72,59.274,72.015,0.971,1.97,49.5224,,,,NaN,,,,0 / 0,3005,2014-12-14 13:27:29:685
0.63626,-9.46248,-2.90536,-0.25364,-8.80468,4.31106,0.88989,-0.65781,-7.21642,2.92405,-1.93735,1.06077,65.0,-22.2,25.26,-0.24,62.27,65.467,3.337,1.97,49.5224,,,,NaN,,,,0 / 0,3054,2014-12-14 13:27:29:734
1.39043,-4.56634,-4.71777,0.39848,-7.8868,5.81477,0.99195,3.32046,-10.53254,1.82044,-2.48809,0.52494,65.0,-23.76,26.34,-3.42,64.086,56.179,-0.993,1.97,49.5224,,,,NaN,,,,0 / 0,3104,2014-12-14 13:27:29:784
1.81421,-4.23594,-4.38498,0.66843,-7.67267,6.07065,1.14578,3.43673,-10.45563,1.21111,-1.63694,0.53666,87.0,-24.72,28.38,-5.88,64.086,56.179,-0.993,1.97,49.5224,,,,NaN,,,,0 / 0,3155,2014-12-14 13:27:29:835
2.14461,-4.62859,-1.84473,0.79577,-7.68928,6.03429,1.34883,3.06069,-7.87902,0.22254,-0.57594,0.63999,87.0,-25.68,29.28,-6.3,66.088,51.481,-6.283,1.97,49.5224,,,,NaN,,,,0 / 0,3205,2014-12-14 13:27:29:885
2.98018,-8.20074,6.60201,0.74415,-8.0945,5.48601,2.23603,-0.10624,1.116,-1.19959,-0.43533,0.21708,87.0,-27.06,30.72,-6.24,67.044,53.43,-7.009,1.97,49.5224,,,,NaN,,,,0 / 0,3255,2014-12-14 13:27:29:935
1.91716,-12.8407,11.36168,1.07859,-8.14268,5.35763,0.83857,-4.69802,6.00406,0.06382,-1.41004,0.35237,87.0,-26.64,33.12,-4.98,68.776,56.132,-11.383,1.97,49.5224,,,,NaN,,,,0 / 0,3305,2014-12-14 13:27:29:985
3.36086,-8.78971,5.92685,1.1784,-8.08537,5.42302,2.18246,-0.70434,0.50383,0.24065,-0.01774,0.28632,117.0,-26.7,34.02,-4.02,68.776,56.132,-11.383,1.97,49.5224,,,,NaN,,,,0 / 0,3355,2014-12-14 13:27:30:035
-1.61429,-19.51813,-2.41695,1.38909,-8.23456,5.1414,-5.29508,-11.24242,-7.01531,-0.12261,-0.49072,0.03386,117.0,-26.34,34.98,-2.1,61.526,55.349,-12.965,1.97,50.4613,,,,NaN,,,,0 / 0,3405,2014-12-14 13:27:30:085
7.37833,0.75358,-10.00657,1.26893,-8.50166,4.72047,4.3992,8.94908,-16.63192,-0.61795,0.24325,0.01894,117.0,-27.06,36.78,0.66,63.372,60.103,-15.046,1.97,50.4613,,,,NaN,,,,0 / 0,3455,2014-12-14 13:27:30:135
-6.45297,-4.93265,-11.99854,1.26803,-8.65743,4.42867,-11.643,-1.08383,-9.3941,-2.708,1.07841,0.14784,145.0,-27.48,37.32,0.66,63.372,60.103,-15.046,1.97,50.4613,,,,NaN,,,,0 / 0,3505,2014-12-14 13:27:30:185
-1.8585,-19.0752,3.81755,0.93538,-9.03961,3.68528,-2.79388,-10.0356,0.13228,-1.98895,1.38841,0.21602,145.0,-27.42,38.34,0.6,70.213,67.188,-14.242,1.97,50.4613,,,,NaN,,,,0 / 0,3554,2014-12-14 13:27:30:234
1.12707,-8.27017,-1.80882,0.867,-9.46398,2.41904,0.26007,1.19381,-4.22786,-1.98575,0.77481,-0.03219,145.0,-27.06,38.76,1.32,84.816,74.809,-19.718,1.97,50.4613,,,,NaN,,,,0 / 0,3604,2014-12-14 13:27:30:284
-0.35733,-8.98364,0.14485,0.72499,-9.63008,1.70512,-1.08233,0.64643,-1.56027,-2.27657,1.78362,0.18193,191.0,-26.88,39.72,2.94,84.816,74.809,-19.718,1.97,50.4613,,,,NaN,,,,0 / 0,3655,2014-12-14 13:27:30:335
0.2077,-8.64367,-0.1257,0.49081,-9.7842,0.44682,-0.28311,1.14054,-0.57251,-1.84727,1.86564,0.06901,191.0,-26.64,39.3,5.94,100.65,83.132,-29.139,1.97,50.4613,,,,NaN,,,,0 / 0,3705,2014-12-14 13:27:30:385
-0.38128,-10.37946,2.70904,0.50129,-9.79004,-0.27339,-0.88256,-0.58942,2.98243,-1.93142,1.84967,-0.12061,191.0,-27.12,39.24,8.28,193.177,86.662,-118.607,1.97,51.5029,,,,NaN,,,,0 / 0,3754,2014-12-14 13:27:30:434
-1.47064,-9.42896,-0.26456,0.51221,-9.74575,-0.96486,-1.98285,0.31678,0.7003,-1.28907,0.53833,-0.17281,191.0,-28.62,37.02,10.74,227.044,83.604,-152.038,1.97,51.5029,,,,NaN,,,,0 / 0,3805,2014-12-14 13:27:30:485
1.01215,-10.38425,-0.38427,0.56219,-9.70295,-1.30768,0.44996,-0.6813,0.92341,-1.35192,0.80571,-0.14617,79.0,-29.46,36.42,10.92,227.044,83.604,-152.038,1.97,51.5029,,,,NaN,,,,0 / 0,3854,2014-12-14 13:27:30:534
-3.08672,-12.39059,2.393,0.77393,-9.61796,-1.75121,-3.86065,-2.77264,4.14421,-0.78733,1.16577,-0.35283,79.0,-30.78,35.46,12.3,232.668,81.654,-156.737,1.97,51.5029,,,,NaN,,,,0 / 0,3905,2014-12-14 13:27:30:585
-0.4148,-12.92929,3.717,0.72335,-9.6639,-1.50296,-0.52762,-5.26455,8.68916,-0.25044,0.88347,-0.1483,79.0,-31.44,34.38,13.14,233.124,79.092,-156.461,1.97,51.5029,,,,NaN,,,,0 / 0,3954,2014-12-14 13:27:30:634
-5.01884,-15.66825,10.45668,0.67172,-9.71432,-1.16313,-5.69057,-5.95393,11.61981,1.96425,0.57241,0.15956,61.0,-32.88,33.54,13.86,222.313,82.128,-149.993,1.97,51.5029,,,,NaN,,,,0 / 0,4005,2014-12-14 13:27:30:685
2.27629,-14.10723,-2.85748,0.47181,-9.78091,0.53331,1.80448,-4.32632,-3.39079,3.20422,0.32101,0.23093,61.0,-33.72,33.0,13.56,222.313,82.128,-149.993,1.97,51.5029,,,,NaN,,,,0 / 0,4054,2014-12-14 13:27:30:734
1.76632,-15.60122,-2.77368,0.11223,-9.55631,2.19922,1.39717,-5.48392,-3.31298,2.47664,0.79399,0.70391,61.0,-33.06,34.2,10.68,76.12,81.505,-14.445,1.97,50.7106,,,,NaN,,,,0 / 0,4105,2014-12-14 13:27:30:785
-1.58317,-12.41693,-2.17274,-0.05776,-9.37539,2.87589,-0.45565,-4.52594,-3.02492,2.77917,-0.76769,0.77635,61.0,-32.1,35.7,6.66,60.715,72.943,1.151,1.97,50.7106,,,,NaN,,,,0 / 0,4155,2014-12-14 13:27:30:835
1.01933,-8.92139,-3.01071,-0.33773,-8.76757,4.38019,2.01173,2.07742,-8.45138,2.8367,-1.68488,0.90737,61.0,-30.36,38.52,-1.68,59.442,63.386,4.409,1.97,50.7106,,,,NaN,,,,0 / 0,4204,2014-12-14 13:27:30:884
0.80864,-4.97336,-4.63877,-0.16251,-8.30623,5.21068,1.20728,3.24564,-9.89209,2.29981,-2.50087,0.53773,77.0,-28.86,39.3,-4.86,59.442,63.386,4.409,1.97,50.7106,,,,NaN,,,,0 / 0,4254,2014-12-14 13:27:30:934
2.15658,-3.69485,-3.18788,0.41794,-7.77547,5.96141,1.61803,4.04321,-9.1882,1.30804,-1.66251,0.39072,77.0,-27.06,38.94,-8.94,61.308,54.678,-1.459,1.97,50.7106,,,,NaN,,,,0 / 0,4305,2014-12-14 13:27:30:985
1.36649,-3.91751,-2.63721,0.64868,-7.8241,5.87642,0.39205,3.48132,-8.4014,0.34824,-0.61855,0.39498,77.0,-26.04,36.78,-13.14,68.291,52.924,-6.299,1.97,50.7106,,,,NaN,,,,0 / 0,4355,2014-12-14 13:27:31:035
1.30185,-6.45058,1.3611,0.57685,-7.99693,5.64687,0.70524,2.73493,-5.18434,-0.50077,-0.08592,0.52814,105.0,-26.04,36.78,-13.14,68.291,52.924,-6.299,1.97,50.7106,,,,NaN,,,,0 / 0,4405,2014-12-14 13:27:31:085
-0.84575,-12.97478,14.51245,0.64045,-8.20553,5.33204,-1.4862,-4.76925,9.18042,-0.17267,-2.02151,0.16595,105.0,-25.26,35.04,-12.6,72.731,55.434,-5.717,1.97,50.7106,,,,NaN,,,,0 / 0,4454,2014-12-14 13:27:31:134
1.06722,-12.74972,11.04086,0.84889,-8.19296,5.32231,0.21832,-4.55676,5.71855,0.19165,-1.75306,0.18832,105.0,-25.26,35.04,-12.6,72.731,55.434,-5.717,1.97,49.9803,,,,NaN,,,,0 / 0,4504,2014-12-14 13:27:31:184
4.98413,-13.35545,6.55892,1.12737,-8.08956,5.42766,3.85676,-5.2659,1.13126,0.14478,-0.59618,0.1798,147.0,-23.94,35.16,-11.4,76.783,56.012,-10.391,1.97,49.9803,,,,NaN,,,,0 / 0,4554,2014-12-14 13:27:31:234
-2.77548,-17.24364,2.87185,1.36574,-8.3182,5.01121,-4.14122,-8.92543,-2.13937,-0.58387,-1.30565,0.2565,147.0,-23.4,35.16,-10.08,75.048,58.019,-15.245,1.97,49.9803,,,,NaN,,,,0 / 0,4605,2014-12-14 13:27:31:285
-4.39635,-5.16489,-14.5364,1.25247,-8.51423,4.70221,-5.64882,3.34934,-19.23861,-2.1008,0.42541,-0.34431,147.0,-22.38,34.14,-8.1,74.726,60.251,-14.915,1.97,49.9803,,,,NaN,,,,0 / 0,4655,2014-12-14 13:27:31:335
-3.13221,-19.51813,3.78164,0.96412,-8.93142,3.93337,-4.09633,-10.58671,-0.15173,-2.17431,1.57376,0.21602,147.0,-22.32,33.78,-7.44,74.726,60.251,-14.915,1.97,49.9803,,,,NaN,,,,0 / 0,4705,2014-12-14 13:27:31:385
1.898,-7.74584,-1.90938,0.81388,-9.3543,2.82935,1.08412,1.60845,-4.73872,-1.97297,0.59905,-0.00875,205.0,-21.84,33.96,-5.4,81.118,65.609,-13.772,1.97,49.9803,,,,NaN,,,,0 / 0,4754,2014-12-14 13:27:31:434
0.78709,-9.73303,1.44011,0.63012,-9.66749,1.52092,0.15697,-0.06554,-0.0808,-2.20839,1.65259,0.17447,205.0,-21.78,33.72,-3.36,95.738,76.606,-19.398,1.97,49.9803,,,,NaN,,,,0 / 0,4805,2014-12-14 13:27:31:485
-0.87209,-8.81365,1.43054,0.53091,-9.7444,0.96756,-1.403,0.93075,0.46298,-1.89947,1.87949,0.06794,205.0,-21.36,34.08,-1.56,95.738,76.606,-19.398,1.97,48.8467,,,,NaN,,,,0 / 0,4854,2014-12-14 13:27:31:534
-1.54007,-10.3651,3.56138,0.45939,-9.79603,-0.00284,-1.99946,-0.56907,3.56422,-1.55858,1.52796,-0.09398,169.0,-21.0,33.72,1.26,130.398,86.154,-45.212,1.97,48.8467,,,,NaN,,,,0 / 0,4905,2014-12-14 13:27:31:585
1.04567,-9.0411,-1.21745,0.4133,-9.79423,-0.2698,-1.6086,0.68609,1.20473,-1.06856,0.87921,-0.07693,169.0,-21.42,33.78,2.28,210.056,87.115,-123.136,1.97,48.8467,,,,NaN,,,,0 / 0,4955,2014-12-14 13:27:31:635
1.97701,-11.05942,-0.24301,0.67965,-9.69367,-1.31965,0.77901,0.48737,-0.15188,-1.38068,0.7077,-0.16641,169.0,-21.84,33.3,4.32,210.056,87.115,-123.136,1.97,48.8467,,,,NaN,,,,0 / 0,5005,2014-12-14 13:27:31:685
-3.95343,-11.71064,-0.50877,0.81223,-9.65881,-1.48964,-2.43505,-1.51523,2.2923,-0.84805,1.30105,-0.43806,73.0,-22.56,32.16,5.94,238.519,81.294,-152.75,1.97,48.8467,,,,NaN,,,,0 / 0,5054,2014-12-14 13:27:31:734
-2.67013,-11.61487,1.60531,0.85398,-9.63816,-1.59633,-5.25512,-2.29514,1.09235,-0.69785,1.22649,-0.49025,73.0,-22.98,30.9,6.96,238.519,81.294,-152.75,1.97,48.8467,,,,NaN,,,,0 / 0,5105,2014-12-14 13:27:31:785
0.57401,-13.98992,11.16297,0.88915,-9.67183,-1.35512,-0.31514,-4.31809,12.51808,0.79033,1.30745,-0.27401,73.0,-23.82,29.7,8.76,235.922,79.284,-153.187,1.97,48.8467,,,,NaN,,,,0 / 0,5154,2014-12-14 13:27:31:834
-3.64936,-13.74092,1.82318,0.93284,-9.76191,0.07602,-4.5822,-3.97901,1.74717,2.65773,1.42569,-0.07587,73.0,-24.6,28.98,9.06,196.26,83.373,-123.934,1.97,50.7787,,,,NaN,,,,0 / 0,5205,2014-12-14 13:27:31:885
-0.99659,-15.56051,-6.44399,0.70898,-9.72061,1.08562,-1.70557,-5.83991,-7.52961,3.02632,0.99639,0.57714,73.0,-25.56,28.62,8.88,196.26,83.373,-123.934,1.97,50.7787,,,,NaN,,,,0 / 0,5254,2014-12-14 13:27:31:934
0.1239,-15.00745,0.01556,0.11163,-9.45141,2.61357,0.45999,-5.36451,-2.2317,2.53097,-1.23108,1.01923,73.0,-26.34,28.32,4.62,80.444,79.701,-16.093,1.97,50.7787,,,,NaN,,,,0 / 0,5305,2014-12-14 13:27:31:985
0.74879,-14.44482,-2.20626,-0.0419,-9.21274,3.36086,0.79069,-5.23208,-5.56712,2.95494,-1.09153,0.98407,73.0,-26.64,28.5,1.74,65.779,69.956,0.714,1.97,50.7787,,,,NaN,,,,0 / 0,5355,2014-12-14 13:27:32:035
3.12383,-8.74901,-3.31238,-0.29164,-8.70307,4.51038,3.41548,-0.04594,-7.82275,2.5576,-1.45478,1.20671,93.0,-26.1,28.98,-2.76,65.779,69.956,0.714,1.97,50.7787,,,,NaN,,,,0 / 0,5404,2014-12-14 13:27:32:084
1.28269,-3.70922,-3.94205,-0.02604,-7.97374,5.70882,1.30873,4.26452,-9.65088,2.13149,-2.19088,0.836,93.0,-25.5,29.4,-4.8,64.156,57.577,2.354,1.97,50.7787,,,,NaN,,,,0 / 0,5454,2014-12-14 13:27:32:134
1.92673,-4.7483,-1.69869,0.21443,-7.76619,5.98431,2.04749,3.78164,-8.91361,0.89153,-1.33974,0.38859,93.0,-25.26,29.34,-8.1,66.639,52.366,-2.052,1.97,50.7787,,,,NaN,,,,0 / 0,5505,2014-12-14 13:27:32:185
0.81822,-6.24946,0.53989,0.58044,-7.71621,6.02441,0.01032,1.16987,-5.54677,0.49951,-1.0862,0.51536,135.0,-26.1,28.74,-9.78,71.987,51.891,-5.503,1.97,52.4967,,,,NaN,,,,0 / 0,5555,2014-12-14 13:27:32:235
1.57239,-5.51684,1.08816,0.73427,-7.96207,5.6777,0.92072,2.33255,-4.75414,-0.64352,-0.79432,0.18193,135.0,-26.1,28.5,-10.32,71.987,51.891,-5.503,1.97,52.4967,,,,NaN,,,,0 / 0,5605,2014-12-14 13:27:32:285
0.92356,-9.52952,11.32577,0.83094,-8.14926,5.39174,0.97923,-4.62709,10.02602,-1.27096,-0.76769,0.16488,135.0,-25.92,28.38,-10.26,77.156,54.283,-7.369,1.97,52.4967,,,,NaN,,,,0 / 0,5655,2014-12-14 13:27:32:335
1.54366,-10.1975,8.55807,1.08128,-8.05963,5.48123,1.5884,-5.28789,8.90628,-0.31329,-1.02974,0.13506,135.0,-25.62,29.28,-9.96,77.156,54.283,-7.369,1.97,52.4967,,,,NaN,,,,0 / 0,5704,2014-12-14 13:27:32:384
2.09912,-5.93343,5.04339,1.21865,-7.87962,5.70942,1.86942,0.98836,3.05021,1.04279,-0.88487,0.4035,189.0,-25.5,29.76,-7.2,76.517,55.271,-11.159,1.97,52.4967,,,,NaN,,,,0 / 0,5754,2014-12-14 13:27:32:434
4.32572,-19.51813,10.55484,1.74462,-7.3312,6.27535,8.80513,-12.14623,4.86292,1.46144,-1.14692,0.08179,189.0,-26.1,29.88,-5.28,66.102,50.797,-12.705,1.97,52.4967,,,,NaN,,,,0 / 0,5805,2014-12-14 13:27:32:485
-0.33818,-2.34692,-11.78785,2.08939,-6.80926,6.74088,-0.29434,10.11984,-17.31965,0.76369,0.49465,0.04025,189.0,-25.86,30.3,-4.8,66.102,50.797,-12.705,1.97,52.4967,,,,NaN,,,,0 / 0,5855,2014-12-14 13:27:32:535
-2.96941,-19.51813,4.99311,1.59514,-7.21927,6.44265,-4.56455,-12.29886,-1.44954,-1.01104,2.13835,0.29591,169.0,-25.86,31.08,-4.98,59.698,43.975,-17.221,1.97,47.713,,,,NaN,,,,0 / 0,5905,2014-12-14 13:27:32:585
-1.95427,-10.21187,-0.97564,1.2592,-7.54682,6.13439,-3.21347,-2.66505,-7.11003,-0.2302,-0.1541,0.17767,169.0,-26.82,30.42,-5.16,66.222,50.314,-11.6,1.97,47.713,,,,NaN,,,,0 / 0,5955,2014-12-14 13:27:32:635
1.29227,-10.16398,1.71305,1.12976,-8.04078,5.49903,0.16251,-2.12321,-3.78598,-0.93114,0.61609,-0.16748,169.0,-27.24,31.26,-6.9,72.971,55.078,-11.61,1.97,47.713,,,,NaN,,,,0 / 0,6004,2014-12-14 13:27:32:684
0.42557,-10.32918,2.20147,1.03684,-8.26389,5.17716,-0.61127,-2.0653,-2.97569,-0.92475,0.77481,-0.08013,205.0,-28.02,30.72,-7.08,72.971,55.078,-11.61,1.97,47.713,,,,NaN,,,,0 / 0,6055,2014-12-14 13:27:32:735
-1.13306,-8.03314,4.30597,0.58284,-8.60626,4.66525,-1.71589,0.57311,-0.35928,-0.72128,0.90158,0.00722,205.0,-28.44,30.66,-6.12,78.915,59.54,-9.75,1.97,47.713,,,,NaN,,,,0 / 0,6104,2014-12-14 13:27:32:784
-0.27114,-8.09539,5.44322,0.42976,-8.70547,4.49452,-0.7009,0.61007,0.9487,-0.45923,0.64166,-0.17067,205.0,-28.62,31.26,-5.88,77.025,62.587,-5.462,1.97,47.713,,,,NaN,,,,0 / 0,6155,2014-12-14 13:27:32:835
0.71527,-9.03392,3.70742,0.3494,-8.73794,4.43825,0.36586,-0.29598,-0.73083,-0.03419,0.72475,-0.10037,205.0,-28.56,31.08,-5.64,76.714,63.001,-4.501,1.97,47.713,,,,NaN,,,,0 / 0,6205,2014-12-14 13:27:32:885
-0.74998,-8.57902,2.29724,0.24855,-8.76757,4.38633,-0.99853,0.18854,-2.08909,-0.07147,0.90051,-0.08332,205.0,-29.04,30.54,-5.7,76.714,63.001,-4.501,1.97,49.4778,,,,NaN,,,,0 / 0,6254,2014-12-14 13:27:32:934
0.42318,-9.1249,2.57496,0.19857,-8.78941,4.34473,0.22461,-0.33549,-1.76976,0.12134,0.0792,-0.17281,181.0,-28.8,30.24,-5.88,76.77,63.672,-2.617,1.97,49.4778,,,,NaN,,,,0 / 0,6304,2014-12-14 13:27:32:984
-1.79146,-9.89344,4.24612,0.07302,-8.82174,4.28263,-1.86448,-1.0717,-0.03651,0.09897,-0.24464,-0.01515,181.0,-28.38,30.72,-7.08,76.263,64.102,-0.977,1.97,49.4778,,,,NaN,,,,0 / 0,6355,2014-12-14 13:27:33:035
2.25235,-7.91822,4.02585,0.19468,-8.82862,4.26482,2.05767,0.9104,-0.23897,-0.03738,-0.21908,-0.06947,181.0,-28.68,30.66,-7.14,76.263,64.102,-0.977,1.97,49.4778,,,,NaN,,,,0 / 0,6405,2014-12-14 13:27:33:085
0.47345,-8.88548,3.73376,0.32142,-8.82308,4.26871,-0.18435,-0.10385,-0.89528,0.01694,0.12074,-0.16215,181.0,-29.16,30.9,-7.44,79.44,64.118,-4.306,1.97,49.4778,,,,NaN,,,,0 / 0,6455,2014-12-14 13:27:33:135
0.5357,-9.0842,3.53983,0.26695,-8.87531,4.16277,0.19962,-0.12345,-1.14218,-0.13432,0.31782,0.03812,181.0,-28.86,30.54,-8.1,79.44,64.118,-4.306,1.97,49.4778,,,,NaN,,,,0 / 0,6505,2014-12-14 13:27:33:185
0.61232,-8.7945,3.02747,0.26755,-8.89521,4.12012,0.32801,0.11447,-1.06153,-0.06828,0.16868,-0.08758,181.0,-28.74,29.88,-8.1,82.613,65.101,-3.715,1.97,49.4778,,,,NaN,,,,0 / 0,6555,2014-12-14 13:27:33:235
0.25798,-8.76817,3.78882,0.28671,-8.93666,4.02809,-0.02783,0.15877,-0.26082,-0.11621,0.06961,-0.04071,181.0,-29.28,30.42,-7.74,83.551,65.683,-4.071,1.97,43.7719,,,,NaN,,,,0 / 0,6605,2014-12-14 13:27:33:285
0.16939,-8.83041,3.78404,0.28012,-8.95177,3.99458,-0.11103,0.13138,-0.18809,-0.10556,0.06535,-0.01408,181.0,-29.4,30.24,-7.5,83.551,65.683,-4.071,1.97,43.7719,,,,NaN,,,,0 / 0,6655,2014-12-14 13:27:33:335
0.79906,-8.8783,3.46321,0.31379,-8.98319,3.9211,0.46537,0.11522,-0.4323,-0.14072,-0.08379,-0.03752,173.0,-29.94,30.24,-7.74,84.344,66.108,-4.07,1.97,43.7719,,,,NaN,,,,0 / 0,6705,2014-12-14 13:27:33:385
0.92835,-9.11054,3.80558,0.34851,-9.00265,3.87337,0.69282,-0.11387,0.11507,-0.09597,0.06428,-0.04071,173.0,-30.0,29.94,-7.62,84.344,66.108,-4.07,1.97,43.7719,,,,NaN,,,,0 / 0,6754,2014-12-14 13:27:33:434
0.46148,-8.86154,3.61884,0.37379,-9.01567,3.84045,0.08769,0.15413,-0.22161,-0.08852,0.08239,-0.03858,173.0,-30.0,29.76,-7.08,84.661,66.83,-5.559,1.97,43.7719,,,,NaN,,,,0 / 0,6805,2014-12-14 13:27:33:485
0.02334,-8.95731,3.25731,0.35105,-9.05562,3.74752,-0.32771,0.09831,-0.49021,-0.08426,-0.04224,-0.02899,173.0,-29.4,29.7,-7.14,84.397,67.095,-5.343,1.97,43.7719,,,,NaN,,,,0 / 0,6855,2014-12-14 13:27:33:535
0.39444,-9.27334,3.3435,0.37155,-9.0833,3.67794,0.08514,-0.10624,-0.64808,-0.05443,-0.01135,0.0019,173.0,-29.82,30.12,-7.2,85.125,67.604,-5.53,1.97,43.7719,,,,NaN,,,,0 / 0,6904,2014-12-14 13:27:33:584
0.50458,-9.06505,3.15676,0.38008,-9.11024,3.60971,0.1245,0.04519,-0.45295,-0.08532,-0.05077,0.00296,173.0,-29.4,30.42,-7.86,87.73,68.018,-5.844,1.97,40.9274,,,,NaN,,,,0 / 0,6955,2014-12-14 13:27:33:635
0.77512,-9.13687,3.35069,0.40312,-9.1234,3.57394,0.372,-0.01347,-0.22326,-0.08852,-0.04544,-0.03219,173.0,-28.68,30.42,-7.5,86.922,68.485,-6.435,1.97,40.9274,,,,NaN,,,,0 / 0,7005,2014-12-14 13:27:33:685
0.10475,-9.05068,3.219,0.42587,-9.14959,3.50362,-0.19857,0.08455,-0.21129,-0.07573,-0.02413,-0.01195,181.0,-29.1,30.42,-6.84,86.922,68.485,-6.435,1.97,40.9274,,,,NaN,,,,0 / 0,7055,2014-12-14 13:27:33:735
-0.00778,-9.15603,3.29801,0.41764,-9.15812,3.48222,-0.32636,-0.00389,-0.18375,-0.06934,-0.03479,0.00403,181.0,-29.94,30.06,-6.42,88.147,68.906,-6.93,1.97,40.9274,,,,NaN,,,,0 / 0,7104,2014-12-14 13:27:33:784
0.95708,-8.94055,2.79762,0.48123,-9.20047,3.36011,0.48378,0.39819,-1.06871,-0.15669,-0.24145,-0.01088,181.0,-29.46,30.12,-6.06,86.445,69.331,-6.927,1.97,40.9274,,,,NaN,,,,0 / 0,7155,2014-12-14 13:27:33:835
0.7033,-9.28531,3.02986,0.60469,-9.23743,3.23666,0.12614,-0.05581,-0.23403,-0.14924,-0.4332,-0.03965,181.0,-29.4,30.48,-6.3,86.445,69.331,-6.927,1.97,40.9274,,,,NaN,,,,0 / 0,7205,2014-12-14 13:27:33:885
0.60992,-9.23503,3.45364,0.62878,-9.24835,3.20045,-0.00853,0.00643,0.23149,-0.11834,0.02274,-0.02367,181.0,-30.12,29.58,-6.0,93.244,70.381,-10.582,1.97,40.9274,,,,NaN,,,,0 / 0,7254,2014-12-14 13:27:33:934
-0.33339,-9.5774,3.81755,0.55845,-9.24686,3.21811,-0.89184,-0.33055,0.59945,0.11708,0.66403,0.09777,205.0,-30.18,29.1,-4.98,90.908,70.642,-11.07,1.97,40.9274,,,,NaN,,,,0 / 0,7305,2014-12-14 13:27:33:985
0.39684,-8.82802,2.73777,0.45669,-9.24297,3.24489,-0.05986,0.41495,-0.50712,0.04144,0.11755,0.00829,205.0,-29.28,29.76,-4.8,86.736,70.395,-8.004,1.97,39.4484,,,,NaN,,,,0 / 0,7355,2014-12-14 13:27:34:035