ACCELEROMETER X (m/s²),ACCELEROMETER Y (m/s²),ACCELEROMETER Z (m/s²),GRAVITY X (m/s²),GRAVITY Y (m/s²),GRAVITY Z (m/s²),LINEAR ACCELERATION X (m/s²),LINEAR ACCELERATION Y (m/s²),LINEAR ACCELERATION Z (m/s²),GYROSCOPE X (rad/s),GYROSCOPE Y (rad/s),GYROSCOPE Z (rad/s),LIGHT (lux),MAGNETIC FIELD X (μT),MAGNETIC FIELD Y (μT),MAGNETIC FIELD Z (μT),ORIENTATION X (°),ORIENTATION Y (°),ORIENTATION Z (°),PROXIMITY (i),SOUND LEVEL (dB),LOCATION Latitude : ,LOCATION Longitude : ,LOCATION Altitude ( m),LOCATION Altitude-google ( m),LOCATION Speed ( Kmh),LOCATION Accuracy ( m),LOCATION ORIENTATION (°),Satellites in range,Time since start in ms ,YYYY-MO-DD HH-MI-SS_SSS
-1.73639,-8.7969,1.55982,0.19094,-9.79393,0.46418,-1.92733,0.99704,1.09565,-1.31875,0.47453,-0.05912,119.0,-6.6,27.84,8.4,45.07,84.392,-14.273,1.97,23.3535,,,,NaN,,,,0 / 0,5,2014-12-14 13:29:04:814
-0.63506,-8.96688,0.89184,0.04669,-9.80366,-0.24062,-0.68175,0.83677,1.13246,-1.16109,0.10488,0.0751,119.0,-6.06,25.86,10.8,80.624,89.193,-51.505,1.97,23.3535,,,,NaN,,,,0 / 0,55,2014-12-14 13:29:04:864
1.18453,-8.61254,-1.37307,0.03502,-9.78495,-0.65332,1.14952,0.20904,-0.90396,-1.44232,1.13925,0.10812,119.0,-7.14,24.42,12.3,210.768,86.175,-176.932,1.97,46.5365,,,,NaN,,,,0 / 0,105,2014-12-14 13:29:04:914
0.78949,-9.92217,-3.02747,0.15128,-9.66764,-1.63883,0.6382,-0.25453,-1.38864,-1.52754,1.3065,0.04527,119.0,-6.84,23.16,13.92,208.386,80.339,-174.726,1.97,46.5365,,,,NaN,,,,0 / 0,155,2014-12-14 13:29:04:964
0.9499,-11.83035,-0.90142,0.30676,-9.55406,-2.19054,0.64314,-2.27629,1.28913,-1.66176,1.36828,-0.22956,119.0,-7.08,22.44,15.06,208.386,80.339,-174.726,1.97,46.5365,,,,NaN,,,,0 / 0,205,2014-12-14 13:29:05:014
-2.63901,-14.10484,4.88776,0.51595,-9.44887,-2.57407,-3.15496,-4.65597,7.46183,-0.88732,0.81328,-0.17204,75.0,-8.64,20.16,17.22,203.904,75.037,-169.181,1.97,46.5365,,,,NaN,,,,0 / 0,255,2014-12-14 13:29:05:064
0.21967,-16.20455,10.04487,0.68414,-9.55197,-2.11288,0.56024,-6.65259,12.15776,-0.03191,1.12114,-0.33183,75.0,-10.56,17.76,17.52,206.673,74.473,-168.666,1.97,46.5365,,,,NaN,,,,0 / 0,305,2014-12-14 13:29:05:114
-5.29418,-14.13118,2.24696,0.77677,-9.6639,-1.47528,-6.07095,-4.46728,3.72224,2.09862,1.2756,-0.09108,75.0,-11.46,17.22,17.46,186.094,80.211,-152.232,1.97,46.5365,,,,NaN,,,,0 / 0,355,2014-12-14 13:29:05:164
2.74795,-12.29004,-3.42969,0.58778,-9.78854,-0.09711,2.16017,-2.50149,-3.33258,2.80702,-0.44906,0.37657,75.0,-13.62,16.92,18.24,135.379,86.517,-99.382,1.97,46.5365,,,,NaN,,,,0 / 0,404,2014-12-14 13:29:05:213
1.58436,-14.85901,-2.49356,0.46567,-9.75039,0.94002,1.11869,-5.10863,-3.43358,2.74311,-0.15292,0.37977,75.0,-14.58,17.46,18.06,135.379,86.517,-99.382,1.97,46.5365,,,,NaN,,,,0 / 0,455,2014-12-14 13:29:05:264
-0.1634,-13.98274,-1.66517,0.23987,-9.56633,2.14431,-0.40327,-4.4164,-3.80947,3.08186,-0.57156,0.74728,59.0,-15.6,20.28,16.38,66.476,83.859,-26.353,1.97,55.5885,,,,NaN,,,,0 / 0,505,2014-12-14 13:29:05:314
1.59633,-11.15039,-3.25013,-0.03502,-9.19448,3.41039,1.63135,-1.95591,-6.66052,3.26402,-0.0091,0.70361,59.0,-16.2,23.76,13.62,66.476,83.859,-26.353,1.97,55.5885,,,,NaN,,,,0 / 0,555,2014-12-14 13:29:05:364
-1.1139,-5.1601,-3.47758,-0.11013,-8.44854,4.97799,-1.00377,3.28844,-8.45557,2.51727,-1.82538,0.57151,59.0,-15.9,30.12,6.24,36.123,63.89,2.148,1.97,55.5885,,,,NaN,,,,0 / 0,604,2014-12-14 13:29:05:413
1.71604,-2.68689,-4.08092,0.30182,-7.88037,5.82913,1.41423,5.19347,-9.91005,1.13882,-1.40034,0.30307,59.0,-14.4,34.92,-1.08,35.491,55.257,-0.824,1.97,55.5885,,,,NaN,,,,0 / 0,655,2014-12-14 13:29:05:464
0.52613,-3.40036,-2.08894,0.44547,-7.87812,5.823,0.08065,4.47776,-7.91194,0.16943,-0.72922,0.48842,59.0,-14.04,35.82,-5.4,39.322,53.451,-4.375,1.97,55.5885,,,,NaN,,,,0 / 0,704,2014-12-14 13:29:05:513
-0.47226,-7.73866,7.58842,0.38996,-8.12398,5.47913,-0.86221,0.38532,2.10929,-1.01408,-0.20192,0.40001,79.0,-14.04,35.82,-11.76,54.292,55.936,-4.071,1.97,55.5885,,,,NaN,,,,0 / 0,755,2014-12-14 13:29:05:564
1.2372,-11.8088,16.09502,0.38891,-8.13999,5.45534,0.8483,-3.66881,10.63968,-0.63911,-0.9998,0.06977,79.0,-14.22,35.64,-13.56,54.292,55.936,-4.071,1.97,55.5885,,,,NaN,,,,0 / 0,804,2014-12-14 13:29:05:613
2.40557,-8.32763,5.05296,0.98387,-8.02417,5.55111,1.42171,-0.30347,-0.49814,0.76597,-0.91671,0.1028,79.0,-14.52,35.22,-14.34,63.856,56.099,-7.005,1.97,50.1414,,,,NaN,,,,0 / 0,855,2014-12-14 13:29:05:664
3.27946,-1.97821,1.09056,1.19216,-7.90386,5.68144,2.0873,5.92565,-4.59088,0.63175,-1.1745,0.15393,79.0,-14.04,34.56,-13.98,55.798,53.704,-11.851,1.97,50.1414,,,,NaN,,,,0 / 0,904,2014-12-14 13:29:05:713
1.18214,-19.51813,19.82459,1.31322,-8.18398,5.24106,-0.13108,-11.33415,14.58353,-1.83966,0.78452,0.33929,79.0,-13.62,34.08,-13.98,55.798,53.704,-11.851,1.97,50.1414,,,,NaN,,,,0 / 0,955,2014-12-14 13:29:05:764
-2.3517,-2.07877,-14.34486,1.24753,-8.33646,5.01181,-3.59923,6.2577,-19.35667,-1.95045,1.29158,-0.13263,93.0,-14.94,32.58,-14.88,67.174,56.943,-15.481,1.97,50.1414,,,,NaN,,,,0 / 0,1004,2014-12-14 13:29:05:813
-2.6031,-13.7098,1.91895,0.79083,-9.03257,3.73615,-3.39393,-4.67722,-1.8172,-1.535,-0.85706,0.0229,93.0,-14.58,31.38,-15.36,100.424,63.17,-13.028,1.97,50.1414,,,,NaN,,,,0 / 0,1055,2014-12-14 13:29:05:864
-0.13467,-8.07385,-3.1807,0.75791,-9.2922,3.04168,-0.89259,1.21835,-6.22238,-2.34673,0.30941,0.0751,93.0,-14.34,29.76,-15.36,126.652,71.358,-13.992,1.97,50.1414,,,,NaN,,,,0 / 0,1105,2014-12-14 13:29:05:914
3.74633,-8.57184,0.27174,0.6602,-9.55197,2.12022,2.35589,0.93942,-1.90115,-2.49586,1.03379,0.29668,129.0,-14.04,29.94,-14.76,126.652,71.358,-13.992,1.97,50.1414,,,,NaN,,,,0 / 0,1155,2014-12-14 13:29:05:964
-1.00137,-9.09856,2.03148,0.43006,-9.78615,0.46687,-1.43143,0.68758,1.56461,-2.12409,2.13847,0.00799,129.0,-13.02,30.66,-10.38,148.489,82.747,-22.639,1.97,50.1414,,,,NaN,,,,0 / 0,1205,2014-12-14 13:29:06:014
-2.25833,-9.63487,1.88304,0.40282,-9.79618,-0.21293,-2.66116,0.16131,2.09597,-2.06337,2.10012,-0.0261,129.0,-13.08,30.78,-8.88,165.494,86.289,-42.65,1.97,54.1585,,,,NaN,,,,0 / 0,1255,2014-12-14 13:29:06:064
0.04729,-8.61972,-1.84713,0.36886,-9.76505,-0.82495,-0.32157,1.14533,-1.02217,-0.90436,0.66095,-0.06977,129.0,-12.12,31.56,-4.56,281.383,84.713,-155.909,1.97,54.1585,,,,NaN,,,,0 / 0,1305,2014-12-14 13:29:06:114
1.01454,-9.43375,-1.64123,0.43126,-9.72001,-1.22778,0.58329,0.28626,-0.41345,-1.49558,1.12434,-0.11984,61.0,-10.92,31.62,-3.6,281.383,84.713,-155.909,1.97,54.1585,,,,NaN,,,,0 / 0,1355,2014-12-14 13:29:06:164
-3.07715,-12.64438,2.4792,0.65661,-9.61227,-1.82857,-3.73376,-3.03211,4.30777,-0.95336,1.09557,-0.38616,61.0,-10.08,30.66,-1.62,292.701,79.498,-160.503,1.97,54.1585,,,,NaN,,,,0 / 0,1404,2014-12-14 13:29:06:213
-0.75238,-13.16153,8.94354,0.63566,-9.65477,-1.59783,-1.38804,-3.50676,10.54137,0.44,0.90489,-0.01545,61.0,-10.26,30.3,-0.96,290.026,78.573,-160.248,1.97,54.1585,,,,NaN,,,,0 / 0,1455,2014-12-14 13:29:06:264
-2.10031,-15.53418,11.52688,0.69492,-9.71612,-1.13365,-2.79523,-5.81806,12.66054,1.74815,1.17014,-0.21785,61.0,-11.04,27.66,1.62,246.701,82.207,-148.492,1.97,54.1585,,,,NaN,,,,0 / 0,1505,2014-12-14 13:29:06:314
-1.68851,-14.79198,-0.87747,0.66679,-9.7839,-0.05162,-2.3553,-5.00807,-0.82585,3.35776,1.45137,0.31052,61.0,-11.1,26.34,1.92,246.701,82.207,-148.492,1.97,54.1585,,,,NaN,,,,0 / 0,1554,2014-12-14 13:29:06:363
1.99856,-18.00739,-5.79516,0.15368,-9.64654,1.75824,1.84488,-8.36085,-7.55341,2.29569,-0.82723,0.86979,61.0,-11.04,24.72,1.86,87.197,83.404,-22.45,1.97,52.4229,,,,NaN,,,,0 / 0,1605,2014-12-14 13:29:06:414
-0.52253,-13.76726,-3.14957,-0.14021,-9.2283,3.31507,-0.38232,-4.53896,-6.46464,3.12021,-0.91991,1.13824,61.0,-11.22,22.92,-0.9,56.583,70.224,2.422,1.97,52.4229,,,,NaN,,,,0 / 0,1655,2014-12-14 13:29:06:464
1.87406,-9.46488,-3.72897,-0.31125,-8.8964,4.11444,2.18531,-0.56847,-7.8434,2.98918,-2.03417,1.03171,61.0,-11.34,22.2,-1.62,56.583,70.224,2.422,1.97,52.4229,,,,NaN,,,,0 / 0,1704,2014-12-14 13:29:06:513
-0.3286,-2.53606,-5.45519,0.0639,-8.09165,5.54018,-0.3925,5.5556,-10.99537,2.12845,-2.86827,0.47351,69.0,-11.46,22.44,-2.76,51.046,59.603,2.728,1.97,52.4229,,,,NaN,,,,0 / 0,1755,2014-12-14 13:29:06:564
0.83258,-2.64619,-6.21894,0.73397,-7.61162,6.13963,0.09861,4.96542,-12.35857,0.1119,-1.49089,0.56512,69.0,-12.12,24.78,-4.2,44.665,50.911,-6.817,1.97,52.4229,,,,NaN,,,,0 / 0,1805,2014-12-14 13:29:06:614
1.33297,-4.36762,-4.11922,0.92386,-7.68988,6.01528,0.40911,3.32225,-10.13451,-0.85962,-0.16783,0.63117,69.0,-12.06,25.5,-5.28,44.665,50.911,-6.817,1.97,52.4229,,,,NaN,,,,0 / 0,1854,2014-12-14 13:29:06:663
3.58352,-10.42735,11.09353,0.75477,-8.18144,5.35403,2.82875,-2.24591,5.7395,-0.22046,-1.65387,-0.04314,69.0,-12.6,26.46,-8.04,53.049,54.171,-9.001,1.97,52.4229,,,,NaN,,,,0 / 0,1905,2014-12-14 13:29:06:714
-1.18573,-15.25885,15.96574,0.96052,-8.26523,5.18973,-2.14625,-6.99361,10.776,0.62323,-1.98837,0.32757,69.0,-12.78,26.52,-8.7,62.926,56.54,-8.024,1.97,51.1436,,,,NaN,,,,0 / 0,1954,2014-12-14 13:29:06:763
5.43903,-5.67725,5.00747,1.30409,-7.93917,5.60707,4.13494,2.26192,-0.5996,0.87783,-0.09965,0.24341,93.0,-11.28,27.96,-6.24,43.997,54.054,-13.093,1.97,51.1436,,,,NaN,,,,0 / 0,2005,2014-12-14 13:29:06:814
-3.24714,-19.51813,-3.20703,1.55982,-8.0324,5.40536,-4.80696,-11.48573,-8.61239,-1.54458,-1.97665,-0.00373,93.0,-10.86,28.2,-5.7,43.997,54.054,-13.093,1.97,51.1436,,,,NaN,,,,0 / 0,2054,2014-12-14 13:29:06:863
7.99125,-0.23044,-13.82532,1.65903,-8.16079,5.17866,6.33221,7.93034,-19.00398,-1.61489,-0.14972,-0.38296,93.0,-11.52,28.32,-6.0,47.168,54.992,-16.097,1.97,51.1436,,,,NaN,,,,0 / 0,2105,2014-12-14 13:29:06:914
-10.89182,-9.63008,-9.62349,1.71305,-8.42041,4.72586,-12.60487,-1.20967,-14.34935,-2.56404,1.98933,0.39042,105.0,-11.52,28.74,-6.42,54.824,59.164,-19.925,1.97,51.1436,,,,NaN,,,,0 / 0,2154,2014-12-14 13:29:06:963
-2.07877,-7.99963,-3.14957,1.26354,-9.14226,3.31552,-3.34231,1.14263,-6.46509,-1.84286,-0.38834,0.10173,105.0,-11.64,29.1,-6.78,54.824,59.164,-19.925,1.97,51.1436,,,,NaN,,,,0 / 0,2205,2014-12-14 13:29:07:014
2.4774,-8.62691,0.98282,0.94691,-9.58743,1.83216,2.97659,0.99404,-0.47585,-2.34673,0.95496,0.34887,105.0,-12.72,28.98,-5.4,89.533,68.789,-20.862,1.97,51.1436,,,,NaN,,,,0 / 0,2255,2014-12-14 13:29:07:064
3.08313,-8.61494,1.78248,0.8682,-9.64878,1.52271,2.21494,1.03385,0.25977,-2.03461,1.77628,-0.01012,105.0,-12.3,28.32,-3.72,116.785,79.704,-29.69,1.97,54.5591,,,,NaN,,,,0 / 0,2305,2014-12-14 13:29:07:114
-0.69252,-9.15124,1.46884,0.73682,-9.77672,0.21264,-1.42934,0.62549,1.25621,-1.80451,1.54405,-0.05912,147.0,-12.42,28.56,-0.96,118.419,82.718,-39.525,1.97,54.5591,,,,NaN,,,,0 / 0,2354,2014-12-14 13:29:07:163
0.36811,-9.47445,1.50715,0.74714,-9.77582,-0.21563,-0.37903,0.30137,1.72278,-1.36775,0.5427,-0.23489,147.0,-12.24,28.98,1.08,118.419,82.718,-39.525,1.97,54.5591,,,,NaN,,,,0 / 0,2404,2014-12-14 13:29:07:213
0.14305,-11.78246,1.32758,0.81343,-9.70834,-1.12228,0.50563,-2.32028,5.57625,-1.61702,0.9997,-0.09321,147.0,-12.3,27.84,3.72,212.19,84.116,-128.722,1.97,54.5591,,,,NaN,,,,0 / 0,2455,2014-12-14 13:29:07:264
-3.8409,-13.11125,1.01634,0.94586,-9.63816,-1.54396,-4.78676,-3.47309,2.5603,-0.65296,1.12966,-0.34461,63.0,-12.84,26.82,4.92,238.903,80.166,-147.912,1.97,54.5591,,,,NaN,,,,0 / 0,2505,2014-12-14 13:29:07:314
-1.63584,-12.39777,4.56455,0.9074,-9.65043,-1.48904,-2.54324,-2.74735,6.05359,-0.36107,0.95283,-0.06977,63.0,-13.8,26.1,5.76,229.335,79.758,-148.642,1.97,54.5591,,,,NaN,,,,0 / 0,2555,2014-12-14 13:29:07:364
-1.21446,-14.21976,8.70891,0.90366,-9.75817,-0.36676,-2.11812,-4.46159,9.07567,2.54497,1.07001,0.09108,63.0,-15.12,24.78,7.5,229.335,79.758,-148.642,1.97,54.5591,,,,NaN,,,,0 / 0,2604,2014-12-14 13:29:07:413
0.07123,-13.97795,-2.97719,0.81193,-9.7456,0.73173,-0.74071,-4.23235,-3.70892,3.22887,1.11368,0.23383,57.0,-15.24,23.76,7.62,173.004,84.293,-112.09,1.97,53.8526,,,,NaN,,,,0 / 0,2655,2014-12-14 13:29:07:464
1.39043,-17.51897,-1.55982,0.32247,-9.51396,2.35604,1.06796,-8.00501,-3.91587,2.11673,-0.05385,0.92625,57.0,-16.32,23.34,6.84,106.095,83.601,-47.974,1.97,53.8526,,,,NaN,,,,0 / 0,2704,2014-12-14 13:29:07:513
-0.60873,-14.62438,-0.69552,0.11103,-9.28172,3.16364,-0.71976,-5.34266,-3.85915,2.98812,-1.14894,0.91453,57.0,-17.52,22.2,3.9,69.662,75.966,-7.794,1.97,53.8526,,,,NaN,,,,0 / 0,2755,2014-12-14 13:29:07:564
-0.88885,-11.15518,-2.90536,-0.10624,-8.94115,4.02675,-0.7826,-2.21404,-6.93211,2.7186,-0.97317,1.16593,65.0,-18.72,23.16,0.72,69.662,75.966,-7.794,1.97,53.8526,,,,NaN,,,,0 / 0,2804,2014-12-14 13:29:07:613
0.64584,-3.65415,-5.35703,0.13572,-8.14747,5.45624,0.51011,4.49332,-10.81326,2.28504,-2.93858,0.53956,65.0,-21.54,24.18,-3.12,64.783,65.748,1.511,1.97,53.8526,,,,NaN,,,,0 / 0,2855,2014-12-14 13:29:07:664
1.43353,-1.65739,-6.195,0.56593,-7.79402,5.92475,0.8676,6.13664,-12.11975,1.70447,-2.4411,0.44368,65.0,-22.5,25.56,-4.62,64.626,52.634,-5.456,1.97,53.8526,,,,NaN,,,,0 / 0,2904,2014-12-14 13:29:07:713
2.13742,-2.69647,-4.21739,0.94736,-7.6384,6.07678,1.19007,4.94193,-10.29417,0.40379,-1.53776,0.4341,65.0,-23.7,27.42,-6.0,64.626,52.634,-5.456,1.97,53.8526,,,,NaN,,,,0 / 0,2955,2014-12-14 13:29:07:764
2.36727,-8.72986,6.79115,0.99285,-8.05529,5.50427,1.37442,-0.67457,1.28688,-1.19837,0.18051,0.65674,89.0,-25.08,28.92,-7.08,68.792,52.755,-10.647,1.97,53.8526,,,,NaN,,,,0 / 0,3004,2014-12-14 13:29:07:813
0.89004,-15.00267,16.61696,0.94257,-8.216,5.27069,-0.05252,-6.78666,11.34627,-0.23857,-0.73242,-0.00905,89.0,-24.96,29.76,-6.84,71.522,55.226,-10.225,1.97,50.8973,,,,NaN,,,,0 / 0,3054,2014-12-14 13:29:07:863
2.95624,-10.2406,7.67701,1.3216,-8.07025,5.41239,1.63464,-2.17034,2.26462,0.60619,-1.19048,0.36805,89.0,-25.26,31.2,-5.04,68.987,56.908,-10.139,1.97,50.8973,,,,NaN,,,,0 / 0,3105,2014-12-14 13:29:07:914
5.91308,-8.28214,3.01071,1.49997,-7.97763,5.50262,4.41311,-0.30451,-2.49191,-0.00847,-0.30205,0.08149,115.0,-24.3,32.22,-2.82,68.987,56.908,-10.139,1.97,50.8973,,,,NaN,,,,0 / 0,3155,2014-12-14 13:29:07:964
-4.70999,-19.51813,8.14867,1.674,-8.23935,5.04788,-6.38399,-11.27878,3.10079,-1.13339,-1.52071,0.19335,115.0,-24.12,33.12,-1.14,64.425,57.159,-18.347,1.97,50.8973,,,,NaN,,,,0 / 0,3205,2014-12-14 13:29:08:014
-9.24461,-9.994,-10.84693,1.52032,-8.58725,4.48524,-10.76493,-1.40674,-15.33217,-3.14994,1.11794,-0.38083,115.0,-26.04,35.7,0.24,67.744,61.123,-18.725,1.97,50.8973,,,,NaN,,,,0 / 0,3255,2014-12-14 13:29:08:064
-3.38839,-18.89085,4.09768,1.16538,-8.99127,3.7375,-4.55377,-9.89957,0.36018,-1.80877,1.07214,0.1518,151.0,-25.92,36.48,0.3,67.744,61.123,-18.725,1.97,50.8973,,,,NaN,,,,0 / 0,3305,2014-12-14 13:29:08:114
2.46543,-7.87034,-0.35793,0.91429,-9.46967,2.37954,1.55114,1.59933,-2.73747,-2.2157,0.90915,0.17204,151.0,-25.68,37.56,1.26,79.446,70.705,-18.093,1.97,50.8973,,,,NaN,,,,0 / 0,3354,2014-12-14 13:29:08:163
3.18848,-8.82802,1.41138,0.75941,-9.6214,1.73849,2.42907,0.79338,-0.32711,-2.43408,1.99146,0.28176,151.0,-26.52,37.38,3.48,91.654,78.846,-23.597,1.97,49.066,,,,NaN,,,,0 / 0,3405,2014-12-14 13:29:08:214
-1.5257,-8.90703,1.33716,0.58912,-9.77957,0.42946,-2.11483,0.87254,0.9077,-1.94299,1.89452,-0.01438,151.0,-26.88,37.32,6.48,126.724,85.737,-53.909,1.97,49.066,,,,NaN,,,,0 / 0,3455,2014-12-14 13:29:08:264
-1.96384,-10.12089,2.71622,0.5568,-9.78989,-0.1453,-2.52065,-0.331,2.86152,-1.71929,1.4077,-0.06977,151.0,-26.7,37.2,8.28,126.724,85.737,-53.909,1.97,49.066,,,,NaN,,,,0 / 0,3505,2014-12-14 13:29:08:314
0.65062,-9.47685,-0.62369,0.62713,-9.74275,-0.92521,0.02349,0.26591,0.30152,-1.60104,0.33071,-0.22637,151.0,-27.66,35.34,9.6,203.903,85.625,-131.887,1.97,49.066,,,,NaN,,,,0 / 0,3555,2014-12-14 13:29:08:364
-0.4124,-11.55023,2.38582,0.72155,-9.67332,-1.44131,-1.13395,-1.8769,3.82713,-1.71822,0.74084,-0.23489,151.0,-28.44,34.86,9.84,233.111,80.54,-153.406,1.97,49.066,,,,NaN,,,,0 / 0,3604,2014-12-14 13:29:08:413
-1.47782,-12.6348,2.54623,0.74849,-9.63606,-1.66098,-2.22631,-2.99874,4.20721,-1.13765,1.05509,-0.2008,61.0,-29.16,34.38,10.56,233.111,80.54,-153.406,1.97,49.066,,,,NaN,,,,0 / 0,3655,2014-12-14 13:29:08:464
-0.7835,-15.50545,8.08402,0.76764,-9.68095,-1.36484,-1.55114,-5.82449,9.44887,0.04586,1.01888,-0.08362,61.0,-31.2,33.24,13.62,233.576,79.294,-155.742,1.97,49.066,,,,NaN,,,,0 / 0,3705,2014-12-14 13:29:08:514
-4.3748,-15.77839,10.17177,0.73816,-9.74275,-0.84066,-5.11297,-6.03563,11.01243,1.8142,0.8953,0.02716,61.0,-32.16,32.1,14.52,206.383,83.449,-138.715,1.97,51.6785,,,,NaN,,,,0 / 0,3755,2014-12-14 13:29:08:564
1.78787,-15.46714,-7.52857,0.54184,-9.73557,1.04686,1.24603,-5.73157,-8.57543,3.47388,0.80795,0.39575,61.0,-33.12,32.64,12.96,89.4,83.096,-27.365,1.97,51.6785,,,,NaN,,,,0 / 0,3804,2014-12-14 13:29:08:613
1.57957,-15.98668,0.24541,0.07646,-9.49855,2.4376,1.50311,-6.48814,-2.19219,2.17212,0.37333,0.89535,61.0,-32.76,33.6,10.92,89.4,83.096,-27.365,1.97,51.6785,,,,NaN,,,,0 / 0,3854,2014-12-14 13:29:08:663
0.15502,-13.71219,0.04908,-0.12405,-9.2702,3.19656,0.27907,-4.44199,-3.14748,3.00836,-0.85386,1.02532,61.0,-32.34,34.92,7.68,64.353,75.6,-1.797,1.97,51.6785,,,,NaN,,,,0 / 0,3905,2014-12-14 13:29:08:714
1.28748,-6.88632,-3.83431,-0.3081,-8.54461,4.80277,1.59559,1.65828,-8.63708,2.48318,-2.48265,0.61519,75.0,-29.58,37.44,-1.8,58.963,60.61,3.671,1.97,51.6785,,,,NaN,,,,0 / 0,3954,2014-12-14 13:29:08:763
1.74956,-2.70605,-6.59722,0.25827,-7.86256,5.85532,1.49129,5.15651,-12.45254,1.98677,-2.40808,0.36485,75.0,-26.82,38.16,-6.18,58.963,60.61,3.671,1.97,51.6785,,,,NaN,,,,0 / 0,4005,2014-12-14 13:29:08:814
2.12545,-2.35889,-6.2357,0.5782,-7.65726,6.09953,1.54725,5.29837,-12.33523,0.96838,-1.8126,0.27431,75.0,-25.32,37.92,-8.88,59.257,53.298,-2.526,1.97,51.6785,,,,NaN,,,,0 / 0,4055,2014-12-14 13:29:08:864
1.13665,-4.0444,-1.06183,0.93898,-7.95279,5.66064,0.04339,3.30235,-6.1507,-0.32059,-1.01365,0.43196,75.0,-24.3,35.88,-13.02,70.861,54.189,-9.418,1.97,51.6687,,,,NaN,,,,0 / 0,4104,2014-12-14 13:29:08:913
1.30903,-15.54136,19.82459,0.69611,-8.24054,5.27054,0.74654,-3.73061,9.0016,-0.57839,0.12831,0.20506,109.0,-24.0,35.04,-13.56,70.861,54.189,-9.418,1.97,51.6687,,,,NaN,,,,0 / 0,4155,2014-12-14 13:29:08:964
2.44388,-11.28926,9.17099,0.96801,-8.17575,5.3283,1.36799,-3.16005,3.79242,0.32282,-2.14816,0.20932,109.0,-24.18,34.2,-13.02,77.342,57.172,-7.524,1.97,51.6687,,,,NaN,,,,0 / 0,4205,2014-12-14 13:29:09:014
3.45663,-6.86717,3.8415,1.34973,-7.95084,5.57969,2.20865,1.157,-1.65634,0.60512,-0.33295,0.08469,109.0,-22.8,34.5,-11.28,70.54,55.194,-12.393,1.97,51.6687,,,,NaN,,,,0 / 0,4254,2014-12-14 13:29:09:063
-2.11468,-19.51813,2.65397,1.61998,-8.05873,5.3482,2.04525,-5.41568,-7.69571,-0.76801,-1.38543,0.02929,141.0,-21.66,34.5,-11.1,70.54,55.194,-12.393,1.97,51.6687,,,,NaN,,,,0 / 0,4305,2014-12-14 13:29:09:114
-0.32142,-3.25432,-14.9075,1.38535,-8.38674,4.89031,3.2401,7.7415,-17.72248,-2.5928,1.25856,-0.38509,141.0,-21.78,33.72,-9.78,74.759,57.369,-16.621,1.97,51.6687,,,,NaN,,,,0 / 0,4355,2014-12-14 13:29:09:164
-9.89105,-18.62509,0.91818,1.23795,-8.76038,4.23011,-3.18234,-10.56052,-0.50967,-2.92943,1.78267,0.09321,141.0,-21.78,32.52,-8.94,85.094,63.292,-16.312,1.97,51.6687,,,,NaN,,,,0 / 0,4405,2014-12-14 13:29:09:214
-0.13707,-7.82724,-3.53743,0.99808,-9.28591,2.99111,-0.2068,1.37008,-4.84946,-2.24979,0.53525,0.06338,189.0,-21.42,32.16,-7.74,89.723,67.148,-15.723,1.97,51.8378,,,,NaN,,,,0 / 0,4455,2014-12-14 13:29:09:264
1.55324,-9.36432,0.13767,0.79981,-9.59985,1.8371,0.40806,0.38247,-2.0044,-2.68974,1.66869,0.34674,189.0,-21.18,33.0,-4.8,109.026,78.211,-23.527,1.97,51.8378,,,,NaN,,,,0 / 0,4505,2014-12-14 13:29:09:314
0.56922,-9.35714,2.64679,0.61666,-9.72465,1.10567,0.07482,-0.10265,0.9912,-2.63009,2.25565,0.26791,189.0,-21.18,33.0,-4.8,109.026,78.211,-23.527,1.97,51.8378,,,,NaN,,,,0 / 0,4555,2014-12-14 13:29:09:364
0.10475,-9.26616,2.91255,0.52822,-9.79243,-0.04684,-0.96187,-0.25004,4.61063,-1.72142,1.73899,-0.16884,119.0,-19.8,32.4,-0.06,135.259,85.247,-42.299,1.97,51.8378,,,,NaN,,,,0 / 0,4605,2014-12-14 13:29:09:414
-2.52169,-8.27735,-2.3116,0.47181,-9.77178,-0.67906,-2.9935,1.49443,-1.63255,-0.98106,0.67586,-0.04953,119.0,-20.46,31.98,2.58,211.618,86.048,-126.809,1.97,51.8378,,,,NaN,,,,0 / 0,4655,2014-12-14 13:29:09:464
1.35691,-8.7107,-1.54546,0.4733,-9.73722,-1.06467,0.88361,1.02651,-0.48079,-1.52328,0.90276,-0.10599,119.0,-20.88,31.68,4.32,211.618,86.048,-126.809,1.97,51.8378,,,,NaN,,,,0 / 0,4705,2014-12-14 13:29:09:514
-0.31184,-12.22539,0.44412,0.83273,-9.59132,-1.86673,-1.14458,-2.63407,2.31085,-1.2527,0.9507,-0.42664,119.0,-20.4,31.2,4.8,247.591,79.84,-156.915,1.97,51.8378,,,,NaN,,,,0 / 0,4755,2014-12-14 13:29:09:564
-2.74435,-12.54382,1.48081,0.9309,-9.52653,-2.13338,-3.67525,-3.01729,3.6142,-1.00769,0.71954,-0.44368,71.0,-20.46,30.24,5.16,247.591,79.84,-156.915,1.97,52.4756,,,,NaN,,,,0 / 0,4805,2014-12-14 13:29:09:614
-1.2815,-11.28447,3.58532,0.92715,-9.52339,-2.14895,-2.20865,-1.76108,5.73426,-0.43458,0.98159,-0.04953,71.0,-21.96,29.34,7.2,249.259,76.27,-156.426,1.97,52.4756,,,,NaN,,,,0 / 0,4855,2014-12-14 13:29:09:664
2.71443,-13.04181,10.98101,1.0117,-9.6196,-1.61594,1.70273,-3.42221,12.59694,0.58701,1.35017,-0.04527,71.0,-22.62,28.14,7.68,229.163,78.79,-147.95,1.97,52.4756,,,,NaN,,,,0 / 0,4905,2014-12-14 13:29:09:714
-3.01969,-16.65227,4.47357,1.16149,-9.71358,-0.68549,-4.18117,-6.9387,5.15906,2.71434,1.81676,-0.31159,71.0,-23.4,27.3,8.1,229.163,78.79,-147.95,1.97,52.4756,,,,NaN,,,,0 / 0,4955,2014-12-14 13:29:09:764
1.25396,-17.51897,-6.11359,0.64868,-9.68036,1.42859,0.60528,-7.83862,-7.54218,2.59823,-1.15,1.00721,71.0,-24.78,25.56,7.62,191.726,82.095,-120.548,1.97,52.4756,,,,NaN,,,,0 / 0,5019,2014-12-14 13:29:09:828
1.50535,-14.38017,-0.16161,0.44218,-9.48119,2.46648,1.06318,-4.89899,-2.62809,3.01475,-1.31086,0.79842,71.0,-25.14,26.04,4.98,74.359,75.196,-10.164,1.97,52.4756,,,,NaN,,,,0 / 0,5054,2014-12-14 13:29:09:863
2.73119,-8.12173,-3.91332,0.22865,-8.94145,4.02106,2.50254,0.81971,-7.93438,3.03392,-1.5793,1.06367,71.0,-25.14,27.06,0.66,74.359,75.196,-10.164,1.97,52.4756,,,,NaN,,,,0 / 0,5105,2014-12-14 13:29:09:914
1.30664,-6.1513,-3.74333,0.40297,-8.31237,5.18779,-0.36048,2.23768,-8.91436,2.38837,-2.00115,0.79522,71.0,-24.78,27.66,-3.66,73.221,65.751,-3.254,1.97,52.4756,,,,NaN,,,,0 / 0,5155,2014-12-14 13:29:09:964
1.44789,-5.29178,-3.71221,0.56683,-7.9914,5.65555,0.25139,2.40034,-9.58085,1.97185,-1.99369,0.63223,105.0,-24.72,27.84,-6.24,69.878,57.954,-4.442,1.97,51.5882,,,,NaN,,,,0 / 0,5204,2014-12-14 13:29:10:013
1.06243,-5.55993,-3.43688,0.88361,-7.66189,6.05688,0.17882,2.10196,-9.49376,1.25493,-1.39395,0.47884,105.0,-24.9,27.96,-7.26,68.769,51.881,-7.434,1.97,51.5882,,,,NaN,,,,0 / 0,5255,2014-12-14 13:29:10:064
0.92835,-5.38276,0.82959,1.04567,-7.66848,6.02261,-0.11732,2.28571,-5.19302,-0.07239,-0.51511,0.31159,105.0,-25.5,27.6,-8.82,72.069,51.08,-9.401,1.97,51.5882,,,,NaN,,,,0 / 0,5305,2014-12-14 13:29:10:114
1.36888,-5.81372,0.0419,1.10777,-7.79013,5.85308,0.26112,1.97641,-5.81118,-0.88412,-0.83149,0.22211,153.0,-25.86,27.84,-9.06,72.069,51.08,-9.401,1.97,51.5882,,,,NaN,,,,0 / 0,5355,2014-12-14 13:29:10:164
0.5788,-13.09927,13.07354,1.28284,-8.03135,5.47928,-0.70404,-5.06793,7.59426,0.342,-1.64429,0.35314,153.0,-25.68,27.84,-8.7,80.381,55.446,-12.63,1.97,51.5882,,,,NaN,,,,0 / 0,5404,2014-12-14 13:29:10:213
2.47979,-9.51276,9.52294,1.45403,-7.89593,5.63116,1.02577,-1.61683,3.89178,0.67117,-1.21925,0.16565,153.0,-26.04,27.96,-7.32,75.829,53.626,-14.478,1.97,51.5882,,,,NaN,,,,0 / 0,5454,2014-12-14 13:29:10:263
2.71921,-5.29178,6.1112,1.73086,-7.62972,5.91293,0.98836,2.33794,0.19827,0.72443,-0.80486,0.24874,153.0,-25.68,28.32,-5.64,75.829,53.626,-14.478,1.97,51.5882,,,,NaN,,,,0 / 0,5505,2014-12-14 13:29:10:314
-1.74118,-19.51813,7.92122,2.30367,-7.26146,6.17525,-4.04485,-12.25667,1.74597,1.11112,-1.31299,-0.59069,195.0,-24.96,29.46,-4.26,67.063,50.221,-18.723,1.97,49.0204,,,,NaN,,,,0 / 0,5555,2014-12-14 13:29:10:364
-2.33734,0.27952,-15.4821,2.49835,-6.9155,6.48889,-4.83569,7.19503,-21.97099,0.72869,1.23619,0.18376,195.0,-25.14,29.7,-4.38,60.664,44.844,-21.058,1.97,49.0204,,,,NaN,,,,0 / 0,5605,2014-12-14 13:29:10:414
-0.41719,-19.51813,3.48715,1.66741,-7.32431,6.30438,-2.0846,-12.19382,-2.81723,-0.6945,1.4322,0.18056,195.0,-25.68,29.76,-4.2,60.664,44.844,-21.058,1.97,49.0204,,,,NaN,,,,0 / 0,5654,2014-12-14 13:29:10:463
0.82301,-9.40981,-3.11366,1.66771,-7.55416,6.0271,-0.8447,-1.85566,-9.14076,-0.68811,-0.2946,0.19867,169.0,-27.78,29.76,-5.1,64.607,48.32,-14.815,1.97,49.0204,,,,NaN,,,,0 / 0,5705,2014-12-14 13:29:10:514
1.73759,-10.00597,1.33956,1.54546,-8.16932,5.20051,-0.25319,-2.04255,-3.14987,-1.01089,0.74404,-0.04634,169.0,-28.02,30.06,-6.3,75.29,53.921,-16.464,1.97,49.0204,,,,NaN,,,,0 / 0,5754,2014-12-14 13:29:10:563
-0.54887,-8.95491,3.37942,1.31876,-8.45782,4.78496,-1.14652,-0.49425,-2.00634,-0.95762,1.29158,-0.08256,169.0,-27.42,30.3,-6.6,82.513,59.594,-15.408,1.97,49.0204,,,,NaN,,,,0 / 0,5805,2014-12-14 13:29:10:614
-1.5257,-8.93576,4.63637,1.08802,-8.60117,4.5834,-2.75213,0.77587,0.48677,-0.65722,0.73232,-0.16884,201.0,-28.38,30.06,-5.58,82.513,59.594,-15.408,1.97,49.0204,,,,NaN,,,,0 / 0,5854,2014-12-14 13:29:10:663
1.17495,-8.45213,5.8622,0.88137,-8.70307,4.43286,1.03175,-0.31409,0.785,-0.13737,0.91235,-0.18695,201.0,-28.62,30.12,-5.82,82.731,62.26,-11.932,1.97,62.6836,,,,NaN,,,,0 / 0,5905,2014-12-14 13:29:10:714
2.18291,-9.46009,3.64278,0.83408,-8.71085,4.42673,1.34883,-0.74924,-0.78395,-0.03936,1.2298,-0.16565,201.0,-28.86,30.12,-5.22,80.787,62.556,-11.245,1.97,62.6836,,,,NaN,,,,0 / 0,5955,2014-12-14 13:29:10:764
-2.34692,-9.01237,4.64116,0.3907,-8.74048,4.42957,-2.73762,-0.27189,0.21159,0.29193,0.31047,0.00905,201.0,-28.02,30.48,-6.0,77.466,63.035,-5.041,1.97,62.6836,,,,NaN,,,,0 / 0,6005,2014-12-14 13:29:10:814
-1.10433,-11.12645,3.13042,0.33444,-8.72402,4.46668,-1.43877,-2.40243,-1.33626,0.06397,-0.17102,-0.21145,165.0,-28.56,29.94,-6.12,77.466,63.035,-5.041,1.97,62.6836,,,,NaN,,,,0 / 0,6054,2014-12-14 13:29:10:863
2.05842,-8.55029,2.70904,0.39863,-8.81231,4.28427,1.65978,0.26202,-1.57524,-0.06813,-0.51084,0.02397,165.0,-29.22,29.58,-7.14,79.582,63.388,-4.38,1.97,62.6836,,,,NaN,,,,0 / 0,6105,2014-12-14 13:29:10:914
0.30347,-8.3827,4.98832,0.62234,-8.837,4.20601,3.30714,-0.24825,0.01003,-0.20981,0.14003,-0.10599,165.0,-28.2,29.58,-9.36,86.209,64.259,-7.345,1.97,62.6836,,,,NaN,,,,0 / 0,6154,2014-12-14 13:29:10:963
-0.25199,-7.66923,2.50074,0.57162,-8.85929,4.16636,-1.08173,0.94466,-1.39507,-0.34829,0.59703,0.10812,165.0,-27.66,28.74,-8.52,86.209,64.259,-7.345,1.97,62.6836,,,,NaN,,,,0 / 0,6205,2014-12-14 13:29:11:014
-0.05806,-9.77852,5.67785,0.3723,-8.92214,4.05323,-0.71033,-0.94481,1.77111,-0.12885,-0.0645,-0.03782,165.0,-28.08,29.16,-7.74,84.826,65.477,-5.248,1.97,46.2619,,,,NaN,,,,0 / 0,6255,2014-12-14 13:29:11:064
1.33537,-8.58142,4.05458,0.5785,-8.91436,4.04605,1.40929,1.03085,-0.23733,-0.03617,-0.21151,-0.1241,165.0,-28.38,29.88,-7.92,84.826,65.477,-5.248,1.97,46.2619,,,,NaN,,,,0 / 0,6305,2014-12-14 13:29:11:114
-0.082,-8.80887,3.22858,0.56608,-8.93067,4.01149,-1.06123,0.09622,-1.21341,-0.11074,0.1869,0.03036,165.0,-28.26,30.06,-8.64,88.263,65.369,-8.137,1.97,46.2619,,,,NaN,,,,0 / 0,6354,2014-12-14 13:29:11:163
0.19812,-9.54389,3.52067,0.46208,-8.98379,3.90494,-0.42377,-0.80984,-0.20066,-0.12139,0.17092,0.06125,165.0,-28.44,30.24,-8.64,88.229,66.361,-6.749,1.97,46.2619,,,,NaN,,,,0 / 0,6405,2014-12-14 13:29:11:214
0.83258,-8.72746,3.25971,0.50368,-9.0031,3.85511,0.23358,0.26621,-0.55112,-0.13311,-0.10178,-0.01864,165.0,-27.84,29.76,-7.5,88.229,66.361,-6.749,1.97,46.2619,,,,NaN,,,,0 / 0,6455,2014-12-14 13:29:11:264
0.27234,-8.9597,3.61165,0.52119,-9.03302,3.78194,-0.11223,0.04025,-0.05507,-0.08624,0.04203,-5.3E-4,165.0,-27.48,29.34,-7.5,86.46,66.916,-7.858,1.97,46.2619,,,,NaN,,,,0 / 0,6505,2014-12-14 13:29:11:314
-0.21129,-9.28531,3.69066,0.46313,-9.0628,3.7179,-0.60259,-0.29434,-0.10624,-0.11287,0.07505,0.01438,165.0,-28.14,29.4,-6.84,87.039,67.325,-7.535,1.97,46.2619,,,,NaN,,,,0 / 0,6555,2014-12-14 13:29:11:364
0.35614,-9.12011,3.31477,0.45879,-9.07148,3.6971,-0.07721,-0.08963,-0.43934,-0.066,-0.04532,-0.00266,165.0,-28.62,29.76,-7.5,87.039,67.325,-7.535,1.97,43.4955,,,,NaN,,,,0 / 0,6605,2014-12-14 13:29:11:414
0.42557,-9.02674,3.10887,0.46418,-9.09916,3.62766,-0.24451,-0.06255,-0.42318,-0.05428,-0.00165,0.00266,165.0,-28.26,30.06,-7.86,88.538,67.873,-7.231,1.97,43.4955,,,,NaN,,,,0 / 0,6655,2014-12-14 13:29:11:464
0.44233,-9.0842,3.32674,0.4543,-9.11338,3.5931,-0.1022,-0.14724,-0.17747,-0.01912,-0.03148,-0.00266,165.0,-28.26,29.46,-7.08,87.887,68.327,-7.206,1.97,43.4955,,,,NaN,,,,0 / 0,6705,2014-12-14 13:29:11:514
0.28192,-9.10335,3.21661,0.45894,-9.12251,3.56946,-0.8245,0.72769,-4.5439,-0.03617,-0.01976,-0.00905,165.0,-28.56,29.58,-7.02,87.887,68.327,-7.206,1.97,43.4955,,,,NaN,,,,0 / 0,6755,2014-12-14 13:29:11:564
0.09038,-9.20391,2.77368,0.54528,-9.16874,3.43628,-0.4549,-0.03516,-0.6626,-0.14589,-0.5428,-0.06338,165.0,-29.28,29.52,-7.08,88.906,68.753,-7.459,1.97,43.4955,,,,NaN,,,,0 / 0,6804,2014-12-14 13:29:11:613
0.26037,-9.36672,3.15915,0.60903,-9.1891,3.37059,0.11103,-0.14171,-0.13961,-0.15974,-0.12948,-0.01758,165.0,-29.16,29.94,-6.84,91.696,69.557,-10.242,1.97,43.4955,,,,NaN,,,,0 / 0,6854,2014-12-14 13:29:11:663
0.27234,-9.62289,3.8822,0.62698,-9.2289,3.25641,-0.36661,-0.17373,0.20201,-0.09902,-0.01017,0.02077,165.0,-28.08,30.06,-6.24,90.83,70.235,-10.898,1.97,43.4955,,,,NaN,,,,0 / 0,6904,2014-12-14 13:29:11:713
0.23882,-9.33798,4.03782,0.55126,-9.20675,3.33228,-0.32441,0.46492,0.20276,0.08208,0.1411,0.02503,185.0,-28.2,29.94,-5.22,86.987,69.854,-9.393,1.97,35.4334,,,,NaN,,,,0 / 0,6954,2014-12-14 13:29:11:763
0.63865,-8.59818,2.57018,0.47121,-9.19718,3.37074,0.54812,0.77617,-1.11181,-0.00208,-0.03041,-5.3E-4,185.0,-28.68,29.88,-5.4,86.987,69.854,-9.393,1.97,35.4334,,,,NaN,,,,0 / 0,7005,2014-12-14 13:29:11:814