ACCELEROMETER X (m/s²),ACCELEROMETER Y (m/s²),ACCELEROMETER Z (m/s²),GRAVITY X (m/s²),GRAVITY Y (m/s²),GRAVITY Z (m/s²),LINEAR ACCELERATION X (m/s²),LINEAR ACCELERATION Y (m/s²),LINEAR ACCELERATION Z (m/s²),GYROSCOPE X (rad/s),GYROSCOPE Y (rad/s),GYROSCOPE Z (rad/s),LIGHT (lux),MAGNETIC FIELD X (μT),MAGNETIC FIELD Y (μT),MAGNETIC FIELD Z (μT),ORIENTATION X (°),ORIENTATION Y (°),ORIENTATION Z (°),PROXIMITY (i),SOUND LEVEL (dB),LOCATION Latitude : ,LOCATION Longitude : ,LOCATION Altitude ( m),LOCATION Altitude-google ( m),LOCATION Speed ( Kmh),LOCATION Accuracy ( m),LOCATION ORIENTATION (°),Satellites in range,Time since start in ms ,YYYY-MO-DD HH-MI-SS_SSS
0.91399,-9.48643,-1.24618,-0.00913,-9.79932,0.38098,0.61426,0.57625,-1.1962,-0.6178,0.17093,-0.04208,117.0,-5.76,30.54,10.02,22.77,86.175,4.302,1.97,28.4946,,,,NaN,,,,0 / 0,6,2014-12-14 13:30:41:423
-0.4124,-9.50797,0.25977,0.0,-9.80485,0.19154,-0.4124,0.29688,0.06823,-0.9768,0.63112,-0.07403,117.0,-6.06,29.58,11.16,27.382,88.881,0.0,1.97,28.4946,,,,NaN,,,,0 / 0,56,2014-12-14 13:30:41:473
-0.52014,-9.01237,1.01394,-0.09577,-9.79243,-0.52134,-0.42437,0.78006,1.53528,-1.1025,0.43831,0.06552,117.0,-5.46,28.8,12.18,27.382,88.881,0.0,1.97,28.4946,,,,NaN,,,,0 / 0,107,2014-12-14 13:30:41:524
-0.02454,-8.66761,1.06662,-0.10983,-9.77822,-0.73951,0.08529,1.11061,1.80613,-1.04817,0.55336,0.07297,117.0,-5.22,28.32,12.72,214.555,85.628,171.552,1.97,28.4946,,,,NaN,,,,0 / 0,157,2014-12-14 13:30:41:574
1.7352,-9.35953,-0.59975,-0.08574,-9.74994,-1.05016,1.82094,0.3904,0.45041,-0.89797,1.08279,0.16352,117.0,-5.64,28.2,13.2,214.555,85.628,171.552,1.97,28.4946,,,,NaN,,,,0 / 0,207,2014-12-14 13:30:41:624
2.03208,-9.63247,-2.67073,0.06943,-9.69517,-1.47378,1.96265,0.0627,-1.19695,-1.12274,1.0274,-0.10599,117.0,-6.6,27.66,14.22,212.508,81.347,-177.303,1.97,28.4946,,,,NaN,,,,0 / 0,256,2014-12-14 13:30:41:673
-2.36128,-13.65234,1.20069,0.23912,-9.46997,-2.53681,-2.6004,-4.18237,3.7375,-1.66176,0.80369,-0.06551,71.0,-7.98,25.74,15.9,214.649,74.94,-174.615,1.97,48.3244,,,,NaN,,,,0 / 0,307,2014-12-14 13:30:41:724
4.93146,-13.84148,4.64116,0.70913,-9.46578,-2.46318,4.22232,-4.3757,7.10435,-0.53258,1.66017,-0.51612,71.0,-8.04,25.14,16.86,214.649,74.94,-174.615,1.97,48.3244,,,,NaN,,,,0 / 0,357,2014-12-14 13:30:41:774
-1.3222,-11.12885,3.83431,1.07604,-9.45844,-2.35619,-2.7885,-1.27536,6.57597,-0.30036,2.14806,-0.43622,71.0,-9.96,22.92,18.9,195.963,74.848,-163.939,1.97,48.3244,,,,NaN,,,,0 / 0,407,2014-12-14 13:30:41:824
-9.72585,-15.35222,2.53666,1.34105,-9.46353,-2.19414,-4.64086,-2.57272,6.78502,0.40272,2.1896,-0.54275,61.0,-11.88,22.38,19.68,179.346,74.798,-148.567,1.97,48.3244,,,,NaN,,,,0 / 0,457,2014-12-14 13:30:41:874
-0.22326,-12.78085,-2.08655,0.78141,-9.71777,-1.06198,-1.00467,-3.06308,-1.02457,1.94735,-1.52817,1.20535,61.0,-13.38,22.62,19.32,179.346,74.798,-148.567,1.97,48.3244,,,,NaN,,,,0 / 0,507,2014-12-14 13:30:41:924
10.27771,-15.66107,1.1169,0.52508,-9.78465,-0.39714,9.75263,-5.87642,1.51403,2.69623,-1.57398,0.59389,61.0,-14.52,22.98,17.94,165.961,86.151,-127.102,1.97,48.3244,,,,NaN,,,,0 / 0,557,2014-12-14 13:30:41:974
3.62183,-13.58051,-3.15436,0.48258,-9.69966,1.3617,3.13925,-3.88085,-4.51606,3.00516,0.81967,0.35527,61.0,-16.08,26.04,15.6,56.615,81.529,-19.514,1.97,48.3244,,,,NaN,,,,0 / 0,607,2014-12-14 13:30:42:024
3.21003,-12.96759,-2.9724,0.18361,-9.53147,2.29978,3.02642,-3.43613,-5.27218,2.89011,2.04899,0.81546,61.0,-16.02,28.38,14.16,56.615,81.529,-19.514,1.97,50.8079,,,,NaN,,,,0 / 0,656,2014-12-14 13:30:42:073
-1.49219,-5.96934,-3.35069,-0.37125,-8.92214,4.05323,-1.12094,2.9528,-7.40392,2.75376,-1.62298,0.58004,61.0,-14.58,34.08,7.02,33.33,70.88,4.138,1.97,50.8079,,,,NaN,,,,0 / 0,707,2014-12-14 13:30:42:124
0.23164,-2.77548,-5.99149,-0.17433,-8.45737,4.96124,0.40597,5.68189,-10.95272,2.06027,-1.84455,0.302,61.0,-13.62,37.38,-1.98,38.894,59.588,2.012,1.97,50.8079,,,,NaN,,,,0 / 0,756,2014-12-14 13:30:42:173
1.38804,-2.56239,-4.89016,0.10939,-8.26314,5.28011,1.27865,5.70074,-10.17027,1.05892,-1.67198,0.20293,61.0,-12.24,37.62,-6.9,38.894,59.588,2.012,1.97,50.8079,,,,NaN,,,,0 / 0,807,2014-12-14 13:30:42:224
-0.64224,-5.31573,3.47997,0.45969,-8.30773,5.19048,-1.10193,2.992,-1.71051,-0.32273,-0.95612,0.51506,77.0,-11.82,34.86,-15.06,48.203,57.347,-3.811,1.97,50.8079,,,,NaN,,,,0 / 0,856,2014-12-14 13:30:42:273
5.71436,-10.39622,15.8987,0.38367,-8.45048,4.96124,5.33069,-1.94574,10.93746,-1.22181,-0.22535,0.28283,77.0,-12.54,33.36,-17.52,87.94,59.508,-4.422,1.97,50.8079,,,,NaN,,,,0 / 0,907,2014-12-14 13:30:42:324
3.11905,-12.36904,8.45512,1.0545,-8.39302,4.96153,2.06455,-3.97602,3.49359,0.62642,-1.1777,-0.01012,77.0,-13.2,32.94,-18.12,91.997,58.853,-11.999,1.97,50.8079,,,,NaN,,,,0 / 0,957,2014-12-14 13:30:42:374
4.9123,-1.75555,-6.8558,1.42739,-8.22618,5.14424,3.48491,6.47063,-12.00004,0.95026,-0.66211,0.14435,77.0,-12.6,32.76,-17.82,91.997,58.853,-11.999,1.97,50.8079,,,,NaN,,,,0 / 0,1007,2014-12-14 13:30:42:424
-3.19686,-19.51813,7.73686,1.35811,-8.4834,4.72855,-4.55497,-11.03473,3.00831,0.09699,0.3158,0.19654,77.0,-12.3,32.46,-17.46,81.987,57.017,-15.508,1.97,52.9985,,,,NaN,,,,0 / 0,1057,2014-12-14 13:30:42:474
1.71126,-0.72604,-11.44069,1.23646,-8.67285,4.40728,-3.25133,8.05365,-18.73403,-0.2439,0.00688,-0.16458,87.0,-13.08,31.98,-17.46,81.987,57.017,-15.508,1.97,52.9985,,,,NaN,,,,0 / 0,1107,2014-12-14 13:30:42:524
-0.2903,-19.37687,4.17429,1.01589,-9.21094,3.20913,-9.67287,-5.14245,-4.31256,-2.94008,0.9784,0.19441,87.0,-12.72,28.92,-16.44,114.3,62.175,-15.671,1.97,52.9985,,,,NaN,,,,0 / 0,1157,2014-12-14 13:30:42:574
1.75196,-8.16004,-2.41455,1.00422,-9.51725,2.14101,0.74774,1.35721,-4.55557,-2.07402,0.29982,0.14008,87.0,-12.9,28.92,-15.48,138.152,71.476,-19.05,1.97,52.9985,,,,NaN,,,,0 / 0,1206,2014-12-14 13:30:42:623
1.0744,-8.12891,-1.00916,0.88286,-9.67048,1.36903,0.19154,1.54157,-2.37819,-2.4948,1.87961,0.24661,123.0,-12.66,29.16,-12.36,159.888,80.438,-32.817,1.97,52.9985,,,,NaN,,,,0 / 0,1256,2014-12-14 13:30:42:673
0.58359,-9.40502,1.24379,0.73652,-9.75592,0.67247,-0.15293,0.3509,0.57132,-2.54274,2.50279,0.21039,123.0,-11.1,30.54,-10.08,159.888,80.438,-32.817,1.97,52.9985,,,,NaN,,,,0 / 0,1307,2014-12-14 13:30:42:724
-1.82737,-8.70831,1.53109,0.57266,-9.77912,-0.46073,-2.40004,1.07081,1.99183,-1.49771,1.48227,0.11984,123.0,-11.22,30.54,-6.24,213.337,86.091,-82.347,1.97,52.9985,,,,NaN,,,,0 / 0,1356,2014-12-14 13:30:42:773
-1.03489,-8.49523,-0.20949,0.46807,-9.75907,-0.8453,-1.50296,1.26384,0.63581,-1.27401,0.59171,0.11452,123.0,-10.86,30.42,-3.66,275.609,84.346,-151.026,1.97,51.7463,,,,NaN,,,,0 / 0,1407,2014-12-14 13:30:42:824
3.49733,-10.74338,-0.39863,0.58628,-9.63546,-1.72816,2.91105,-1.10792,1.32953,-1.74805,1.09877,-0.13688,59.0,-10.56,30.12,-1.2,285.811,79.275,-161.26,1.97,51.7463,,,,NaN,,,,0 / 0,1457,2014-12-14 13:30:42:874
-4.81055,-13.27166,4.47357,0.83543,-9.43166,-2.55282,-5.64598,-3.84,7.02638,-1.81836,0.86867,-0.49907,59.0,-10.08,30.06,-0.48,285.811,79.275,-161.26,1.97,51.7463,,,,NaN,,,,0 / 0,1506,2014-12-14 13:30:42:923
-4.03722,-13.5015,5.06493,0.79877,-9.4562,-2.47276,-3.84239,-3.3869,7.825,-0.21513,0.79624,0.04101,59.0,-9.96,28.8,1.86,287.96,74.634,-162.098,1.97,51.7463,,,,NaN,,,,0 / 0,1556,2014-12-14 13:30:42:973
2.87005,-17.06407,15.83645,0.85982,-9.56289,-1.99602,2.01023,-7.50118,17.83246,0.46663,0.99757,-0.04314,59.0,-10.5,28.14,3.42,287.96,74.634,-162.098,1.97,51.7463,,,,NaN,,,,0 / 0,1606,2014-12-14 13:30:43:023
-4.13538,-17.17181,-6.91326,0.90441,-9.7649,0.02813,-5.03979,-7.40691,-6.94139,3.73487,1.2511,0.6056,59.0,-11.7,25.38,6.24,223.246,80.508,-142.576,1.97,51.7463,,,,NaN,,,,0 / 0,1657,2014-12-14 13:30:43:074
1.22523,-18.3354,1.64601,0.65676,-9.73767,0.95843,-2.71398,-6.95052,-11.61622,3.05416,0.47985,0.78563,59.0,-12.6,24.42,6.24,88.128,83.196,-34.421,1.97,51.7463,,,,NaN,,,,0 / 0,1707,2014-12-14 13:30:43:124
-0.86969,-16.0609,-1.07141,0.15652,-9.42343,2.71054,-0.68384,-5.72289,-4.05249,3.5101,-1.13402,0.99017,59.0,-14.04,25.14,5.22,88.128,83.196,-34.421,1.97,50.2166,,,,NaN,,,,0 / 0,1757,2014-12-14 13:30:43:174
0.60513,-7.17841,-4.70341,-0.13916,-9.0209,3.84389,1.39956,0.31259,-8.33152,3.11488,-2.17479,1.40242,59.0,-14.76,26.7,3.3,47.063,66.907,2.073,1.97,50.2166,,,,NaN,,,,0 / 0,1807,2014-12-14 13:30:43:224
0.72245,-2.27988,-6.28119,0.08814,-8.37971,5.09351,0.46986,5.96605,-11.81928,2.18278,-3.25923,0.47777,73.0,-14.22,30.48,-0.9,43.91,58.703,-0.991,1.97,50.2166,,,,NaN,,,,0 / 0,1857,2014-12-14 13:30:43:274
1.96983,-1.78428,-7.05212,0.96531,-7.80959,5.85233,1.10388,5.85652,-12.87213,1.47437,-2.53165,0.37231,73.0,-13.5,32.76,-4.38,43.91,58.703,-0.991,1.97,50.2166,,,,NaN,,,,0 / 0,1907,2014-12-14 13:30:43:324
2.34811,-3.95821,-3.81277,1.15849,-7.87333,5.73052,1.14353,4.15005,-10.51473,-0.02019,-1.60487,0.56086,73.0,-13.08,34.08,-7.8,43.139,53.404,-11.429,1.97,50.2166,,,,NaN,,,,0 / 0,1956,2014-12-14 13:30:43:373
5.06553,-10.62128,7.78954,1.18603,-8.36085,4.98593,3.89372,-2.21209,2.88217,-1.93554,0.19117,0.34994,73.0,-13.98,33.12,-12.36,67.322,58.492,-13.381,1.97,50.2166,,,,NaN,,,,0 / 0,2007,2014-12-14 13:30:43:424
4.84527,-15.42165,19.82459,1.18693,-8.54057,4.67109,3.65834,-6.88109,15.1535,-1.70864,-0.60991,-0.0506,73.0,-14.52,33.18,-13.08,67.322,58.492,-13.381,1.97,50.2166,,,,NaN,,,,0 / 0,2057,2014-12-14 13:30:43:474
3.82294,-6.71633,4.18387,1.55818,-8.39676,4.82043,2.26477,1.68043,-0.63656,0.71165,-0.77609,0.24235,91.0,-14.52,33.42,-12.6,81.393,60.181,-19.023,1.97,50.2166,,,,NaN,,,,0 / 0,2106,2014-12-14 13:30:43:523
4.2132,-2.50254,1.88543,1.61205,-8.28783,4.98847,2.60115,5.78529,-3.10303,0.69034,-0.27222,0.2562,91.0,-13.38,34.08,-11.1,81.393,60.181,-19.023,1.97,54.2977,,,,NaN,,,,0 / 0,2157,2014-12-14 13:30:43:574
6.98808,-0.87688,-7.5549,1.70766,-8.57244,4.44618,5.28041,7.69556,-12.00108,0.41444,-1.20859,0.43623,91.0,-14.22,33.72,-10.32,68.561,61.317,-21.038,1.97,54.2977,,,,NaN,,,,0 / 0,2207,2014-12-14 13:30:43:624
-5.99568,-15.21575,-3.13521,1.65694,-8.90972,3.74737,-1.55922,-10.43258,1.14727,-2.43834,0.2146,0.11878,109.0,-13.86,33.78,-10.98,71.5,61.028,-21.86,1.97,54.2977,,,,NaN,,,,0 / 0,2256,2014-12-14 13:30:43:673
-0.70928,-10.98759,0.2047,1.46525,-9.24925,2.91105,-2.23978,-0.01975,-4.26647,-1.54139,-0.54706,0.06445,109.0,-14.16,33.3,-10.32,71.5,61.028,-21.86,1.97,54.2977,,,,NaN,,,,0 / 0,2306,2014-12-14 13:30:43:723
0.62668,-8.15525,0.12809,1.29481,-9.61227,1.44879,-0.66813,1.45702,-1.3207,-2.29666,0.87826,0.15393,109.0,-14.4,32.94,-9.18,132.817,73.903,-31.903,1.97,54.2977,,,,NaN,,,,0 / 0,2357,2014-12-14 13:30:43:774
0.89962,-8.93576,1.40899,1.14832,-9.70669,0.79517,-0.49051,0.73263,0.79817,-2.50758,1.69425,0.33503,109.0,-14.4,33.6,-7.14,168.08,81.812,-55.299,1.97,54.2977,,,,NaN,,,,0 / 0,2406,2014-12-14 13:30:43:823
-0.15143,-9.168,3.37942,1.03385,-9.75009,-0.19722,-1.2583,0.39819,3.6733,-1.87269,1.92968,0.02717,149.0,-14.22,33.6,-5.16,168.08,81.812,-55.299,1.97,54.2977,,,,NaN,,,,0 / 0,2457,2014-12-14 13:30:43:874
-1.59035,-8.88548,-2.37625,1.0331,-9.73946,-0.49695,-1.61953,-0.27578,2.60444,-1.27507,0.74936,-0.14434,149.0,-14.82,33.42,-0.72,208.874,83.839,-100.8,1.97,53.267,,,,NaN,,,,0 / 0,2507,2014-12-14 13:30:43:924
-0.77393,-9.67796,-1.01155,0.98267,-9.64729,-1.46151,0.18839,-1.66951,3.29278,-1.57548,0.30728,-0.12091,149.0,-14.76,32.82,0.48,233.517,82.354,-129.579,1.97,53.267,,,,NaN,,,,0 / 0,2557,2014-12-14 13:30:43:974
3.61943,-12.18469,4.77763,1.1781,-9.53506,-1.96609,2.41365,-2.20476,6.51971,-0.94804,1.36296,-0.37657,63.0,-14.34,32.4,2.16,263.943,77.336,-151.562,1.97,53.267,,,,NaN,,,,0 / 0,2607,2014-12-14 13:30:44:024
-2.56239,-12.29722,3.28125,1.12123,-9.54688,-1.9423,-5.43514,-2.85987,3.97842,-0.3451,0.94537,-0.33183,63.0,-14.76,31.62,3.96,263.943,77.336,-151.562,1.97,53.267,,,,NaN,,,,0 / 0,2656,2014-12-14 13:30:44:073
-1.87047,-15.62995,11.70406,1.01454,-9.65267,-1.4033,-3.83102,-5.4694,12.22315,1.7066,0.90702,-0.00373,63.0,-15.24,31.08,5.22,245.873,77.686,-150.912,1.97,53.267,,,,NaN,,,,0 / 0,2706,2014-12-14 13:30:44:123
0.4136,-14.39693,0.24541,0.94571,-9.76101,-0.02574,-1.12991,-4.0034,4.6458,3.15962,0.78132,0.16778,63.0,-16.68,29.34,6.48,208.049,81.801,-134.805,1.97,53.267,,,,NaN,,,,0 / 0,2757,2014-12-14 13:30:44:174
0.35614,-16.26681,-8.86214,0.77363,-9.71417,1.09939,-0.41749,-6.55263,-9.96152,2.58438,0.96242,0.96779,63.0,-17.7,28.38,6.0,160.285,84.464,-91.559,1.97,53.267,,,,NaN,,,,0 / 0,2807,2014-12-14 13:30:44:224
-0.14425,-14.44242,-0.45849,0.10669,-9.39006,2.82591,-0.25094,-5.05236,-3.2844,2.26054,-0.36171,0.99017,63.0,-20.28,26.34,1.92,66.582,73.24,-2.162,1.97,53.267,,,,NaN,,,,0 / 0,2856,2014-12-14 13:30:44:273
1.03848,-7.68359,-3.21182,-0.16939,-9.05861,3.75276,-0.01796,-1.71111,-6.28463,2.78678,-2.34097,1.0168,63.0,-21.42,26.52,-0.78,66.582,73.24,-2.162,1.97,51.1115,,,,NaN,,,,0 / 0,2907,2014-12-14 13:30:44:324
1.80942,-7.09941,-3.20943,-0.20111,-8.72881,4.46519,2.01053,1.6294,-7.67461,2.50342,-2.91195,0.50121,63.0,-23.52,26.7,-3.78,68.1,62.885,2.579,1.97,51.1115,,,,NaN,,,,0 / 0,2957,2014-12-14 13:30:44:374
1.19411,-3.24714,-5.85741,0.29134,-8.15285,5.44202,0.90276,4.90572,-11.29943,2.25095,-2.88319,0.3574,75.0,-24.48,27.78,-6.48,68.1,62.885,2.579,1.97,51.1115,,,,NaN,,,,0 / 0,3009,2014-12-14 13:30:44:426
1.55084,-2.61986,-6.61638,0.83513,-7.79253,5.89497,0.71572,5.17267,-12.51135,1.01205,-2.13111,0.34355,75.0,-24.6,28.8,-8.7,71.765,52.619,-8.063,1.97,51.1115,,,,NaN,,,,0 / 0,3057,2014-12-14 13:30:44:474
3.00652,-9.80485,8.05769,0.99988,-8.45916,4.85933,2.00664,-1.34569,3.19835,-2.29453,0.776,0.56832,75.0,-25.68,29.76,-9.54,71.765,52.619,-8.063,1.97,51.1115,,,,NaN,,,,0 / 0,3107,2014-12-14 13:30:44:524
3.98096,-19.51813,19.82459,0.89199,-8.6709,4.49347,3.08897,-10.84723,15.33112,0.05331,-1.25866,0.06125,107.0,-27.24,31.26,-9.36,82.176,59.609,-11.627,1.97,51.1115,,,,NaN,,,,0 / 0,3157,2014-12-14 13:30:44:574
0.65302,-8.1337,6.78397,1.17226,-8.48221,4.78002,-0.51924,0.34851,2.00395,0.93109,-0.75266,0.27111,107.0,-27.78,32.58,-5.46,75.773,59.876,-13.779,1.97,51.1115,,,,NaN,,,,0 / 0,3206,2014-12-14 13:30:44:623
2.69048,-1.75794,1.16957,1.18094,-8.35442,4.99805,1.50954,6.59647,-3.82848,0.32176,-0.83681,0.35527,107.0,-28.26,33.12,-2.94,75.773,59.876,-13.779,1.97,51.1115,,,,NaN,,,,0 / 0,3257,2014-12-14 13:30:44:674
3.9211,-10.15201,-4.10965,1.15745,-8.70801,4.35894,2.76366,-1.444,-8.46859,0.49007,-0.17422,-0.0996,107.0,-28.26,35.28,-1.14,69.939,59.974,-15.343,1.97,51.5082,,,,NaN,,,,0 / 0,3307,2014-12-14 13:30:44:724
8.86992,0.12151,-12.82694,1.12602,-8.7113,4.36074,7.7439,8.83281,-17.18767,-0.41967,-0.34253,0.28283,133.0,-27.78,36.66,-0.9,69.961,62.62,-14.871,1.97,51.5082,,,,NaN,,,,0 / 0,3357,2014-12-14 13:30:44:774
-1.56401,-18.53411,2.93409,0.85323,-9.30297,2.98303,-2.41725,-9.23114,-0.04893,-1.7619,1.00609,0.08256,133.0,-27.0,39.12,0.0,78.471,71.556,-15.962,1.97,51.5082,,,,NaN,,,,0 / 0,3407,2014-12-14 13:30:44:824
-0.64464,-8.38509,-2.70664,0.77423,-9.47071,2.42443,-1.41886,1.08562,-5.13107,-1.67455,-0.25518,0.12197,133.0,-27.18,39.36,0.3,78.471,71.556,-15.962,1.97,51.5082,,,,NaN,,,,0 / 0,3457,2014-12-14 13:30:44:874
1.4862,-8.68676,-0.25019,0.54184,-9.74246,0.98132,0.94436,1.05569,-1.23152,-2.72064,2.294,0.29881,193.0,-27.6,39.24,3.3,82.625,74.958,-17.711,1.97,51.5082,,,,NaN,,,,0 / 0,3506,2014-12-14 13:30:44:923
0.05447,-9.10335,2.40737,0.42377,-9.79647,0.14485,-0.36931,0.69312,2.26252,-2.31264,2.07988,0.06871,193.0,-27.3,39.3,3.9,101.126,83.436,-28.905,1.97,51.5082,,,,NaN,,,,0 / 0,3557,2014-12-14 13:30:44:974
-1.04926,-10.54706,4.13838,0.44053,-9.74934,-0.96277,-1.48979,-0.79772,5.10115,-1.42101,0.95816,0.02184,193.0,-27.18,38.88,8.58,234.042,83.802,-155.413,1.97,51.5082,,,,NaN,,,,0 / 0,3606,2014-12-14 13:30:45:023
-1.29347,-9.05786,0.75776,0.40911,-9.72435,-1.20114,-1.70258,0.66649,1.95891,-1.17174,0.49477,-0.06551,97.0,-28.08,37.98,10.92,234.042,83.802,-155.413,1.97,50.349,,,,NaN,,,,0 / 0,3657,2014-12-14 13:30:45:074
-0.57521,-9.46248,-1.20069,0.38307,-9.65701,-1.66397,-0.95828,0.19453,0.46328,-1.42101,0.68012,-0.05379,97.0,-28.68,37.62,11.88,246.146,79.973,-167.035,1.97,50.349,,,,NaN,,,,0 / 0,3707,2014-12-14 13:30:45:124
-2.38762,-12.51748,4.3371,0.69088,-9.47146,-2.44702,-3.07849,-3.04602,6.78412,-1.05563,1.2788,-0.31372,97.0,-30.96,36.0,13.56,245.589,74.973,-164.234,1.97,50.349,,,,NaN,,,,0 / 0,3756,2014-12-14 13:30:45:173
0.24361,-11.68191,4.98114,0.63731,-9.51381,-2.2923,-0.3937,-2.1681,7.27344,-0.14483,0.87507,0.24342,97.0,-31.92,34.14,15.78,240.495,75.959,-164.463,1.97,50.349,,,,NaN,,,,0 / 0,3807,2014-12-14 13:30:45:224
0.25558,-16.32187,12.56836,0.69716,-9.58414,-1.95711,-0.44158,-6.73773,14.52547,0.64453,1.14564,-0.06125,61.0,-33.18,33.24,15.9,240.495,75.959,-164.463,1.97,50.349,,,,NaN,,,,0 / 0,3857,2014-12-14 13:30:45:274
0.09996,-14.35144,-4.71777,0.72933,-9.77927,-0.07572,-0.62938,-4.57218,-4.64206,3.52607,1.67188,0.30307,61.0,-34.02,32.16,15.6,213.963,81.988,-145.539,1.97,50.349,,,,NaN,,,,0 / 0,3907,2014-12-14 13:30:45:324
-1.14263,-16.73367,-9.07762,0.49814,-9.74784,0.95065,-1.64078,-6.98583,-10.02826,2.86668,1.43539,0.78883,61.0,-34.44,32.76,15.0,160.821,85.712,-95.927,1.97,50.349,,,,NaN,,,,0 / 0,3956,2014-12-14 13:30:45:373
0.50937,-16.00823,1.04028,-0.07003,-9.56903,2.14491,0.47271,-4.96348,-3.73436,3.20863,-0.59713,0.99762,61.0,-33.6,37.26,6.24,66.016,77.359,1.87,1.97,50.5171,,,,NaN,,,,0 / 0,4007,2014-12-14 13:30:45:424
-1.57838,-13.03703,-3.89417,-0.29703,-9.33155,3.00098,-1.28135,-3.70548,-6.89515,2.77187,-1.7849,1.39603,61.0,-33.12,38.7,0.48,66.016,77.359,1.87,1.97,50.5171,,,,NaN,,,,0 / 0,4056,2014-12-14 13:30:45:473
1.75435,-4.09708,-4.20781,-0.44143,-8.6278,4.64086,2.19578,4.53073,-8.84867,2.35961,-2.59024,0.70361,79.0,-31.5,39.9,-5.28,64.194,66.582,7.733,1.97,50.5171,,,,NaN,,,,0 / 0,4107,2014-12-14 13:30:45:524
1.83575,-2.15538,-7.07127,0.2888,-8.06217,5.5758,1.54695,5.9068,-12.64707,0.9737,-2.42299,0.31159,79.0,-28.38,39.96,-11.7,67.538,57.608,0.852,1.97,50.5171,,,,NaN,,,,0 / 0,4156,2014-12-14 13:30:45:573
1.68731,-3.44825,-4.65553,0.58044,-8.0119,5.62533,1.10687,4.56365,-10.28085,0.07994,-1.84349,0.42451,79.0,-27.3,38.76,-14.22,67.538,57.608,0.852,1.97,50.5171,,,,NaN,,,,0 / 0,4207,2014-12-14 13:30:45:624
2.45585,-9.5774,6.00586,0.61336,-8.45497,4.93041,2.623,-1.76647,1.08023,-1.29212,0.20821,0.43516,109.0,-27.12,37.8,-15.48,73.584,54.784,-5.891,1.97,50.5171,,,,NaN,,,,0 / 0,4256,2014-12-14 13:30:45:673
0.44233,-15.8143,18.09657,0.72844,-8.53144,4.78062,2.1277,-6.55907,14.88011,-0.30249,-1.07011,0.00373,109.0,-27.42,36.3,-13.86,83.335,60.162,-7.209,1.97,50.5171,,,,NaN,,,,0 / 0,4306,2014-12-14 13:30:45:723
2.88202,-13.44404,10.10712,0.90187,-8.45602,4.88387,1.32594,-1.21655,2.46214,0.66371,-1.37903,0.38403,109.0,-26.52,36.06,-12.36,83.335,60.162,-7.209,1.97,50.5171,,,,NaN,,,,0 / 0,4357,2014-12-14 13:30:45:774
2.07996,-13.53502,5.99628,1.1567,-8.1949,5.26081,1.98569,5.04892,-3.9639,0.16623,-1.35027,0.12837,149.0,-25.02,36.66,-9.9,78.412,59.573,-10.462,1.97,52.3467,,,,NaN,,,,0 / 0,4407,2014-12-14 13:30:45:824
-4.35086,-16.71691,0.95648,1.32504,-8.38449,4.91066,-1.26578,-3.58951,-6.34838,-0.03191,-0.07515,0.38083,149.0,-24.0,36.84,-9.3,72.879,58.758,-15.1,1.97,52.3467,,,,NaN,,,,0 / 0,4457,2014-12-14 13:30:45:874
12.37742,-1.83695,-12.53724,1.20009,-8.66686,4.42897,-1.28209,-3.55614,-15.66855,-0.4154,-0.47036,0.49056,149.0,-23.58,36.96,-9.06,72.879,58.758,-15.1,1.97,52.3467,,,,NaN,,,,0 / 0,4507,2014-12-14 13:30:45:924
-3.32614,-13.84627,1.38026,0.87807,-9.05352,3.66522,-8.16423,-9.75113,-1.46375,-1.77575,0.94324,0.302,197.0,-23.16,36.84,-7.74,75.573,62.101,-15.161,1.97,52.3467,,,,NaN,,,,0 / 0,4556,2014-12-14 13:30:45:973
-0.72365,-8.38988,-1.72263,0.5996,-9.50543,2.33629,-0.41584,1.48426,-4.14511,-1.62235,-0.10285,-0.02077,197.0,-22.74,35.88,-6.18,87.81,72.231,-12.09,1.97,52.3467,,,,NaN,,,,0 / 0,4607,2014-12-14 13:30:46:024
0.67696,-9.13687,0.19273,0.45191,-9.65312,1.66846,0.22505,0.51625,-1.47573,-2.35845,1.13712,0.34035,197.0,-22.38,36.3,-4.74,87.81,72.231,-12.09,1.97,52.3467,,,,NaN,,,,0 / 0,4656,2014-12-14 13:30:46:073
-0.14904,-8.65324,1.74178,0.20426,-9.77642,0.74205,0.041,1.38699,0.94885,-2.48415,2.12036,0.37018,197.0,-22.14,36.66,-2.82,95.558,79.848,-15.155,1.97,52.3467,,,,NaN,,,,0 / 0,4707,2014-12-14 13:30:46:124
-1.42515,-9.96048,1.16957,0.167,-9.79124,-0.52553,-2.01218,-0.38517,2.05452,-1.93447,1.49718,-0.19547,215.0,-21.18,36.48,1.86,109.753,88.332,-27.882,1.97,59.7688,,,,NaN,,,,0 / 0,4756,2014-12-14 13:30:46:173
-3.11545,-9.47206,0.45131,0.11881,-9.74665,-1.07769,-3.48177,-0.0621,2.23873,-1.32621,0.30089,-0.13156,215.0,-20.88,35.94,4.2,109.753,88.332,-27.882,1.97,59.7688,,,,NaN,,,,0 / 0,4807,2014-12-14 13:30:46:224
3.75351,-9.168,-0.29329,0.29853,-9.61272,-1.9182,3.55329,0.48213,1.44056,-1.43167,0.97307,-0.05912,215.0,-21.48,35.52,6.42,264.789,81.598,-176.648,1.97,59.7688,,,,NaN,,,,0 / 0,4857,2014-12-14 13:30:46:274
-1.25037,-11.974,-0.02753,0.39953,-9.54927,-2.19653,-1.6499,-2.42473,2.169,-1.37521,1.58986,-0.18482,83.0,-22.56,34.86,8.46,260.088,76.841,-169.691,1.97,59.7688,,,,NaN,,,,0 / 0,4907,2014-12-14 13:30:46:324
-0.75477,-11.62445,0.50877,0.49919,-9.49675,-2.3948,-1.25396,-2.1277,2.90357,-1.10676,1.62501,-0.14967,83.0,-22.8,33.9,9.9,260.088,76.841,-169.691,1.97,59.7688,,,,NaN,,,,0 / 0,4956,2014-12-14 13:30:46:373
-1.485,-11.4377,1.47603,0.70464,-9.44812,-2.53157,-2.18965,-1.98958,4.00759,-0.55389,1.19891,-0.06977,83.0,-24.12,32.64,11.82,250.604,74.579,-165.902,1.97,59.7688,,,,NaN,,,,0 / 0,5018,2014-12-14 13:30:46:435
-3.2615,-15.48151,6.36499,0.78126,-9.63831,-1.6321,-3.2196,-7.75901,12.90969,0.46131,1.28519,-0.11664,67.0,-25.08,31.38,11.52,239.967,76.423,-161.483,1.97,59.7688,,,,NaN,,,,0 / 0,5057,2014-12-14 13:30:46:474
-2.52409,-14.94521,2.37625,0.66514,-9.75652,-0.73532,-3.26883,-5.24031,3.5726,2.85709,1.35337,0.43942,67.0,-25.44,30.84,10.98,239.967,76.423,-161.483,1.97,51.6168,,,,NaN,,,,0 / 0,5106,2014-12-14 13:30:46:523
1.33058,-15.82867,-4.53342,0.2894,-9.77029,0.79263,1.04118,-6.05838,-5.32605,2.55562,-0.0858,0.83038,67.0,-27.12,30.9,8.64,210.209,84.197,-137.869,1.97,51.6168,,,,NaN,,,,0 / 0,5157,2014-12-14 13:30:46:574
-0.41719,-15.09843,-0.76495,0.08215,-9.69113,1.49847,-0.49934,-5.4073,-2.26342,2.65256,-0.9998,0.83251,67.0,-27.3,30.9,7.38,69.56,81.197,-3.138,1.97,51.6168,,,,NaN,,,,0 / 0,5207,2014-12-14 13:30:46:624
1.11271,-10.24778,-3.36744,-0.37634,-9.20361,3.3649,1.48904,-1.04417,-6.73235,2.82193,-1.09993,1.13291,67.0,-26.4,32.34,-0.3,61.962,69.802,6.382,1.97,51.6168,,,,NaN,,,,0 / 0,5256,2014-12-14 13:30:46:673
0.51415,-5.37079,-4.50469,-0.31095,-8.4659,4.93984,0.8251,3.0951,-9.44453,2.69623,-2.06187,1.07219,91.0,-27.0,32.4,-2.76,61.962,69.802,6.382,1.97,51.6168,,,,NaN,,,,0 / 0,5307,2014-12-14 13:30:46:724
1.53408,-4.45621,-4.85424,-0.08874,-8.16932,5.42451,1.62282,3.71311,-10.27876,2.35428,-2.58065,0.62798,91.0,-26.28,32.58,-7.68,67.1,59.687,3.602,1.97,51.6168,,,,NaN,,,,0 / 0,5356,2014-12-14 13:30:46:773
1.9004,-4.8728,-2.90058,0.29793,-7.92077,5.77437,1.60247,3.04797,-8.67494,0.69247,-1.74229,0.4309,91.0,-26.28,31.62,-12.54,73.904,53.871,-2.954,1.97,51.6168,,,,NaN,,,,0 / 0,5407,2014-12-14 13:30:46:824
1.72562,-5.44022,0.21189,0.51909,-7.96267,5.70059,1.20653,2.52244,-5.48871,0.06077,-1.26399,0.48097,91.0,-27.0,30.9,-12.96,73.904,53.871,-2.954,1.97,51.3981,,,,NaN,,,,0 / 0,5457,2014-12-14 13:30:46:874
1.79026,-6.58944,2.25175,0.62444,-8.07055,5.53599,1.16583,1.48111,-3.28425,-0.44097,-0.54919,0.40427,147.0,-27.48,30.48,-12.78,78.971,54.289,-5.203,1.97,51.3981,,,,NaN,,,,0 / 0,5507,2014-12-14 13:30:46:924
-0.02933,-11.78965,12.33613,0.88855,-8.24892,5.22834,-0.91788,-3.54072,7.10779,-0.02232,-1.21179,0.12624,147.0,-28.98,30.48,-11.82,85.3,57.263,-9.645,1.97,51.3981,,,,NaN,,,,0 / 0,5557,2014-12-14 13:30:46:974
0.91399,-11.54304,10.49498,1.01709,-8.07804,5.46641,-0.1031,-3.46501,5.02857,0.83628,-1.29275,0.29135,147.0,-27.9,31.56,-10.68,85.3,57.263,-9.645,1.97,51.3981,,,,NaN,,,,0 / 0,5606,2014-12-14 13:30:47:023
2.38163,-3.93427,2.48638,1.22568,-7.71995,5.92206,1.15595,3.78568,-3.43568,0.80432,-0.42775,0.26366,199.0,-28.08,31.98,-7.56,72.957,53.723,-11.221,1.97,51.3981,,,,NaN,,,,0 / 0,5657,2014-12-14 13:30:47:074
11.32637,-10.65719,6.49667,1.50206,-7.50911,6.12601,9.82431,-3.14808,0.37065,0.33454,-0.75372,-0.03142,199.0,-29.04,31.62,-6.24,67.946,49.971,-13.777,1.97,51.3981,,,,NaN,,,,0 / 0,5707,2014-12-14 13:30:47:124
2.38642,2.70006,-8.81186,1.99901,-6.91266,6.66261,0.38741,9.61272,-15.47447,1.32524,1.11262,-0.19654,199.0,-29.4,31.56,-6.18,67.946,49.971,-13.777,1.97,51.3981,,,,NaN,,,,0 / 0,5757,2014-12-14 13:30:47:174
-2.91195,-19.51813,3.03465,1.28359,-7.19024,6.54395,-12.25801,-2.3547,-2.98662,-1.69053,1.97229,-0.08575,167.0,-29.76,30.72,-7.44,67.287,44.821,-16.701,1.97,66.4553,,,,NaN,,,,0 / 0,5806,2014-12-14 13:30:47:223
-1.43233,-7.85358,-1.87586,1.12138,-7.46497,6.25994,-2.50015,-3.20883,-6.96488,-0.45162,-0.48421,0.19335,167.0,-31.86,29.46,-8.22,74.195,49.572,-10.156,1.97,66.4553,,,,NaN,,,,0 / 0,5857,2014-12-14 13:30:47:274
0.44233,-7.75063,0.96367,1.05465,-7.92137,5.68428,0.16999,-1.39836,-2.06949,-0.93312,0.45322,-0.01331,167.0,-33.12,28.74,-10.14,74.195,49.572,-10.156,1.97,66.4553,,,,NaN,,,,0 / 0,5906,2014-12-14 13:30:47:323
2.16376,-8.60775,4.0474,0.98013,-8.30743,5.11835,1.06018,-1.39328,-0.75238,-0.90756,0.27426,0.02504,167.0,-32.76,29.7,-10.74,83.446,53.877,-10.511,1.97,66.4553,,,,NaN,,,,0 / 0,5957,2014-12-14 13:30:47:374
-1.47543,-8.96688,5.8215,0.87329,-8.44959,4.90033,-1.82767,-0.36901,0.31319,-0.83618,0.8772,-0.12304,167.0,-32.88,29.58,-9.96,86.73,59.498,-10.105,1.97,66.4553,,,,NaN,,,,0 / 0,6007,2014-12-14 13:30:47:424
0.0808,-7.80809,5.78559,0.7208,-8.54416,4.75907,-2.12201,-0.56159,2.13024,-0.37705,0.89318,-0.15393,203.0,-32.76,29.7,-9.96,86.73,59.498,-10.105,1.97,66.4553,,,,NaN,,,,0 / 0,6057,2014-12-14 13:30:47:474
-1.32459,-9.80246,7.11198,0.48782,-8.68347,4.53088,-1.81241,-1.11899,2.5811,-0.02871,0.4447,-0.28176,203.0,-33.36,29.94,-8.94,86.682,60.605,-8.612,1.97,66.4553,,,,NaN,,,,0 / 0,6106,2014-12-14 13:30:47:523
-0.90082,-9.61811,4.81354,0.38337,-8.65878,4.58789,-1.28419,-0.95933,0.22565,0.35904,0.46387,-0.34248,203.0,-33.48,29.76,-8.28,81.842,62.0,-4.777,1.97,66.4553,,,,NaN,,,,0 / 0,6157,2014-12-14 13:30:47:574
-2.53127,-11.23898,3.20943,0.28536,-8.72911,4.4601,-2.81663,-2.50987,-1.25067,-0.19809,0.62579,-0.19441,173.0,-32.46,30.24,-9.84,84.578,62.888,-3.661,1.97,55.2023,,,,NaN,,,,0 / 0,6207,2014-12-14 13:30:47:624
0.67457,-9.48164,2.1464,0.23822,-8.77984,4.36224,0.43634,-0.7018,-2.21583,-0.01167,0.25508,-0.17523,173.0,-32.16,30.24,-10.26,84.578,62.888,-3.661,1.97,55.2023,,,,NaN,,,,0 / 0,6256,2014-12-14 13:30:47:673
1.7759,-7.97808,4.07134,0.43305,-8.83341,4.23729,1.34285,0.85533,-0.16595,-0.0905,-0.1167,-0.24661,173.0,-32.94,30.3,-10.56,88.095,64.151,-4.128,1.97,55.2023,,,,NaN,,,,0 / 0,6307,2014-12-14 13:30:47:724
1.56282,-8.65564,3.12802,0.51625,-8.85451,4.18357,1.04657,0.19887,-1.05554,-0.21727,0.49583,-0.21465,173.0,-33.12,29.94,-10.8,89.727,64.257,-5.835,1.97,55.2023,,,,NaN,,,,0 / 0,6357,2014-12-14 13:30:47:774
-0.62549,-8.72268,3.50631,0.45071,-8.94893,3.98545,-1.07619,0.22625,-0.47914,-0.23431,0.06546,-0.0964,163.0,-33.3,29.28,-11.52,94.373,65.858,-6.452,1.97,55.2023,,,,NaN,,,,0 / 0,6406,2014-12-14 13:30:47:823
0.77273,-8.96209,4.3778,0.46029,-8.97736,3.92006,0.31244,0.01526,0.45774,-0.17785,-0.00165,-0.07723,163.0,-33.3,28.62,-11.58,94.373,65.858,-6.452,1.97,55.2023,,,,NaN,,,,0 / 0,6457,2014-12-14 13:30:47:874
0.59077,-8.93576,3.26689,0.57745,-9.01477,3.81711,0.01332,0.07901,-0.55022,-0.16187,0.10808,-0.11025,163.0,-33.72,29.16,-11.94,96.28,66.465,-7.759,1.97,55.2023,,,,NaN,,,,0 / 0,6506,2014-12-14 13:30:47:923
0.15981,-8.84717,2.85269,0.57177,-9.04589,3.74378,-0.41195,0.19872,-0.89109,-0.16613,0.02925,-0.00905,163.0,-33.84,28.74,-11.7,98.015,67.283,-8.683,1.97,44.3857,,,,NaN,,,,0 / 0,6557,2014-12-14 13:30:47:974
1.27312,-9.07941,3.70024,0.59017,-9.08615,3.64203,0.68295,0.00673,0.05821,-0.11926,0.02712,-0.06764,163.0,-33.54,27.78,-11.1,98.015,67.283,-8.683,1.97,44.3857,,,,NaN,,,,0 / 0,6606,2014-12-14 13:30:48:023
0.63865,-8.93576,3.19267,0.62174,-9.09946,3.60327,0.01691,0.1637,-0.41061,-0.10222,0.04736,-0.04421,163.0,-34.08,28.56,-11.4,98.169,67.9,-9.204,1.97,44.3857,,,,NaN,,,,0 / 0,6657,2014-12-14 13:30:48:074
0.42796,-9.61332,3.30759,0.58688,-9.14391,3.49524,-0.15892,-0.46941,-0.18765,-0.1118,0.03777,0.01332,163.0,-34.26,28.74,-11.52,100.324,68.484,-9.768,1.97,44.3857,,,,NaN,,,,0 / 0,6707,2014-12-14 13:30:48:124
0.80385,-8.90224,2.50074,0.61097,-9.16755,3.42835,0.18241,0.24825,-0.77946,-0.05641,-0.04852,-0.02716,163.0,-34.44,28.8,-10.56,100.324,68.484,-9.768,1.97,44.3857,,,,NaN,,,,0 / 0,6757,2014-12-14 13:30:48:174
0.54528,-9.13927,2.642,0.61666,-9.19807,3.3447,-0.01272,0.05073,-0.7425,-0.10967,0.02072,0.01438,163.0,-33.84,28.5,-10.92,99.718,69.2,-10.105,1.97,44.3857,,,,NaN,,,,0 / 0,6807,2014-12-14 13:30:48:224
0.17178,-9.45769,2.34991,0.60768,-9.24715,3.20793,-0.0829,-0.88945,0.49635,-0.30675,-0.45225,0.01545,163.0,-32.76,28.38,-11.1,102.368,70.553,-10.726,1.97,44.3857,,,,NaN,,,,0 / 0,6856,2014-12-14 13:30:48:273
1.51972,-9.18236,2.89339,0.72125,-9.27858,3.09166,0.89034,0.29299,-0.62369,-0.15655,-0.22322,-0.04847,163.0,-32.58,29.16,-11.4,104.819,71.112,-13.132,1.97,44.3857,,,,NaN,,,,0 / 0,6907,2014-12-14 13:30:48:324
0.63865,-9.61332,3.88938,0.74011,-9.28397,3.07101,-0.68998,0.10849,0.48797,0.02988,0.47666,-0.00266,163.0,-32.34,29.7,-11.7,104.819,71.112,-13.132,1.97,40.5564,,,,NaN,,,,0 / 0,6956,2014-12-14 13:30:48:373
0.81343,-8.89266,2.59172,0.56294,-9.29175,3.08508,-0.22461,0.17163,-0.15847,-0.05002,-0.05278,0.00586,163.0,-32.88,29.46,-10.68,102.419,71.144,-11.28,1.97,40.5564,,,,NaN,,,,0 / 0,7007,2014-12-14 13:30:48:424