ACCELEROMETER X (m/s²),ACCELEROMETER Y (m/s²),ACCELEROMETER Z (m/s²),GRAVITY X (m/s²),GRAVITY Y (m/s²),GRAVITY Z (m/s²),LINEAR ACCELERATION X (m/s²),LINEAR ACCELERATION Y (m/s²),LINEAR ACCELERATION Z (m/s²),GYROSCOPE X (rad/s),GYROSCOPE Y (rad/s),GYROSCOPE Z (rad/s),LIGHT (lux),MAGNETIC FIELD X (μT),MAGNETIC FIELD Y (μT),MAGNETIC FIELD Z (μT),ORIENTATION X (°),ORIENTATION Y (°),ORIENTATION Z (°),PROXIMITY (i),SOUND LEVEL (dB),LOCATION Latitude : ,LOCATION Longitude : ,LOCATION Altitude ( m),LOCATION Altitude-google ( m),LOCATION Speed ( Kmh),LOCATION Accuracy ( m),LOCATION ORIENTATION (°),Satellites in range,Time since start in ms ,YYYY-MO-DD HH-MI-SS_SSS
1.0689,-9.483,3.0401,1.5981,-9.2574,2.8137,-0.5292,-0.2256,0.2264,-0.0513,-0.0305,-0.0244,1618.0,-43.4,29.8,-46.6,161.03,70.41,-28.65,,59.009,,,,NaN,,,,0 / 0,20,2014-12-14 04:47:29:707
1.1082,-9.3163,2.8341,1.6081,-9.2658,2.7801,-0.5,-0.0505,0.0541,-0.0819,-0.0147,-0.0232,1618.0,-43.4,29.4,-45.7,163.68,70.88,-30.05,,59.009,,,,NaN,,,,0 / 0,69,2014-12-14 04:47:29:756
1.0885,-9.2379,2.8243,1.6215,-9.2796,2.7257,-0.5232,-0.0073,0.079,-0.1222,0.0049,-0.0379,1618.0,-43.9,29.8,-45.7,163.68,70.88,-30.05,,59.009,,,,NaN,,,,0 / 0,119,2014-12-14 04:47:29:806
1.0395,-9.2673,2.7262,1.64,-9.2993,2.6465,-0.6005,0.032,0.0797,-0.1478,0.0073,-0.0318,1618.0,-43.9,29.8,-45.7,165.11,71.49,-31.79,,59.009,,,,NaN,,,,0 / 0,170,2014-12-14 04:47:29:857
1.0199,-9.5615,2.9224,1.6492,-9.3292,2.533,-0.6293,-0.2323,0.3894,-0.1356,-0.0244,-0.0452,1618.0,-43.9,29.8,-46.1,166.82,72.05,-33.07,,59.009,,,,NaN,,,,0 / 0,219,2014-12-14 04:47:29:906
1.0689,-9.0515,2.942,1.6884,-9.3409,2.4632,-0.7078,0.2992,0.4494,-0.1442,-0.055,-0.0965,1618.0,-43.9,29.8,-44.2,166.92,72.27,-34.43,,59.009,,,,NaN,,,,0 / 0,270,2014-12-14 04:47:29:957
1.0689,-9.0515,2.942,1.6884,-9.3409,2.4632,-0.7078,0.2992,0.4494,-0.1442,-0.055,-0.0965,1618.0,-43.9,29.8,-44.2,166.92,72.27,-34.43,,59.009,,,,NaN,,,,0 / 0,320,2014-12-14 04:47:30:007
1.0199,-8.9142,3.295,1.6854,-9.3642,2.3751,-0.7122,0.4708,1.1877,-0.2028,0.0061,-0.1002,1618.0,-44.3,29.8,-43.2,167.32,72.51,-35.39,,59.009,,,,NaN,,,,0 / 0,369,2014-12-14 04:47:30:056
0.608,-8.8162,3.5794,1.6813,-9.361,2.3906,-1.0733,0.5448,1.1888,-0.2456,-0.0367,-0.0037,1618.0,-44.7,29.8,-42.7,166.25,72.66,-35.12,,59.009,,,,NaN,,,,0 / 0,419,2014-12-14 04:47:30:106
0.6669,-9.689,4.1776,1.5204,-9.3721,2.454,-0.8536,-0.3168,1.7237,-0.1564,-0.2492,0.0452,1618.0,-44.3,30.3,-42.2,162.14,72.88,-31.78,,36.969,,,,NaN,,,,0 / 0,469,2014-12-14 04:47:30:156
1.2454,-8.9535,4.8543,1.5237,-9.3098,2.6789,-0.2783,0.3563,2.1754,-0.0794,-0.2224,-0.0061,1618.0,-44.7,29.8,-41.3,162.14,72.88,-31.78,,36.969,,,,NaN,,,,0 / 0,519,2014-12-14 04:47:30:206
0.7943,-9.5713,5.0014,1.6088,-9.2135,2.9485,-0.8145,-0.3578,2.0529,0.0147,-0.4252,-0.0281,1618.0,-44.7,30.3,-40.8,155.6,69.97,-28.62,,36.969,,,,NaN,,,,0 / 0,569,2014-12-14 04:47:30:256
0.7355,-9.6694,5.1681,1.6107,-9.1939,3.0081,-0.7477,-0.6324,2.621,0.0525,-0.4484,0.0,1618.0,-44.7,29.8,-41.8,155.6,69.97,-28.62,,36.969,,,,NaN,,,,0 / 0,620,2014-12-14 04:47:30:307
1.0297,-9.5615,5.5506,1.7581,-8.9891,3.5037,-0.7284,-0.5724,2.0469,0.2492,-0.3519,0.1539,1618.0,-45.2,29.8,-39.8,151.93,67.11,-27.53,,36.969,,,,NaN,,,,0 / 0,670,2014-12-14 04:47:30:357
0.9022,-9.6203,5.629,1.7513,-8.9305,3.6538,-0.8491,-0.6899,1.9753,0.4875,-0.5302,0.11,1618.0,-45.2,28.9,-39.3,147.86,65.6,-25.61,,36.969,,,,NaN,,,,0 / 0,719,2014-12-14 04:47:30:406
0.6865,-9.8557,5.0602,1.7408,-8.8176,3.923,-1.0543,-1.0381,1.1372,0.7953,-0.5009,0.1136,1618.0,-44.7,29.4,-40.8,147.86,65.6,-25.61,,36.969,,,,NaN,,,,0 / 0,769,2014-12-14 04:47:30:456
0.5786,-9.1986,5.9526,1.7543,-8.4456,4.6653,-1.1757,-0.753,1.2874,1.4636,-0.7343,0.077,1618.0,-45.6,27.2,-41.8,142.98,61.73,-21.93,,36.969,,,,NaN,,,,0 / 0,819,2014-12-14 04:47:30:506
1.216,-7.3452,4.8053,1.9663,-7.9838,5.3444,-0.7503,0.6386,-0.5392,1.146,-1.1851,0.0489,2237.0,-46.5,25.5,-42.7,137.29,54.5,-20.2,,36.969,,,,NaN,,,,0 / 0,870,2014-12-14 04:47:30:557
1.9613,-2.1084,4.0305,2.4252,-7.7069,5.5581,1.7395,7.9013,-0.4231,0.7611,-1.0751,-0.0501,2237.0,-46.9,24.6,-42.7,137.29,54.5,-20.2,,56.874,,,,NaN,,,,0 / 0,919,2014-12-14 04:47:30:606
4.9818,0.559,6.0899,2.698,-7.5525,5.6436,-0.4465,10.6821,-6.3297,-0.3983,-0.6463,0.0379,2237.0,-47.8,24.2,-40.8,138.66,50.37,-25.55,,56.874,,,,NaN,,,,0 / 0,969,2014-12-14 04:47:30:656
3.9227,-3.2264,2.3438,3.0728,-7.5005,5.5201,0.8499,4.2741,-3.1763,-2.0354,1.7507,0.9505,2237.0,-46.5,25.0,-39.3,141.9,49.89,-29.1,,56.874,,,,NaN,,,,0 / 0,1019,2014-12-14 04:47:30:706
8.4729,-12.4152,-0.9611,2.6844,-8.175,4.7047,5.7886,-4.2402,-5.6657,-2.3873,3.4844,0.2737,2237.0,-44.7,26.3,-38.3,141.9,49.89,-29.1,,56.874,,,,NaN,,,,0 / 0,1069,2014-12-14 04:47:30:756
0.3138,-12.2289,-7.4334,2.7594,-9.2162,1.9023,-2.4456,-3.0127,-9.3357,-3.5748,4.5045,-0.6939,2601.0,-44.3,26.3,-38.3,187.91,70.02,-55.42,,56.874,,,,NaN,,,,0 / 0,1119,2014-12-14 04:47:30:806
-3.6775,-16.5438,-3.2754,2.7663,-9.2521,-1.7076,-7.7478,-8.8752,-0.8101,-3.5956,0.9615,-1.4991,2601.0,-46.0,25.5,-34.0,187.91,70.02,-55.42,,56.874,,,,NaN,,,,0 / 0,1169,2014-12-14 04:47:30:856
-2.942,-19.9663,7.8159,2.0474,-8.849,-3.6978,-4.9894,-11.1174,11.5137,-2.4019,1.2889,0.5009,687.0,-48.7,21.1,-24.7,248.18,70.64,-121.69,,56.874,,,,NaN,,,,0 / 0,1220,2014-12-14 04:47:30:907
0.4217,-16.6615,9.3752,1.798,-9.0825,-3.2321,-1.3763,-7.579,12.6072,-1.1435,1.3121,0.5705,687.0,-49.1,21.6,-23.7,275.93,67.84,-150.91,,56.874,,,,NaN,,,,0 / 0,1270,2014-12-14 04:47:30:957
0.4217,-16.6615,9.3752,1.798,-9.0825,-3.2321,-1.3763,-7.579,12.6072,-1.1435,1.3121,0.5705,687.0,-49.1,21.6,-23.7,275.93,67.84,-150.91,,56.874,,,,NaN,,,,0 / 0,1331,2014-12-14 04:47:31:018
0.4217,-16.6615,9.3752,1.798,-9.0825,-3.2321,-1.3763,-7.579,12.6072,-1.1435,1.3121,0.5705,687.0,-49.1,21.6,-23.7,275.93,67.84,-150.91,,56.874,,,,NaN,,,,0 / 0,1369,2014-12-14 04:47:31:056
-5.2662,-4.7366,6.796,1.8657,-9.3291,-2.3786,-4.8469,3.8962,9.2923,-0.2541,-0.0305,-0.5351,687.0,-50.4,20.3,-24.2,264.49,72.05,-141.89,,69.025,,,,NaN,,,,0 / 0,1419,2014-12-14 04:47:31:106
-3.295,-17.9756,-1.9613,0.2224,-9.5523,2.2078,-3.5175,-8.4233,-4.1691,3.7324,-2.9114,1.1448,687.0,-52.1,19.8,-28.1,219.32,85.66,-100.91,,69.025,,,,NaN,,,,0 / 0,1470,2014-12-14 04:47:31:157
0.5884,-19.9369,-9.4438,-0.5267,-9.2115,3.323,2.3903,-10.8277,-12.5132,3.7324,-2.9114,1.1448,555.0,-52.1,19.8,-28.1,219.32,85.66,-100.91,,69.025,,,,NaN,,,,0 / 0,1520,2014-12-14 04:47:31:207
-2.2849,-14.9355,-3.7461,-0.7351,-8.6567,4.5488,-1.5498,-6.2788,-8.2949,3.3683,-3.7312,0.9798,555.0,-48.7,25.5,-38.3,102.99,66.77,13.6,,69.025,,,,NaN,,,,0 / 0,1570,2014-12-14 04:47:31:257
4.0698,-0.3138,-4.5895,-0.1532,-8.7419,4.4415,4.223,8.4281,-9.031,0.0855,-3.5699,0.2419,1643.0,-50.0,25.0,-34.0,108.81,63.05,1.98,,69.025,,,,NaN,,,,0 / 0,1620,2014-12-14 04:47:31:307
5.2858,1.9025,-5.1485,0.0642,-8.8322,4.2612,5.2216,10.7347,-9.4097,0.0855,-3.5699,0.2419,1643.0,-50.0,25.0,-34.0,108.81,63.05,1.98,,69.025,,,,NaN,,,,0 / 0,1669,2014-12-14 04:47:31:356
9.0221,0.912,-2.8047,2.9274,-8.9312,2.799,6.0947,9.8432,-5.6037,-0.2908,2.2993,-0.2272,1643.0,-50.8,24.6,-30.5,162.16,65.61,-46.28,,69.025,,,,NaN,,,,0 / 0,1719,2014-12-14 04:47:31:406
2.3242,-7.6394,1.5004,3.7948,-8.764,2.2275,-1.4706,1.1246,-0.7271,-1.4319,6.1258,0.7905,3055.0,-49.1,25.9,-34.9,187.31,63.34,-59.59,,69.025,,,,NaN,,,,0 / 0,1770,2014-12-14 04:47:31:457
-1.9515,-5.2564,-7.3158,3.8165,-9.0059,0.7055,-5.768,3.7496,-8.0212,-2.6157,3.8167,-1.1655,3055.0,-50.0,24.2,-39.8,215.55,66.69,-79.53,,68.76,,,,NaN,,,,0 / 0,1819,2014-12-14 04:47:31:506
-11.0129,-14.5531,-9.7968,4.2886,-8.5254,-2.2576,-15.3014,-6.0277,-7.5393,-5.7983,0.2896,-1.9206,3055.0,-53.4,22.4,-32.5,252.28,60.38,-117.76,,68.76,,,,NaN,,,,0 / 0,1869,2014-12-14 04:47:31:556
-7.4923,-19.3191,-2.5988,3.9244,-8.1619,-3.7621,-11.4167,-11.1572,1.1634,-5.7983,0.2896,-1.9206,3055.0,-53.4,22.4,-32.5,252.28,60.38,-117.76,,68.76,,,,NaN,,,,0 / 0,1919,2014-12-14 04:47:31:606
-0.8238,-19.7212,8.9927,3.5145,-8.2229,-4.0252,-4.3383,-11.4983,13.0179,-3.9718,1.6945,0.1845,3055.0,-55.6,18.5,-28.1,265.35,56.33,-135.52,,68.76,,,,NaN,,,,0 / 0,1969,2014-12-14 04:47:31:656
-6.5901,-5.5506,3.4127,3.3332,-9.0694,-1.6752,-9.9232,3.5189,5.0879,1.0922,0.7844,-0.7966,764.0,-56.0,16.8,-27.6,240.68,67.64,-116.68,,68.76,,,,NaN,,,,0 / 0,2019,2014-12-14 04:47:31:706
-6.8941,-5.1779,3.2656,3.2556,-9.1463,-1.3842,-10.1497,3.9684,4.6499,1.5479,1.2217,-0.5632,764.0,-56.0,15.0,-30.5,240.68,67.64,-116.68,,68.76,,,,NaN,,,,0 / 0,2069,2014-12-14 04:47:31:756
-6.188,-6.8745,4.364,2.4239,-9.4976,-0.3026,-8.6119,2.6231,4.6665,3.0226,-1.923,1.0727,684.0,-56.0,15.0,-30.5,240.68,67.64,-116.68,,68.76,,,,NaN,,,,0 / 0,2121,2014-12-14 04:47:31:808
-2.7066,-7.2471,1.1474,1.7921,-9.6321,0.4252,-4.4987,2.385,0.7222,3.7336,-3.4526,1.8057,684.0,-54.7,15.9,-30.1,196.31,79.17,-76.65,,68.76,,,,NaN,,,,0 / 0,2170,2014-12-14 04:47:31:857
1.3925,-19.9761,-7.4432,-0.139,-9.4982,2.4363,1.7669,-7.3698,-4.8714,4.0928,-1.113,2.0501,684.0,-46.0,25.0,-33.5,115.84,75.59,3.27,,68.76,,,,NaN,,,,0 / 0,2219,2014-12-14 04:47:31:906
-1.6867,-8.7966,-3.8442,-0.0322,-9.3666,2.9044,-1.6546,0.5701,-6.7486,2.1356,-3.7165,0.8259,684.0,-44.7,25.5,-33.0,115.84,75.59,3.27,,68.76,,,,NaN,,,,0 / 0,2270,2014-12-14 04:47:31:957
-1.6867,-8.7966,-3.8442,-0.0322,-9.3666,2.9044,-1.6546,0.5701,-6.7486,2.1356,-3.7165,0.8259,684.0,-44.7,25.5,-33.0,115.84,75.59,3.27,,72.829,,,,NaN,,,,0 / 0,2319,2014-12-14 04:47:32:006
6.0899,-0.5688,-0.8238,2.1918,-9.5094,0.9686,5.4295,12.9771,-6.2354,-1.4331,-1.0287,-0.5082,1974.0,-44.7,26.3,-27.6,139.68,78.04,-22.21,,72.829,,,,NaN,,,,0 / 0,2369,2014-12-14 04:47:32:056
5.0014,-2.1869,0.1079,2.477,-9.4491,0.8651,2.5244,7.2623,-0.7572,-0.2517,0.281,-0.022,1974.0,-44.7,26.3,-25.2,191.81,74.48,-70.75,,72.829,,,,NaN,,,,0 / 0,2420,2014-12-14 04:47:32:107
4.9033,-0.2059,-9.5909,3.1154,-9.2739,0.6775,1.7879,9.068,-10.2684,-1.6261,5.7592,0.6194,1974.0,-44.3,28.1,-27.6,194.99,72.0,-71.28,,72.829,,,,NaN,,,,0 / 0,2469,2014-12-14 04:47:32:156
3.3637,-6.9921,-13.6999,3.1154,-9.2739,0.6775,1.7879,9.068,-10.2684,-1.6261,5.7592,0.6194,2290.0,-44.3,28.1,-27.6,194.99,72.0,-71.28,,72.829,,,,NaN,,,,0 / 0,2519,2014-12-14 04:47:32:206
3.854,1.216,-7.8453,3.6316,-8.9177,-1.8593,0.2224,10.1337,-5.986,-2.832,2.959,-1.8827,2290.0,-44.3,28.1,-33.0,252.03,68.92,-112.89,,72.829,,,,NaN,,,,0 / 0,2570,2014-12-14 04:47:32:257
-2.6478,-19.2505,10.1205,4.2723,-6.8749,-5.5366,-8.011,-10.353,11.5901,-2.6292,3.1032,-2.0782,2290.0,-52.1,20.7,-19.8,276.02,42.33,-143.72,,72.829,,,,NaN,,,,0 / 0,2654,2014-12-14 04:47:32:341
-2.6478,-19.2505,10.1205,4.2723,-6.8749,-5.5366,-8.011,-10.353,11.5901,-2.6292,3.1032,-2.0782,2290.0,-52.1,20.7,-19.8,276.02,42.33,-143.72,,72.829,,,,NaN,,,,0 / 0,2669,2014-12-14 04:47:32:356
-2.6478,-19.2505,10.1205,4.2723,-6.8749,-5.5366,-8.011,-10.353,11.5901,-2.6292,3.1032,-2.0782,2290.0,-52.1,20.7,-19.8,276.02,42.33,-143.72,,72.829,,,,NaN,,,,0 / 0,2719,2014-12-14 04:47:32:406
-6.6195,-4.2267,3.1087,4.2921,-7.1732,-5.1276,-8.0775,-12.4499,14.6009,-0.1857,0.1698,-0.7025,730.0,-53.4,19.8,-19.8,269.97,47.01,-140.07,,72.829,,,,NaN,,,,0 / 0,2769,2014-12-14 04:47:32:456
-6.6195,-4.2267,3.1087,4.2921,-7.1732,-5.1276,-8.0775,-12.4499,14.6009,-0.1857,0.1698,-0.7025,730.0,-53.4,19.8,-19.8,269.97,47.01,-140.07,,72.829,,,,NaN,,,,0 / 0,2819,2014-12-14 04:47:32:506
-1.5691,-17.142,-3.4519,2.3722,-9.325,-1.8939,-3.9412,-7.817,-1.5581,3.769,-2.419,1.3158,730.0,-50.4,25.0,-25.2,253.96,71.97,-128.6,,72.357,,,,NaN,,,,0 / 0,2869,2014-12-14 04:47:32:556
4.766,-19.8192,-4.717,1.4747,-9.675,-0.6242,3.2914,-10.1442,-4.0928,3.9425,-1.5931,1.9022,730.0,-48.2,28.1,-30.5,239.31,80.6,-112.94,,72.357,,,,NaN,,,,0 / 0,2920,2014-12-14 04:47:32:607
-1.5102,-19.986,-7.1785,0.7632,-9.7696,0.379,-2.2735,-10.2164,-7.5574,3.9266,-0.54,2.7037,730.0,-44.7,30.3,-37.4,239.31,80.6,-112.94,,72.357,,,,NaN,,,,0 / 0,2969,2014-12-14 04:47:32:656
-1.5102,-19.986,-7.1785,0.7632,-9.7696,0.379,-2.2735,-10.2164,-7.5574,3.9266,-0.54,2.7037,730.0,-44.7,30.3,-37.4,239.31,80.6,-112.94,,72.357,,,,NaN,,,,0 / 0,3028,2014-12-14 04:47:32:715
2.0496,1.0689,-4.8543,-0.0078,-9.7363,1.1729,2.0574,10.8052,-6.0272,0.843,-3.3158,0.4093,730.0,-43.4,30.3,-41.3,130.4,83.13,0.38,,72.357,,,,NaN,,,,0 / 0,3069,2014-12-14 04:47:32:756
5.5604,5.4231,-5.6781,0.7582,-9.7771,0.068,4.8022,15.2001,-5.7461,0.2822,2.3372,0.7245,2004.0,-45.2,29.8,-36.9,130.4,83.13,0.38,,72.357,,,,NaN,,,,0 / 0,3120,2014-12-14 04:47:32:807
6.1095,-1.3141,3.0891,2.7962,-9.3704,-0.7393,3.3133,8.0563,3.8284,0.1368,2.5656,0.7245,2004.0,-45.2,28.1,-39.3,246.9,73.34,-109.06,,72.357,,,,NaN,,,,0 / 0,3170,2014-12-14 04:47:32:857
-9.6007,-17.5637,-13.8176,4.0005,-8.8632,-1.2692,-13.6012,-8.7006,-12.5484,0.7367,3.3805,-0.9676,2004.0,-42.6,28.5,-43.7,239.87,69.81,-96.33,,72.357,,,,NaN,,,,0 / 0,3219,2014-12-14 04:47:32:906
7.7276,7.404,-11.9151,3.3442,-9.0537,-1.7368,4.3834,16.4577,-10.1783,-0.6781,5.0738,-0.6414,2004.0,-41.7,26.8,-48.6,267.1,67.4,-117.44,,72.357,,,,NaN,,,,0 / 0,3269,2014-12-14 04:47:32:956
8.012,6.0409,-9.6988,3.3442,-9.0537,-1.7368,4.3834,16.4577,-10.1783,-2.4911,1.8326,-1.9975,2004.0,-41.7,26.8,-48.6,267.1,67.4,-117.44,,72.357,,,,NaN,,,,0 / 0,3320,2014-12-14 04:47:33:007
6.2272,5.2466,-9.5713,4.214,-8.3901,-2.8317,3.7981,14.431,-6.8671,-3.3292,-0.1564,-2.8686,2004.0,-41.7,26.3,-49.1,276.25,58.82,-123.9,,72.357,,,,NaN,,,,0 / 0,3369,2014-12-14 04:47:33:056
-3.3343,-17.956,7.9336,4.9116,-4.8529,-6.9639,-8.2459,-13.1031,14.8975,-3.0213,3.0604,-1.7568,2004.0,-49.5,22.9,-36.9,276.25,58.82,-123.9,,72.257,,,,NaN,,,,0 / 0,3419,2014-12-14 04:47:33:106
-1.5887,-4.2757,4.5111,5.4964,-6.648,-4.6652,-7.0851,2.3723,9.1763,-0.4154,1.8277,-0.8503,782.0,-50.0,20.7,-38.3,282.41,38.81,-137.43,,72.257,,,,NaN,,,,0 / 0,3470,2014-12-14 04:47:33:157
-6.5116,-3.1185,4.3542,5.8635,-6.8253,-3.8994,-12.3751,3.7068,8.2536,0.5669,1.3683,-1.0336,782.0,-50.4,18.1,-42.7,270.47,44.11,-123.63,,72.257,,,,NaN,,,,0 / 0,3520,2014-12-14 04:47:33:207
-5.2662,-6.3645,5.2858,4.6587,-8.1255,-2.9059,-9.9248,1.7609,8.1917,2.259,-1.0861,0.6597,782.0,-50.8,15.5,-47.6,265.07,55.95,-121.95,,72.257,,,,NaN,,,,0 / 0,3569,2014-12-14 04:47:33:256
-1.2945,-7.0216,2.0104,3.0553,-9.2772,-0.8771,-5.8207,-7.9237,-3.0553,3.6627,-2.3897,1.6102,782.0,-51.7,10.7,-50.1,265.07,55.95,-121.95,,72.257,,,,NaN,,,,0 / 0,3619,2014-12-14 04:47:33:306
-2.5301,-19.986,-7.61,0.7957,-9.7732,0.1472,-0.1191,-10.2029,-10.5325,3.0507,-1.9792,2.3042,782.0,-54.3,9.0,-49.1,223.14,84.03,-89.2,,72.257,,,,NaN,,,,0 / 0,3670,2014-12-14 04:47:33:357
2.8341,-1.3729,-5.07,-0.4587,-9.7592,0.8474,3.2928,8.3863,-5.9174,0.6854,-3.0165,0.9664,782.0,-55.6,11.6,-43.2,98.1,84.36,28.43,,72.257,,,,NaN,,,,0 / 0,3720,2014-12-14 04:47:33:407
6.2763,2.6674,-2.3242,0.9612,-9.7419,-0.5853,5.9503,11.3557,-4.0332,-0.8283,-1.0287,-0.2224,1766.0,-56.0,12.9,-38.3,98.1,84.36,28.43,,72.257,,,,NaN,,,,0 / 0,3769,2014-12-14 04:47:33:456
3.2852,0.4707,1.0983,1.9734,-9.5521,-1.0163,1.3119,10.0229,2.1146,-0.0953,-1.0776,-0.6939,1766.0,-57.3,11.1,-34.9,241.35,76.92,-117.25,,72.257,,,,NaN,,,,0 / 0,3820,2014-12-14 04:47:33:507
2.9322,-2.589,4.3345,2.2582,-9.5032,-0.8715,0.674,6.9143,5.206,0.4459,0.6817,1.0324,1766.0,-56.5,12.4,-34.0,241.35,76.92,-117.25,,70.776,,,,NaN,,,,0 / 0,3869,2014-12-14 04:47:33:556
2.128,1.8633,-5.7369,2.3868,-9.5116,-0.0585,-0.2588,11.3748,-5.6784,-0.6255,2.2956,0.7538,2529.0,-54.3,14.6,-36.9,218.7,75.91,-91.4,,70.776,,,,NaN,,,,0 / 0,3919,2014-12-14 04:47:33:606
9.2084,1.4024,-16.4261,1.9532,-9.5784,0.7812,7.2553,10.9807,-17.2073,2.3445,4.0757,-1.1765,2529.0,-52.6,15.0,-43.2,198.52,77.61,-68.2,,70.776,,,,NaN,,,,0 / 0,3969,2014-12-14 04:47:33:656
14.6119,9.7478,-6.2468,1.8768,-9.6184,0.3652,12.7351,19.3663,-6.612,0.215,3.4318,-0.2578,2529.0,-52.1,15.0,-43.7,198.52,77.61,-68.2,,70.776,,,,NaN,,,,0 / 0,4019,2014-12-14 04:47:33:706
-7.3844,-0.4413,-8.0905,4.6663,-7.9597,-3.3225,-12.0507,7.5184,-4.768,-5.5772,1.6982,-0.4728,2529.0,-52.6,15.0,-39.3,262.78,54.26,-125.45,,70.776,,,,NaN,,,,0 / 0,4070,2014-12-14 04:47:33:757
-12.6898,-15.112,-6.7764,4.5453,-7.3334,-4.6618,-17.2351,-7.7787,-2.1146,-2.97,1.047,-1.6701,2529.0,-53.0,15.0,-36.9,271.89,48.4,-135.72,,70.776,,,,NaN,,,,0 / 0,4152,2014-12-14 04:47:33:839
-8.0709,-18.2306,1.6671,3.8204,-7.3894,-5.1934,-11.8913,-10.8412,6.8605,-1.4123,-0.2211,-2.0061,2529.0,-53.9,13.7,-35.4,271.89,48.4,-135.72,,70.776,,,,NaN,,,,0 / 0,4169,2014-12-14 04:47:33:856
4.5797,-14.6119,11.1698,3.533,-7.8467,-4.7029,1.0467,-6.7652,15.8727,-0.8393,0.8943,0.1698,2529.0,-54.7,13.3,-34.9,275.63,48.9,-143.66,,70.776,,,,NaN,,,,0 / 0,4219,2014-12-14 04:47:33:906
-3.6481,-1.6083,-0.1667,4.2484,-8.5277,-2.3236,-7.8964,6.9195,2.1569,0.3922,2.2309,-0.6329,1444.0,-53.9,13.7,-36.4,251.48,60.41,-118.68,,70.776,,,,NaN,,,,0 / 0,4269,2014-12-14 04:47:33:956
-4.6484,-4.2365,6.7274,4.1232,-8.7352,-1.6926,-8.7716,4.4988,8.42,1.1057,1.1619,-0.2712,1444.0,-53.0,13.3,-41.3,251.48,60.41,-118.68,,70.776,,,,NaN,,,,0 / 0,4319,2014-12-14 04:47:34:006
-0.1667,-7.9532,2.7949,3.3432,-9.2161,0.2373,-3.5099,1.263,2.5576,2.5717,-0.8002,-0.0904,1061.0,-51.7,12.4,-44.7,220.86,70.02,-85.94,,70.776,,,,NaN,,,,0 / 0,4370,2014-12-14 04:47:34:057
2.9518,-17.5931,0.4707,1.2213,-9.5718,1.749,-3.041,-9.9687,-5.2623,3.6408,-0.3763,3.24,1061.0,-50.8,14.2,-45.7,220.86,70.02,-85.94,,72.266,,,,NaN,,,,0 / 0,4420,2014-12-14 04:47:34:107
3.5304,-16.9949,-3.3441,0.1209,-9.5468,2.2394,-0.2518,-0.7258,-3.7251,1.6591,-1.5259,2.0928,1061.0,-43.9,20.3,-49.6,169.04,77.44,-34.93,,72.266,,,,NaN,,,,0 / 0,4469,2014-12-14 04:47:34:156
-1.4024,-6.6685,-1.4318,-0.2945,-9.5171,2.3468,-1.1078,2.8486,-3.7786,1.047,-1.73,1.4722,1061.0,-43.9,21.1,-48.6,126.49,76.04,7.15,,72.266,,,,NaN,,,,0 / 0,4519,2014-12-14 04:47:34:206
1.3729,-3.246,-3.1381,-0.4643,-9.5393,2.2264,1.8372,6.2933,-5.3645,0.1662,-2.4728,0.7575,1336.0,-44.3,21.6,-47.6,126.49,76.04,7.15,,72.266,,,,NaN,,,,0 / 0,4570,2014-12-14 04:47:34:257
4.06,-1.4906,2.1477,1.1897,-9.6592,1.2059,2.8703,8.1686,0.9417,-1.2058,-2.1881,-0.4533,1336.0,-46.9,22.9,-39.8,174.58,80.05,-44.61,,72.266,,,,NaN,,,,0 / 0,4620,2014-12-14 04:47:34:307
2.7851,-10.7775,8.3651,1.9894,-9.5808,0.6495,0.7957,-1.1968,7.7156,-0.5767,0.0342,0.3115,2349.0,-46.5,23.7,-34.0,200.64,77.68,-71.92,,72.266,,,,NaN,,,,0 / 0,4669,2014-12-14 04:47:34:356
-1.8633,-18.2698,-10.8069,1.7549,-9.5406,1.4376,-3.6181,-8.7291,-12.2446,-0.3067,0.4325,-0.1735,2349.0,-45.6,24.6,-32.0,200.64,77.68,-71.92,,72.266,,,,NaN,,,,0 / 0,4719,2014-12-14 04:47:34:406
-2.7361,-12.3858,1.5004,1.7293,-9.6499,0.2442,-4.4654,-2.7359,1.2562,0.0147,-0.4276,0.0354,2349.0,-46.0,25.0,-33.0,204.98,80.51,-78.06,,72.266,,,,NaN,,,,0 / 0,4769,2014-12-14 04:47:34:456
-4.5503,-8.4043,0.7453,1.5163,-9.6882,0.1048,-6.0666,1.2839,0.6405,-0.6524,-0.5718,0.1075,2349.0,-45.2,25.5,-32.5,214.14,81.08,-86.05,,72.266,,,,NaN,,,,0 / 0,4819,2014-12-14 04:47:34:506
-4.8151,-11.4346,2.5791,0.5151,-9.7813,-0.4815,-5.3302,-1.6533,3.0607,-0.8222,-0.3836,0.1283,2349.0,-46.0,25.9,-28.6,257.25,85.88,-133.07,,71.519,,,,NaN,,,,0 / 0,4869,2014-12-14 04:47:34:556
0.5884,-9.0123,2.03,0.0256,-9.7972,-0.4289,0.5628,0.7849,2.4589,-0.5143,-1.4868,0.1637,2349.0,-44.7,26.3,-26.6,298.62,87.49,-176.58,,71.519,,,,NaN,,,,0 / 0,4919,2014-12-14 04:47:34:606
1.2945,-10.297,1.6867,0.185,-9.7965,-0.4057,1.1095,-0.5005,2.0925,-0.2358,-0.7343,0.0171,2349.0,-44.7,25.9,-24.7,275.85,87.39,-155.49,,71.519,,,,NaN,,,,0 / 0,4969,2014-12-14 04:47:34:656
-0.1079,-9.3555,2.7949,0.0565,-9.8036,0.2371,-0.1643,0.4481,2.5578,-0.1087,-0.5583,0.0012,3542.0,-43.9,26.3,-21.3,128.3,88.58,-13.39,,71.519,,,,NaN,,,,0 / 0,5178,2014-12-14 04:47:34:865
-0.1079,-9.3555,2.7949,0.0565,-9.8036,0.2371,-0.1643,0.4481,2.5578,-0.1087,-0.5583,0.0012,3542.0,-43.9,26.3,-21.3,128.3,88.58,-13.39,,71.519,,,,NaN,,,,0 / 0,5180,2014-12-14 04:47:34:867
-0.1079,-9.3555,2.7949,0.0565,-9.8036,0.2371,-0.1643,0.4481,2.5578,-0.1087,-0.5583,0.0012,3542.0,-43.9,26.3,-21.3,128.3,88.58,-13.39,,71.519,,,,NaN,,,,0 / 0,5183,2014-12-14 04:47:34:870
-0.1079,-9.3555,2.7949,0.0565,-9.8036,0.2371,-0.1643,0.4481,2.5578,-0.1087,-0.5583,0.0012,3542.0,-43.9,26.3,-21.3,128.3,88.58,-13.39,,71.519,,,,NaN,,,,0 / 0,5185,2014-12-14 04:47:34:872
-0.1079,-9.3555,2.7949,0.0565,-9.8036,0.2371,-0.1643,0.4481,2.5578,-0.1087,-0.5583,0.0012,3542.0,-43.9,26.3,-21.3,128.3,88.58,-13.39,,71.519,,,,NaN,,,,0 / 0,5220,2014-12-14 04:47:34:907
-0.0981,-9.3359,2.334,0.1233,-9.7864,0.6175,-0.2214,0.4505,1.7165,-0.1735,-0.3457,-0.0195,3542.0,-43.4,25.9,-21.3,126.13,87.91,-11.04,,71.519,,,,NaN,,,,0 / 0,5269,2014-12-14 04:47:34:956
-0.1079,-9.8655,2.4615,0.1216,-9.7708,0.8285,-0.2295,-0.0947,1.633,-0.16,-0.1906,0.0489,3542.0,-43.0,26.3,-19.8,120.9,85.1,-8.35,,71.519,,,,NaN,,,,0 / 0,5319,2014-12-14 04:47:35:006
-0.0196,-9.9439,2.3536,0.2619,-9.7483,1.0357,-0.2815,-0.1957,1.3179,-0.0782,-0.0831,-0.0403,4013.0,-43.0,25.9,-19.3,125.03,83.75,-14.19,,52.815,,,,NaN,,,,0 / 0,5369,2014-12-14 04:47:35:056
-0.3727,-9.9047,1.9515,0.2778,-9.7417,1.092,-0.6505,-0.163,0.8596,-0.1026,-0.1442,0.0134,4013.0,-43.0,25.9,-19.3,125.03,83.75,-14.19,,52.815,,,,NaN,,,,0 / 0,5419,2014-12-14 04:47:35:106
-0.4805,-9.8165,1.9908,0.2645,-9.7406,1.1051,-0.745,-0.0759,0.8857,-0.1002,-0.193,0.0244,4013.0,-43.0,26.3,-18.3,122.87,83.35,-13.46,,52.815,,,,NaN,,,,0 / 0,5469,2014-12-14 04:47:35:156
0.0098,-9.5125,2.0986,0.2323,-9.7418,1.1016,-0.2224,0.2294,0.8205,-0.0696,-0.0806,-0.0012,4013.0,-42.6,26.3,-17.4,122.87,83.35,-13.46,,52.815,,,,NaN,,,,0 / 0,5520,2014-12-14 04:47:35:207
0.0392,-9.9341,2.5497,0.2546,-9.738,1.1304,-0.2154,-0.1962,1.4193,-0.0342,-0.2126,-0.0061,4013.0,-43.0,25.9,-17.4,120.44,83.35,-12.27,,52.815,,,,NaN,,,,0 / 0,5569,2014-12-14 04:47:35:256
-0.0098,-9.7968,2.4419,0.2632,-9.7346,1.1573,-0.273,-0.0623,1.2845,-0.0134,-0.2175,0.0098,4013.0,-43.0,25.9,-17.4,120.83,83.05,-12.81,,52.815,,,,NaN,,,,0 / 0,5620,2014-12-14 04:47:35:307