ACCELEROMETER X (m/s²),ACCELEROMETER Y (m/s²),ACCELEROMETER Z (m/s²),GRAVITY X (m/s²),GRAVITY Y (m/s²),GRAVITY Z (m/s²),LINEAR ACCELERATION X (m/s²),LINEAR ACCELERATION Y (m/s²),LINEAR ACCELERATION Z (m/s²),GYROSCOPE X (rad/s),GYROSCOPE Y (rad/s),GYROSCOPE Z (rad/s),LIGHT (lux),MAGNETIC FIELD X (μT),MAGNETIC FIELD Y (μT),MAGNETIC FIELD Z (μT),ORIENTATION X (°),ORIENTATION Y (°),ORIENTATION Z (°),PROXIMITY (i),SOUND LEVEL (dB),LOCATION Latitude : ,LOCATION Longitude : ,LOCATION Altitude ( m),LOCATION Altitude-google ( m),LOCATION Speed ( Kmh),LOCATION Accuracy ( m),LOCATION ORIENTATION (°),Satellites in range,Time since start in ms ,YYYY-MO-DD HH-MI-SS_SSS
0.4805,-9.7576,2.03,0.6516,-9.6122,1.8307,-0.1711,-0.1454,0.1992,0.0183,0.0208,-0.0171,1097.0,33.2,7.0,-21.0,259.37,78.57,-19.59,,49.408,,,,NaN,,,,0 / 0,11,2014-12-14 04:50:38:897
0.4315,-9.7282,2.0986,0.6636,-9.6158,1.8073,-0.2321,-0.1124,0.2914,0.0208,0.0391,-0.011,1097.0,33.2,6.6,-22.0,258.68,78.68,-20.16,,49.408,,,,NaN,,,,0 / 0,60,2014-12-14 04:50:38:946
0.3825,-9.738,2.079,0.6654,-9.6161,1.8051,-0.2829,-0.1219,0.2739,0.0305,0.044,-0.0098,1097.0,32.7,6.6,-21.5,259.98,78.69,-20.23,,49.408,,,,NaN,,,,0 / 0,110,2014-12-14 04:50:38:996
0.4315,-9.6203,2.0692,0.6632,-9.6162,1.8052,-0.2317,-0.0041,0.264,0.0232,0.0257,-0.0061,1097.0,32.7,7.0,-21.5,259.92,78.69,-20.17,,49.408,,,,NaN,,,,0 / 0,160,2014-12-14 04:50:39:046
0.3628,-9.7184,2.1084,0.6511,-9.6196,1.7917,-0.2981,-0.0596,0.3461,0.0183,0.0257,0.0,1097.0,33.2,7.0,-21.5,259.7,78.79,-19.97,,49.408,,,,NaN,,,,0 / 0,210,2014-12-14 04:50:39:096
0.4511,-9.7086,2.1869,0.6489,-9.6197,1.7917,-0.2468,-0.0202,0.3364,0.0257,-0.0183,-0.0024,1097.0,33.2,7.0,-21.5,259.63,78.8,-19.91,,42.177,,,,NaN,,,,0 / 0,261,2014-12-14 04:50:39:147
0.4021,-9.7282,1.9221,0.6443,-9.6202,1.7909,-0.1736,-0.2061,0.3273,0.0428,-0.0122,-0.0061,1097.0,32.7,7.0,-20.5,259.63,78.8,-19.91,,42.177,,,,NaN,,,,0 / 0,310,2014-12-14 04:50:39:196
0.5394,-9.7674,2.2163,0.6519,-9.6179,1.8003,-0.1224,-0.1201,0.3473,0.0611,-0.0171,-0.0012,1097.0,33.2,6.6,-21.0,259.51,78.81,-19.79,,42.177,,,,NaN,,,,0 / 0,361,2014-12-14 04:50:39:247
0.7845,-9.7968,3.0989,0.7298,-9.5768,1.9805,0.0547,-0.22,1.1184,0.2431,-0.0379,-0.0379,1097.0,32.7,6.6,-21.0,260.21,77.57,-20.23,,42.177,,,,NaN,,,,0 / 0,410,2014-12-14 04:50:39:296
1.2749,-8.875,3.9423,0.8343,-9.4893,2.3295,0.4405,0.6143,1.6128,0.1906,-0.0489,0.0831,1097.0,33.2,6.1,-21.5,259.82,75.39,-19.71,,42.177,,,,NaN,,,,0 / 0,460,2014-12-14 04:50:39:346
1.4024,-8.9927,2.9126,0.9045,-9.4434,2.4848,0.4978,0.4507,0.4278,-0.0611,-0.0806,0.0452,1097.0,33.6,6.1,-22.0,259.82,74.36,-20.0,,42.177,,,,NaN,,,,0 / 0,510,2014-12-14 04:50:39:396
1.0591,-9.5419,2.4419,0.9045,-9.4434,2.4848,0.4978,0.4507,0.4278,-0.0611,-0.0806,0.0452,1097.0,33.6,6.1,-22.0,259.82,74.36,-20.0,,42.177,,,,NaN,,,,0 / 0,560,2014-12-14 04:50:39:446
0.255,-9.2869,1.4122,1.0132,-9.4937,2.2389,-0.7582,0.2068,-0.8267,-0.5034,0.1271,0.0782,1097.0,33.6,6.6,-20.5,265.53,74.66,-23.05,,42.177,,,,NaN,,,,0 / 0,611,2014-12-14 04:50:39:497
0.049,-9.1888,0.7551,0.9528,-9.5391,2.0659,-0.9037,0.3503,-1.3108,-0.6329,0.4044,0.0672,1097.0,33.6,7.0,-20.5,266.8,76.59,-24.76,,40.311,,,,NaN,,,,0 / 0,660,2014-12-14 04:50:39:546
-0.7747,-10.3166,0.1765,0.769,-9.6732,1.4169,-1.5437,-0.6434,-1.2403,-0.8369,0.5803,-0.0342,1097.0,34.0,7.4,-18.5,272.3,80.54,-28.49,,40.311,,,,NaN,,,,0 / 0,710,2014-12-14 04:50:39:596
-1.0395,-10.4245,0.0686,0.7256,-9.6961,1.2769,-1.7651,-0.7284,-1.2082,-0.8357,0.5498,-0.0599,1097.0,34.0,7.9,-17.1,272.3,80.54,-28.49,,40.311,,,,NaN,,,,0 / 0,760,2014-12-14 04:50:39:646
-0.863,-9.9636,-0.2354,0.2731,-9.7969,0.3412,-1.1243,-0.1345,-0.4977,-0.4618,0.4093,-0.4704,1097.0,34.9,8.7,-16.1,280.49,86.65,-34.31,,40.311,,,,NaN,,,,0 / 0,810,2014-12-14 04:50:39:696
0.2059,-10.0714,-0.6178,0.3272,-9.8009,-0.074,-0.1213,-0.2705,-0.5438,-0.5412,0.7355,-0.4704,1097.0,34.5,9.6,-12.7,280.49,86.65,-34.31,,40.311,,,,NaN,,,,0 / 0,861,2014-12-14 04:50:39:747
0.5982,-10.4735,-0.0686,0.4579,-9.7912,-0.3049,0.2253,-0.722,1.2703,-0.2627,0.4728,-0.3457,1097.0,33.6,10.9,-10.2,10.51,87.2,-120.1,,40.311,,,,NaN,,,,0 / 0,910,2014-12-14 04:50:39:796
0.5786,-10.8952,1.4122,0.7344,-9.7743,-0.3056,0.2253,-0.722,1.2703,0.4166,0.6194,-0.2272,1097.0,33.6,10.9,-10.2,10.51,87.2,-120.1,,40.311,,,,NaN,,,,0 / 0,960,2014-12-14 04:50:39:846
0.9316,-10.6696,1.9123,0.8341,-9.7637,0.3806,-0.0072,-0.5517,2.0262,0.4166,0.6194,-0.2272,1097.0,34.0,11.8,-9.8,353.61,85.31,-99.85,,40.311,,,,NaN,,,,0 / 0,1010,2014-12-14 04:50:39:896
-0.1765,-10.4049,3.3048,0.8483,-9.7142,1.0413,-1.0249,-0.6906,2.2636,1.19,0.0232,0.1491,1097.0,34.0,11.3,-9.8,294.8,82.13,-39.17,,40.311,,,,NaN,,,,0 / 0,1060,2014-12-14 04:50:39:946
0.8041,-8.9535,3.9717,0.6278,-9.5669,2.0617,0.1764,0.6134,1.91,1.0446,0.1491,-0.0415,1435.0,34.0,10.0,-12.2,294.8,82.13,-39.17,,40.311,,,,NaN,,,,0 / 0,1110,2014-12-14 04:50:39:996
3.0303,-8.1395,2.8439,0.736,-9.4659,2.4548,2.2943,1.3263,0.3891,0.9297,0.2712,-0.1393,1435.0,34.0,10.5,-12.2,270.98,76.46,-16.23,,61.115,,,,NaN,,,,0 / 0,1160,2014-12-14 04:50:40:046
2.9224,-8.6495,3.501,0.9666,-9.413,2.5751,1.9557,0.7635,0.9259,0.496,-0.6915,-0.3005,1435.0,33.6,10.9,-13.7,273.07,73.71,-20.58,,61.115,,,,NaN,,,,0 / 0,1210,2014-12-14 04:50:40:096
2.7655,-8.1297,4.9622,1.6059,-9.1872,3.0309,1.1596,1.0575,1.9313,0.5327,-0.8125,-0.2786,1435.0,33.6,10.5,-15.1,273.07,73.71,-20.58,,61.115,,,,NaN,,,,0 / 0,1260,2014-12-14 04:50:40:146
1.8535,-7.914,5.4035,1.6635,-9.1523,3.1046,0.7097,1.2972,1.6026,0.8601,-0.2651,-0.0831,1435.0,33.6,10.9,-16.6,277.43,68.95,-28.18,,61.115,,,,NaN,,,,0 / 0,1311,2014-12-14 04:50:40:197
1.6769,-7.4727,5.3348,1.9351,-8.7669,3.9456,-0.2582,1.2942,1.3892,1.0922,-0.2517,-0.1258,1435.0,34.5,10.9,-19.0,274.97,63.38,-26.13,,61.115,,,,NaN,,,,0 / 0,1360,2014-12-14 04:50:40:246
1.2847,-8.4533,6.5214,1.9705,-8.3531,4.7447,-0.6859,-0.1002,1.7767,0.9908,-0.5449,-0.0953,1435.0,34.5,10.0,-20.0,271.35,58.41,-22.55,,61.115,,,,NaN,,,,0 / 0,1410,2014-12-14 04:50:40:296
2.4713,-6.4724,7.708,2.0977,-8.1087,5.1009,0.3736,1.6363,2.6071,0.5412,-1.0067,-0.0562,1435.0,34.5,9.2,-22.9,271.35,58.41,-22.55,,61.115,,,,NaN,,,,0 / 0,1460,2014-12-14 04:50:40:346
4.1384,-1.6083,6.139,2.4415,-7.8327,5.3719,1.6969,6.2244,0.767,-0.2651,-1.0592,0.0037,1435.0,34.9,9.6,-25.4,269.19,53.01,-24.44,,61.115,,,,NaN,,,,0 / 0,1511,2014-12-14 04:50:40:397
4.9524,-0.5688,5.7565,2.5788,-7.7592,5.4143,2.3735,7.1904,0.3422,-0.7025,-0.8503,-0.0855,1435.0,34.5,9.6,-25.4,269.19,53.01,-24.44,,61.115,,,,NaN,,,,0 / 0,1561,2014-12-14 04:50:40:447
5.8055,-3.5402,0.4413,3.5087,-7.5724,5.1496,2.0811,1.8257,-6.0322,-2.3042,2.3543,0.4899,1435.0,36.6,11.3,-23.4,279.47,50.35,-32.29,,61.115,,,,NaN,,,,0 / 0,1611,2014-12-14 04:50:40:497
5.8055,-3.5402,0.4413,3.5087,-7.5724,5.1496,2.0811,1.8257,-6.0322,-2.3042,2.3543,0.4899,1435.0,36.6,11.3,-23.4,279.47,50.35,-32.29,,58.415,,,,NaN,,,,0 / 0,1660,2014-12-14 04:50:40:546
2.8243,-10.6696,-7.3942,3.2647,-8.6566,3.2519,-0.4404,-2.013,-10.6461,-3.791,5.4709,0.336,1270.0,41.9,11.8,-5.9,309.73,61.97,-45.11,,58.415,,,,NaN,,,,0 / 0,1710,2014-12-14 04:50:40:596
-4.5601,-19.3093,-1.9123,1.9098,-9.5601,-1.0622,-6.4699,-9.7492,-0.8501,-2.5717,1.0482,-0.898,1270.0,41.0,10.5,18.0,51.02,77.12,-119.08,,58.415,,,,NaN,,,,0 / 0,1760,2014-12-14 04:50:40:646
-2.7753,-16.9067,-0.6276,1.7648,-9.5528,-1.3417,-4.5401,-7.3539,0.714,-2.4129,0.4056,-1.0336,1270.0,40.6,10.5,19.5,51.02,77.12,-119.08,,58.415,,,,NaN,,,,0 / 0,1810,2014-12-14 04:50:40:696
-7.7473,-19.0543,10.2381,0.8042,-9.1431,-3.4536,-6.002,-3.791,13.5045,-4.1197,3.4526,1.9731,1395.0,38.0,7.4,29.3,97.32,68.68,-153.74,,58.415,,,,NaN,,,,0 / 0,1860,2014-12-14 04:50:40:746
-8.0415,-7.1098,10.3558,0.1344,-9.5074,-2.4003,-8.1759,2.3976,12.7561,0.1869,-1.1619,-0.3714,1395.0,36.2,3.5,33.2,127.51,75.81,-176.79,,58.415,,,,NaN,,,,0 / 0,1910,2014-12-14 04:50:40:796
-8.0415,-7.1098,10.3558,0.1344,-9.5074,-2.4003,-8.1759,2.3976,12.7561,0.1869,-1.1619,-0.3714,1395.0,36.2,3.5,33.2,127.51,75.81,-176.79,,58.415,,,,NaN,,,,0 / 0,1960,2014-12-14 04:50:40:846
0.1373,-10.1205,4.6189,-0.5593,-9.7666,0.687,0.6966,-0.3539,3.9319,2.9334,-1.6579,-0.0635,927.0,34.0,11.3,23.9,267.45,84.82,39.15,,58.415,,,,NaN,,,,0 / 0,2010,2014-12-14 04:50:40:896
1.7456,-19.9467,-8.0415,-0.1595,-9.1749,3.4593,1.9051,-10.7719,-11.5008,4.3139,-2.2883,-0.0367,927.0,32.7,16.6,13.7,296.22,74.92,2.5,,58.415,,,,NaN,,,,0 / 0,2063,2014-12-14 04:50:40:949
0.6865,-19.9761,-7.4727,-0.2716,-9.0992,3.647,0.9581,-10.8769,-11.1197,4.8808,1.3073,1.3696,927.0,31.9,19.2,4.4,284.92,68.1,4.26,,58.415,,,,NaN,,,,0 / 0,2111,2014-12-14 04:50:40:997
-0.4021,-12.6702,-4.8543,-0.7473,-8.7451,4.3745,0.3452,-3.9251,-9.2288,3.5345,-2.2761,0.9395,927.0,31.9,17.0,-8.3,284.92,68.1,4.26,,65.769,,,,NaN,,,,0 / 0,2160,2014-12-14 04:50:41:046
-0.9512,-9.6105,-4.8151,-0.7255,-8.707,4.4533,-0.2257,-0.9035,-9.2684,3.0397,-1.9682,0.7159,927.0,31.9,17.0,-11.7,256.24,62.61,9.25,,65.769,,,,NaN,,,,0 / 0,2210,2014-12-14 04:50:41:096
7.2961,10.6108,-5.7467,0.0631,-9.1115,3.6258,7.233,19.7223,-9.3725,-0.2883,2.3262,0.0232,2753.0,28.4,18.7,-16.6,246.95,65.78,5.47,,65.769,,,,NaN,,,,0 / 0,2260,2014-12-14 04:50:41:146
7.3158,-0.3334,6.6881,1.3061,-9.2694,2.9229,6.451,6.4254,4.7067,0.452,2.3738,0.4056,2753.0,28.8,18.7,-14.6,277.76,70.95,-24.08,,65.769,,,,NaN,,,,0 / 0,2310,2014-12-14 04:50:41:196
-0.1275,-11.8562,10.2185,2.4467,-9.2452,2.1704,-2.5742,-2.6111,8.0481,-3.3158,1.4258,-0.3641,2184.0,30.1,19.6,-6.8,277.76,70.95,-24.08,,65.769,,,,NaN,,,,0 / 0,2360,2014-12-14 04:50:41:246
-0.3138,-5.6584,-5.0504,2.4043,-9.4673,0.8712,-2.7182,3.8089,-5.9216,-2.4545,2.8674,-1.5895,2184.0,28.0,21.3,7.8,326.04,70.52,-48.42,,65.769,,,,NaN,,,,0 / 0,2410,2014-12-14 04:50:41:296
-9.7184,-12.68,-13.0919,3.2731,-8.8958,-2.5145,-12.9915,-3.7842,-10.5774,-6.4104,-1.0006,-1.6628,2184.0,23.6,22.6,16.1,56.46,65.11,-127.53,,65.769,,,,NaN,,,,0 / 0,2460,2014-12-14 04:50:41:346
-9.7184,-12.68,-13.0919,3.2731,-8.8958,-2.5145,-12.9915,-3.7842,-10.5774,-6.4104,-1.0006,-1.6628,2184.0,23.6,22.6,16.1,56.46,65.11,-127.53,,65.769,,,,NaN,,,,0 / 0,2510,2014-12-14 04:50:41:396
-2.2555,-17.0047,12.935,1.9501,-8.8001,-3.8634,-7.1403,-10.528,12.3176,-3.6701,2.4764,-0.1478,1658.0,19.7,21.8,24.4,86.8,58.81,-151.25,,65.769,,,,NaN,,,,0 / 0,2561,2014-12-14 04:50:41:447
-2.8537,-12.1701,13.337,1.9433,-8.9268,-3.5645,-4.797,-3.2432,16.9016,-0.4459,-0.507,-0.3091,1658.0,18.8,19.6,28.8,102.22,65.54,-151.4,,65.769,,,,NaN,,,,0 / 0,2610,2014-12-14 04:50:41:496
-4.8935,-4.6974,3.9521,2.1238,-9.4074,-1.7778,-7.0173,4.71,5.7299,1.4074,0.9591,-0.9163,1658.0,18.4,21.8,25.9,83.76,73.59,-129.93,,65.769,,,,NaN,,,,0 / 0,2683,2014-12-14 04:50:41:569
-7.6198,-4.7268,6.4626,2.0242,-9.519,-1.2087,-9.644,4.7922,7.6713,1.8692,0.722,-0.7098,1658.0,18.0,23.5,24.4,73.52,76.09,-120.84,,73.11,,,,NaN,,,,0 / 0,2711,2014-12-14 04:50:41:597
-7.6198,-4.7268,6.4626,0.5857,-9.771,0.5957,-2.4,3.7301,0.6399,1.8692,0.722,-0.7098,1658.0,20.1,25.7,15.1,73.52,76.09,-120.84,,73.11,,,,NaN,,,,0 / 0,2760,2014-12-14 04:50:41:646
-7.6198,-4.7268,6.4626,0.5857,-9.771,0.5957,-2.4,3.7301,0.6399,1.8692,0.722,-0.7098,1274.0,20.1,25.7,15.1,73.52,76.09,-120.84,,73.11,,,,NaN,,,,0 / 0,2810,2014-12-14 04:50:41:696
3.6285,-19.4564,-3.0008,0.3559,-9.7449,1.0394,3.2726,-9.7115,-4.0402,4.0549,-2.3127,1.1912,1274.0,23.6,25.3,-1.0,292.6,83.57,-18.9,,73.11,,,,NaN,,,,0 / 0,2860,2014-12-14 04:50:41:746
3.6285,-19.4564,-3.0008,0.3559,-9.7449,1.0394,3.2726,-9.7115,-4.0402,4.0549,-2.3127,1.1912,1274.0,23.6,25.3,-1.0,292.6,83.57,-18.9,,73.11,,,,NaN,,,,0 / 0,2910,2014-12-14 04:50:41:796
-1.0493,-5.4231,-4.2071,-0.3686,-9.6016,1.9605,-0.6807,4.1785,-6.1675,1.774,-2.97,0.6976,1274.0,28.4,14.4,-21.0,226.51,78.26,10.65,,73.11,,,,NaN,,,,0 / 0,2960,2014-12-14 04:50:41:846
4.3051,5.2073,-3.903,0.0909,-9.7664,0.8828,4.2142,14.9737,-4.7858,-1.6005,-1.5223,-0.5486,2864.0,25.8,13.5,-23.4,236.24,84.81,-5.88,,73.11,,,,NaN,,,,0 / 0,3010,2014-12-14 04:50:41:896
4.3051,5.2073,-3.903,0.0909,-9.7664,0.8828,4.2142,14.9737,-4.7858,-1.6005,-1.5223,-0.5486,2864.0,25.8,13.5,-23.4,236.24,84.81,-5.88,,73.11,,,,NaN,,,,0 / 0,3061,2014-12-14 04:50:41:947
7.5903,-3.4519,7.5903,1.873,-9.6217,0.2915,5.7173,6.1698,7.2988,1.4074,1.6787,-0.0721,2864.0,24.9,14.0,-22.9,311.46,78.85,-81.15,,73.11,,,,NaN,,,,0 / 0,3110,2014-12-14 04:50:41:996
8.2278,3.6481,-11.2973,2.8749,-9.2834,1.3131,5.3528,12.9314,-12.6104,-1.879,3.4343,0.661,2864.0,28.4,11.3,-15.1,295.68,74.49,-61.31,,73.11,,,,NaN,,,,0 / 0,3160,2014-12-14 04:50:42:046
-0.255,-0.4805,-8.3749,3.9149,-8.3729,-3.277,-4.1699,7.8923,-5.0979,-3.8961,1.2889,-3.0788,2646.0,26.6,14.4,-2.9,350.1,69.51,-85.28,,73.11,,,,NaN,,,,0 / 0,3210,2014-12-14 04:50:42:096
-0.7943,-19.0053,4.1678,3.499,-6.784,-6.1567,-4.2934,-12.2213,10.3245,-2.4801,0.9701,-2.9786,2646.0,20.6,18.7,4.9,350.1,69.51,-85.28,,73.11,,,,NaN,,,,0 / 0,3260,2014-12-14 04:50:42:146
0.3923,-13.4743,7.8061,3.3585,-7.5291,-5.3107,-2.9662,-5.9452,13.1168,-3.4599,0.1881,0.0476,2646.0,19.3,18.7,10.7,58.22,43.77,-150.39,,72.218,,,,NaN,,,,0 / 0,3310,2014-12-14 04:50:42:196
-8.8064,-9.179,9.6399,3.2792,-8.3337,-3.9958,-10.0925,5.7286,9.436,1.5223,-0.7489,-0.3335,1199.0,13.6,17.9,15.6,72.72,58.19,-140.62,,72.218,,,,NaN,,,,0 / 0,3360,2014-12-14 04:50:42:246
-8.8064,-9.179,9.6399,3.2792,-8.3337,-3.9958,-10.0925,5.7286,9.436,1.5223,-0.7489,-0.3335,1199.0,13.6,17.9,15.6,72.72,58.19,-140.62,,72.218,,,,NaN,,,,0 / 0,3410,2014-12-14 04:50:42:296
1.8338,-5.374,4.2169,1.8959,-9.4976,-1.5398,-0.827,3.2508,3.7267,3.1203,-1.4368,0.3665,1199.0,13.2,17.4,12.2,77.98,64.93,-140.64,,72.218,,,,NaN,,,,0 / 0,3460,2014-12-14 04:50:42:346
-4.1188,-17.2695,-5.6584,1.6513,-9.6598,-0.3629,-5.7701,-7.6097,-5.2955,3.6224,-1.6249,1.0116,1199.0,14.9,17.9,9.8,40.1,80.07,-102.4,,72.218,,,,NaN,,,,0 / 0,3510,2014-12-14 04:50:42:396
1.3827,-19.829,-7.7963,1.6513,-9.6598,-0.3629,-5.7701,-7.6097,-5.2955,3.6224,-1.6249,1.0116,1199.0,14.9,17.9,9.8,40.1,80.07,-102.4,,72.218,,,,NaN,,,,0 / 0,3560,2014-12-14 04:50:42:446
2.6184,-19.9761,-9.7772,-0.1995,-9.7542,0.9928,2.8179,-10.2219,-10.77,3.9841,0.0538,2.1295,1199.0,21.9,18.3,0.5,312.73,86.36,-31.32,,72.218,,,,NaN,,,,0 / 0,3610,2014-12-14 04:50:42:496
2.6184,-19.9761,-9.7772,-0.1995,-9.7542,0.9928,2.8179,-10.2219,-10.77,3.9841,0.0538,2.1295,1199.0,21.9,18.3,0.5,312.73,86.36,-31.32,,72.218,,,,NaN,,,,0 / 0,3660,2014-12-14 04:50:42:546
0.5492,-13.5136,-3.9815,-0.5709,-9.704,1.2951,1.1201,-3.8096,-5.2766,2.8955,-2.5485,1.978,3329.0,26.2,16.1,-5.9,237.72,81.7,23.79,,72.218,,,,NaN,,,,0 / 0,3753,2014-12-14 04:50:42:639
1.6671,1.5004,-3.7854,-0.8086,-9.6619,1.471,2.4758,11.1623,-5.2563,0.2883,-1.9462,0.3787,3329.0,28.0,14.4,-13.7,217.75,80.14,28.8,,72.218,,,,NaN,,,,0 / 0,3760,2014-12-14 04:50:42:646
1.6671,1.5004,-3.7854,-0.8086,-9.6619,1.471,2.4758,11.1623,-5.2563,0.2883,-1.9462,0.3787,3329.0,28.0,14.4,-13.7,217.75,80.14,28.8,,72.218,,,,NaN,,,,0 / 0,3810,2014-12-14 04:50:42:696
3.7658,2.7753,-2.6968,0.3062,-9.8018,0.0403,3.4596,12.5771,-2.7371,-1.3121,-1.3512,-0.9297,3329.0,27.5,15.3,-15.1,224.79,87.05,18.05,,72.218,,,,NaN,,,,0 / 0,3860,2014-12-14 04:50:42:746
5.9526,-5.9919,3.7756,0.7136,-9.7728,-0.3908,5.239,3.781,4.1663,-0.4105,-0.5974,0.2358,3329.0,26.6,16.6,-17.1,224.79,87.05,18.05,,72.218,,,,NaN,,,,0 / 0,3910,2014-12-14 04:50:42:796
5.3054,3.8148,-8.6985,3.025,-9.1425,-1.8532,2.2804,12.9573,-6.8453,-1.0397,2.7074,0.6304,1963.0,29.3,14.8,-14.1,316.0,76.61,-68.2,,72.218,,,,NaN,,,,0 / 0,3960,2014-12-14 04:50:42:846
0.2746,-17.9658,8.2572,3.1102,-7.3733,-5.6684,-2.8356,-10.5924,13.9256,-1.3622,0.799,0.6292,2535.0,21.9,18.7,19.0,74.36,48.75,-151.25,,71.235,,,,NaN,,,,0 / 0,4011,2014-12-14 04:50:42:897
-2.5007,-3.9423,5.4231,3.3698,-7.9225,-4.6956,-5.8705,3.9803,10.1187,-0.6524,1.6457,-0.8515,2535.0,20.1,18.7,22.4,74.36,48.75,-151.25,,71.235,,,,NaN,,,,0 / 0,4060,2014-12-14 04:50:42:946
0.4511,-5.629,3.0204,2.1203,-9.3159,-2.2109,-1.6692,3.6869,5.2314,2.7428,-1.9658,0.4239,1329.0,18.8,20.0,14.6,70.66,71.8,-136.2,,71.235,,,,NaN,,,,0 / 0,4110,2014-12-14 04:50:42:996
-4.3934,-15.3376,-3.5892,1.6668,-9.6309,-0.7982,1.5139,-8.7657,-1.7384,2.7428,-1.9658,0.4239,1329.0,18.8,20.0,14.6,70.66,71.8,-136.2,,71.235,,,,NaN,,,,0 / 0,4160,2014-12-14 04:50:43:046
3.295,-19.2701,-5.6879,0.4168,-9.7958,-0.1994,2.8783,-9.4743,-5.4885,3.0348,-2.375,2.7953,1329.0,22.3,17.0,-1.5,22.2,87.3,-115.56,,71.235,,,,NaN,,,,0 / 0,4210,2014-12-14 04:50:43:096
2.3144,-12.2093,-2.4419,-0.0973,-9.8015,0.3012,3.8239,-5.5753,-3.9786,2.4508,-2.2736,2.1625,2394.0,25.3,13.5,-7.8,235.17,88.15,17.91,,71.235,,,,NaN,,,,0 / 0,4260,2014-12-14 04:50:43:146
3.2068,2.8145,-3.2166,-0.1784,-9.8033,0.1851,3.7382,12.961,-2.5877,-0.7831,-0.6732,-0.2443,2394.0,24.5,13.5,-14.6,195.29,88.5,43.94,,71.235,,,,NaN,,,,0 / 0,4310,2014-12-14 04:50:43:196
6.7764,4.2071,-2.1575,0.7927,-9.7567,-0.5907,5.9837,13.9637,-1.5667,-0.7672,-1.5956,-1.5394,2394.0,21.9,16.6,-16.1,195.29,88.5,43.94,,71.235,,,,NaN,,,,0 / 0,4360,2014-12-14 04:50:43:246
3.5794,2.5105,0.1961,1.4845,-9.6493,-0.9261,-0.5317,6.4781,1.959,0.3616,2.1234,0.8454,2394.0,19.3,18.7,-16.1,352.73,79.72,-121.96,,71.235,,,,NaN,,,,0 / 0,4410,2014-12-14 04:50:43:296
6.4037,1.8535,-2.8145,2.0188,-9.5916,0.311,4.3849,11.445,-3.1255,0.1014,2.7184,0.9676,2394.0,21.4,19.2,-13.7,322.47,77.98,-81.24,,72.54,,,,NaN,,,,0 / 0,4461,2014-12-14 04:50:43:347
-6.2272,-16.2202,-11.7582,2.197,-9.5205,0.8394,-8.4242,-6.6997,-12.5975,2.5705,0.6842,-0.9774,2394.0,22.7,20.5,-13.7,314.67,76.12,-69.09,,72.54,,,,NaN,,,,0 / 0,4510,2014-12-14 04:50:43:396
9.3948,2.9028,-12.6408,1.9276,-9.5583,1.0456,7.6169,12.5061,-13.527,-0.7233,3.675,-0.8919,2394.0,21.4,23.5,-13.2,314.67,76.12,-69.09,,72.54,,,,NaN,,,,0 / 0,4560,2014-12-14 04:50:43:446
-9.0515,-11.9445,-8.6691,4.449,-8.1026,-3.2749,-13.5005,-3.8419,-5.3942,-6.4361,-0.9542,-1.025,2394.0,17.1,30.5,-4.9,10.97,55.71,-126.36,,72.54,,,,NaN,,,,0 / 0,4615,2014-12-14 04:50:43:501
3.7854,-16.4163,12.5819,3.4213,-8.5049,-3.4832,0.3641,-7.9115,16.0651,-0.4447,0.3714,-0.4227,2394.0,10.6,36.1,1.9,21.59,60.14,-135.51,,72.54,,,,NaN,,,,0 / 0,4660,2014-12-14 04:50:43:546
3.7854,-16.4163,12.5819,3.4213,-8.5049,-3.4832,0.3641,-7.9115,16.0651,-0.4447,0.3714,-0.4227,2394.0,10.6,36.1,1.9,21.59,60.14,-135.51,,72.54,,,,NaN,,,,0 / 0,4710,2014-12-14 04:50:43:596
-3.501,-0.5099,-0.5688,3.859,-8.974,-0.8637,-8.4485,11.8375,2.9329,0.1038,1.5137,-0.6671,2394.0,6.2,42.2,1.9,8.95,66.05,-104.61,,72.54,,,,NaN,,,,0 / 0,4760,2014-12-14 04:50:43:646
-3.3441,-5.8055,7.2275,3.7077,-9.0666,-0.4685,-7.0518,3.2611,7.696,1.2999,-0.6683,-0.452,2126.0,0.1,46.6,5.4,15.97,67.6,-97.2,,73.832,,,,NaN,,,,0 / 0,4810,2014-12-14 04:50:43:696
0.2157,-10.4441,2.2359,3.3034,-9.2069,0.7012,-3.0876,-1.2372,1.5347,2.2553,-0.5779,-0.0098,2126.0,1.0,47.9,3.9,15.97,67.6,-97.2,,73.832,,,,NaN,,,,0 / 0,4860,2014-12-14 04:50:43:746
1.2651,-16.3575,-2.3634,2.9483,-9.2504,1.3811,-1.6832,-7.107,-3.7445,2.9187,0.7636,0.6304,2126.0,2.3,47.9,1.0,5.08,70.39,-71.03,,73.832,,,,NaN,,,,0 / 0,4910,2014-12-14 04:50:43:796
4.413,-19.7702,-7.7178,0.3578,-9.5649,2.1343,4.0552,-10.2053,-9.8521,2.9187,0.7636,0.6304,2126.0,2.3,47.9,1.0,5.08,70.39,-71.03,,73.832,,,,NaN,,,,0 / 0,4960,2014-12-14 04:50:43:846
0.5296,-0.5786,-2.1967,-0.439,-9.5672,2.1084,1.1352,7.7726,-4.3934,-0.0623,-1.9621,0.8039,6079.0,23.6,33.5,-15.6,238.12,77.31,11.76,,73.832,,,,NaN,,,,0 / 0,5204,2014-12-14 04:50:44:090
0.5296,-0.5786,-2.1967,-0.439,-9.5672,2.1084,1.1352,7.7726,-4.3934,-0.0623,-1.9621,0.8039,6079.0,23.6,33.5,-15.6,238.12,77.31,11.76,,73.832,,,,NaN,,,,0 / 0,5207,2014-12-14 04:50:44:093
0.5296,-0.5786,-2.1967,-0.439,-9.5672,2.1084,1.1352,7.7726,-4.3934,-0.0623,-1.9621,0.8039,6079.0,23.6,33.5,-15.6,238.12,77.31,11.76,,73.832,,,,NaN,,,,0 / 0,5210,2014-12-14 04:50:44:096
0.5296,-0.5786,-2.1967,-0.439,-9.5672,2.1084,1.1352,7.7726,-4.3934,-0.0623,-1.9621,0.8039,6079.0,23.6,33.5,-15.6,238.12,77.31,11.76,,73.832,,,,NaN,,,,0 / 0,5212,2014-12-14 04:50:44:098
0.5296,-0.5786,-2.1967,-0.439,-9.5672,2.1084,1.1352,7.7726,-4.3934,-0.0623,-1.9621,0.8039,6079.0,23.6,33.5,-15.6,238.12,77.31,11.76,,73.832,,,,NaN,,,,0 / 0,5218,2014-12-14 04:50:44:104
3.5108,1.8044,-1.2749,-0.1539,-9.719,1.2989,3.6647,11.5235,-2.5737,-0.9212,-2.6841,-0.3103,6079.0,24.9,30.9,-16.6,235.8,82.34,6.76,,73.832,,,,NaN,,,,0 / 0,5260,2014-12-14 04:50:44:146
3.3245,-19.3583,-3.0695,1.1111,-9.4839,2.2344,2.2133,-9.8745,-5.3038,0.7831,0.325,1.2694,3903.0,26.2,25.7,-25.9,262.32,75.26,-26.44,,73.832,,,,NaN,,,,0 / 0,5310,2014-12-14 04:50:44:196
-0.353,1.7456,-9.3948,1.6307,-9.6045,1.1251,-1.9837,11.35,-10.5199,-1.8937,-0.0147,0.5241,3903.0,28.4,25.7,-22.0,262.32,75.26,-26.44,,71.374,,,,NaN,,,,0 / 0,5360,2014-12-14 04:50:44:246
0.559,-6.845,2.8832,0.3478,-9.7597,-0.8928,0.2112,2.9147,3.776,-0.6255,-1.6982,-0.1295,2141.0,28.4,26.1,-22.9,25.06,83.87,-156.19,,71.374,,,,NaN,,,,0 / 0,5410,2014-12-14 04:50:44:296
0.559,-6.845,2.8832,0.3478,-9.7597,-0.8928,0.2112,2.9147,3.776,-1.306,-0.7819,0.3812,2141.0,27.1,27.0,-22.0,25.06,83.87,-156.19,,71.374,,,,NaN,,,,0 / 0,5460,2014-12-14 04:50:44:346
-2.079,-7.0804,4.2855,-0.2895,-9.7632,-0.8752,-2.5324,3.5723,5.3004,-1.1558,-0.9273,0.4386,2141.0,27.5,27.0,-21.5,44.99,83.86,-175.05,,71.374,,,,NaN,,,,0 / 0,5510,2014-12-14 04:50:44:396
0.9807,-12.1014,2.7164,-0.218,-9.8042,-0.0191,1.5027,-0.9243,1.1567,-0.088,-0.4019,0.1038,2141.0,27.5,27.0,-21.5,95.72,86.24,134.51,,71.374,,,,NaN,,,,0 / 0,5560,2014-12-14 04:50:44:446
0.0981,-9.2477,-0.7551,-0.0077,-9.8066,-0.0127,0.1058,0.559,-0.7424,-0.1527,-0.3164,0.1576,1211.0,27.5,26.6,-22.0,83.13,89.91,148.65,,71.374,,,,NaN,,,,0 / 0,5610,2014-12-14 04:50:44:496
-0.7355,-11.2973,-0.2452,-0.0077,-9.8066,-0.0127,0.1058,0.559,-0.7424,0.0513,-0.1356,0.1307,1211.0,27.5,26.6,-22.0,83.13,89.91,148.65,,71.374,,,,NaN,,,,0 / 0,5660,2014-12-14 04:50:44:546
-0.2354,-11.4542,1.216,-0.152,-9.7999,-0.3313,-0.0834,-1.6543,1.5473,0.099,-0.3519,0.1014,1211.0,28.0,26.6,-22.4,74.94,87.87,155.36,,71.374,,,,NaN,,,,0 / 0,5711,2014-12-14 04:50:44:597
-0.5394,-9.5321,2.9616,-0.1534,-9.8046,-0.1297,-0.3271,1.2434,2.1401,0.0538,0.0159,-0.0892,1211.0,27.5,26.1,-23.4,99.56,88.83,130.2,,69.607,,,,NaN,,,,0 / 0,5760,2014-12-14 04:50:44:646
-0.3138,-9.7478,1.5593,-0.1358,-9.7981,0.3863,-0.3937,-0.2733,1.2612,0.0892,-0.2419,0.0342,1211.0,27.1,26.1,-23.4,211.13,87.61,19.37,,69.607,,,,NaN,,,,0 / 0,5810,2014-12-14 04:50:44:696
0.7355,-10.042,1.6181,-0.0555,-9.7898,0.5712,0.791,-0.2522,1.0469,0.0049,-0.1613,-0.0672,1211.0,27.5,26.1,-24.9,224.36,86.65,5.55,,69.607,,,,NaN,,,,0 / 0,5860,2014-12-14 04:50:44:746
0.4217,-9.7968,1.6867,0.09,-9.786,0.6293,0.165,0.0971,1.0966,-0.0232,-0.0318,-0.0476,1211.0,26.2,26.1,-23.9,224.36,86.65,5.55,,69.607,,,,NaN,,,,0 / 0,5910,2014-12-14 04:50:44:796
0.0294,-9.7478,1.9417,0.1688,-9.7812,0.6857,-0.1394,0.0334,1.256,-0.0122,0.0354,-0.011,1040.0,27.1,26.1,-24.4,244.95,85.87,-13.83,,69.607,,,,NaN,,,,0 / 0,5960,2014-12-14 04:50:44:846
0.0785,-9.6007,2.0986,0.2037,-9.7721,0.7972,-0.1253,0.1714,1.3014,-0.0098,0.0623,-0.0476,1040.0,26.2,26.6,-23.4,246.35,85.19,-14.34,,69.607,,,,NaN,,,,0 / 0,6012,2014-12-14 04:50:44:898
0.0883,-9.9047,1.9711,0.2578,-9.7593,0.9276,-0.0911,0.0409,0.7199,0.0354,-0.0269,-0.077,1040.0,26.6,26.6,-24.4,247.91,84.37,-15.53,,69.607,,,,NaN,,,,0 / 0,6061,2014-12-14 04:50:44:947
0.0883,-9.9047,1.9711,0.2578,-9.7593,0.9276,-0.0911,0.0409,0.7199,0.0354,-0.0269,-0.077,1040.0,26.6,26.6,-24.4,247.91,84.37,-15.53,,69.607,,,,NaN,,,,0 / 0,6111,2014-12-14 04:50:44:997
0.1569,-9.8165,1.6475,0.2831,-9.7545,0.9692,-0.1262,-0.0619,0.6783,0.0049,-0.0489,-0.0318,1040.0,26.6,26.6,-23.4,250.2,84.09,-16.28,,69.607,,,,NaN,,,,0 / 0,6160,2014-12-14 04:50:45:046