ACCELEROMETER X (m/s²),ACCELEROMETER Y (m/s²),ACCELEROMETER Z (m/s²),GRAVITY X (m/s²),GRAVITY Y (m/s²),GRAVITY Z (m/s²),LINEAR ACCELERATION X (m/s²),LINEAR ACCELERATION Y (m/s²),LINEAR ACCELERATION Z (m/s²),GYROSCOPE X (rad/s),GYROSCOPE Y (rad/s),GYROSCOPE Z (rad/s),LIGHT (lux),MAGNETIC FIELD X (μT),MAGNETIC FIELD Y (μT),MAGNETIC FIELD Z (μT),ORIENTATION X (°),ORIENTATION Y (°),ORIENTATION Z (°),PROXIMITY (i),SOUND LEVEL (dB),LOCATION Latitude : ,LOCATION Longitude : ,LOCATION Altitude ( m),LOCATION Altitude-google ( m),LOCATION Speed ( Kmh),LOCATION Accuracy ( m),LOCATION ORIENTATION (°),Satellites in range,Time since start in ms ,YYYY-MO-DD HH-MI-SS_SSS
0.6767,-9.1496,2.9714,2.873,-9.3746,0.1802,-2.1964,0.225,2.7912,-1.4392,-0.5852,-0.7257,1468.0,-13.6,-9.7,-16.4,221.44,72.74,-81.15,,58.717,,,,NaN,,,,0 / 0,16,2014-12-14 04:46:59:583
1.3141,-9.8263,2.8832,2.7403,-9.411,-0.3089,-1.4262,-0.4153,3.192,-1.339,-0.5901,-0.7269,1468.0,-14.0,-8.9,-14.5,227.12,73.67,-96.43,,46.525,,,,NaN,,,,0 / 0,65,2014-12-14 04:46:59:632
0.8238,-9.4928,2.5007,2.8829,-9.3655,-0.3821,-2.0591,-0.1273,2.8828,-1.1692,-0.5522,-0.8186,1468.0,-14.9,-8.4,-12.5,222.62,72.75,-97.55,,46.525,,,,NaN,,,,0 / 0,116,2014-12-14 04:46:59:683
0.4805,-9.8851,1.3239,2.3687,-9.4013,-1.4747,-2.5735,-0.5129,2.554,-1.3268,-0.6316,-0.755,1226.0,-15.7,-8.0,-8.6,214.58,72.74,-98.27,,46.525,,,,NaN,,,,0 / 0,165,2014-12-14 04:46:59:732
0.5296,-10.0616,1.118,2.3477,-9.3975,-1.5316,-1.8181,-0.6641,2.6495,-1.3402,-0.5571,-0.8332,1226.0,-16.6,-8.0,-7.2,231.01,73.39,-123.12,,46.525,,,,NaN,,,,0 / 0,215,2014-12-14 04:46:59:782
0.7061,-11.5915,1.6573,2.2275,-9.3906,-1.7393,-1.5214,-2.2009,3.3966,-1.0653,-0.6463,-0.6414,1226.0,-17.0,-7.6,-6.7,231.01,73.39,-123.12,,46.525,,,,NaN,,,,0 / 0,265,2014-12-14 04:46:59:832
0.3825,-10.2676,0.7453,2.1708,-9.4027,-1.7454,-1.4745,-0.198,2.8536,-0.9664,-0.5168,-0.672,1226.0,-16.6,-8.0,-5.2,230.55,73.5,-128.8,,46.525,,,,NaN,,,,0 / 0,315,2014-12-14 04:46:59:882
0.2746,-10.1008,0.6767,2.0356,-9.3935,-1.9465,-1.761,-0.7073,2.6232,-0.8454,-0.7159,-0.6121,1226.0,-16.6,-8.4,-4.7,235.0,73.31,-133.72,,46.525,,,,NaN,,,,0 / 0,366,2014-12-14 04:46:59:933
0.5001,-9.7968,0.559,1.8667,-9.3987,-2.0858,-1.3666,-0.3982,2.6448,-0.8625,-0.6622,-0.6573,1226.0,-17.0,-8.4,-3.8,235.0,73.31,-133.72,,46.525,,,,NaN,,,,0 / 0,415,2014-12-14 04:46:59:982
0.6669,-9.9734,0.2942,1.8851,-9.356,-2.2542,-1.2183,-0.6173,2.5484,-0.8528,-0.606,-0.6536,1226.0,-17.0,-8.0,-3.3,237.39,72.81,-139.71,,46.525,,,,NaN,,,,0 / 0,470,2014-12-14 04:47:00:037
0.5884,-10.1303,0.0883,1.896,-9.3365,-2.3247,-1.3076,-0.7937,2.413,-0.8393,-0.6402,-0.672,1226.0,-16.6,-8.4,-2.8,235.23,72.19,-140.8,,59.839,,,,NaN,,,,0 / 0,516,2014-12-14 04:47:00:083
0.7453,-9.5713,0.0883,1.9038,-9.3202,-2.3832,-1.1585,-0.2511,2.4714,-0.8357,-0.5718,-0.6903,1226.0,-16.6,-8.0,-3.3,235.68,71.88,-141.38,,59.839,,,,NaN,,,,0 / 0,566,2014-12-14 04:47:00:133
0.1863,-10.3558,0.1765,1.9298,-9.2924,-2.4692,-1.7435,-1.0634,2.6457,-0.854,-0.5962,-0.6329,1074.0,-17.0,-8.4,-2.3,235.68,71.88,-141.38,,59.839,,,,NaN,,,,0 / 0,616,2014-12-14 04:47:00:183
0.657,-9.9832,0.3923,1.8362,-9.3098,-2.4752,-1.1792,-0.6734,2.8674,-0.7037,-0.6243,-0.661,1074.0,-17.0,-8.4,-2.8,237.49,71.68,-143.43,,59.839,,,,NaN,,,,0 / 0,665,2014-12-14 04:47:00:232
0.4315,-9.9832,0.0392,1.9077,-9.2904,-2.4938,-1.4664,-0.6241,2.5723,-0.7465,-0.6597,-0.6707,1074.0,-17.0,-8.4,-1.8,233.62,71.33,-142.59,,59.839,,,,NaN,,,,0 / 0,716,2014-12-14 04:47:00:283
0.7845,-10.2283,-0.0883,1.8742,-9.2805,-2.5552,-1.0897,-0.9478,2.467,-0.7318,-0.6402,-0.6988,1074.0,-16.6,-8.0,-2.8,233.62,71.33,-142.59,,59.839,,,,NaN,,,,0 / 0,766,2014-12-14 04:47:00:333
1.0591,-9.8655,0.0196,1.929,-9.2658,-2.5678,-0.8699,-0.5997,2.5874,-0.7379,-0.6524,-0.7098,1074.0,-17.0,-8.4,-1.8,233.98,70.88,-143.08,,59.839,,,,NaN,,,,0 / 0,815,2014-12-14 04:47:00:382
0.9316,-9.7576,0.0785,1.9632,-9.2584,-2.5686,-1.0316,-0.4992,2.6471,-0.7489,-0.6548,-0.6927,1074.0,-16.6,-8.0,-1.8,233.98,70.88,-143.08,,59.839,,,,NaN,,,,0 / 0,865,2014-12-14 04:47:00:432
0.4805,-9.6301,0.0294,2.0475,-9.2364,-2.5822,-1.5669,-0.3938,2.6116,-0.766,-0.661,-0.7208,1074.0,-17.5,-8.4,-1.8,232.54,70.36,-141.59,,59.839,,,,NaN,,,,0 / 0,928,2014-12-14 04:47:00:495
0.3432,-9.9439,0.1275,2.0533,-9.2289,-2.604,-1.71,-0.715,2.7315,-0.7514,-0.6695,-0.7159,1074.0,-17.0,-8.0,-1.8,232.65,70.24,-141.74,,59.839,,,,NaN,,,,0 / 0,965,2014-12-14 04:47:00:532
0.5786,-9.9047,0.2942,2.0299,-9.2314,-2.6138,-1.4513,-0.6734,2.908,-0.7269,-0.6732,-0.7233,1074.0,-17.0,-8.0,-2.3,232.65,70.24,-141.74,,59.839,,,,NaN,,,,0 / 0,1015,2014-12-14 04:47:00:582
0.3727,-8.267,0.4609,2.2845,-9.1716,-2.6141,-1.9119,0.9046,3.075,-0.8149,-0.6158,-0.7941,1074.0,-17.9,-8.4,-1.8,228.95,70.15,-140.99,,40.34,,,,NaN,,,,0 / 0,1065,2014-12-14 04:47:00:632
0.5786,-8.1199,0.4511,2.315,-9.1609,-2.6248,-1.7364,1.041,3.0759,-0.8845,-0.4581,-0.865,1074.0,-17.5,-8.4,-0.8,226.65,69.09,-138.59,,40.34,,,,NaN,,,,0 / 0,1115,2014-12-14 04:47:00:682
-0.1961,-9.1398,0.0686,2.5472,-9.2189,-2.1666,-2.7434,0.0791,2.2353,-0.9688,-0.4557,-0.9395,1074.0,-18.8,-8.9,-2.3,221.83,70.06,-130.38,,40.34,,,,NaN,,,,0 / 0,1165,2014-12-14 04:47:00:732
-0.8238,-9.689,-0.2256,2.527,-9.1949,-2.2886,-3.3508,-0.494,2.063,-1.08,-0.6035,-1.0531,1074.0,-19.2,-8.9,-0.3,221.83,70.06,-130.38,,40.34,,,,NaN,,,,0 / 0,1215,2014-12-14 04:47:00:782
-1.1376,-9.7674,2.8635,2.0126,-9.2411,-2.5926,-3.1051,-1.0283,4.4752,-1.0458,-0.9334,-0.9688,1074.0,-19.7,-8.9,0.1,223.35,69.42,-137.89,,40.34,,,,NaN,,,,0 / 0,1265,2014-12-14 04:47:00:832
-1.3533,-9.4242,4.1482,1.9123,-9.3193,-2.3799,-3.2656,-0.1049,6.5281,-0.7575,-1.3732,-0.9358,1074.0,-20.5,-9.3,1.6,221.53,71.86,-141.22,,40.34,,,,NaN,,,,0 / 0,1315,2014-12-14 04:47:00:882
-2.3928,-9.9734,4.5797,1.813,-9.4604,-1.8398,-4.2058,-0.513,6.4195,-0.4081,-1.6139,-0.8137,1074.0,-21.8,-9.7,3.1,221.53,71.86,-141.22,,40.34,,,,NaN,,,,0 / 0,1365,2014-12-14 04:47:00:932
0.5884,-14.2687,6.0801,1.0763,-9.7213,-0.7123,-0.4879,-4.5473,6.7925,0.9701,-2.5742,-0.4557,1074.0,-40.8,40.7,-35.4,259.77,82.44,-123.5,,40.34,,,,NaN,,,,0 / 0,1416,2014-12-14 04:47:00:983
3.6285,-10.2283,1.0983,1.0763,-9.7213,-0.7123,-0.4879,-4.5473,6.7925,0.9701,-2.5742,-0.4557,1074.0,-40.8,40.7,-35.4,259.77,82.44,-123.5,,40.34,,,,NaN,,,,0 / 0,1465,2014-12-14 04:47:01:032
2.0986,-11.4149,3.0401,1.6363,-9.6543,0.5365,0.4624,-1.7607,2.5036,1.0043,-1.08,0.0379,1074.0,-39.5,39.8,-37.4,209.42,79.89,-71.85,,45.696,,,,NaN,,,,0 / 0,1516,2014-12-14 04:47:01:083
-1.1866,-11.4444,2.4419,1.6716,-9.5674,1.3568,-2.8582,-1.877,1.085,1.2046,-1.7104,-0.121,1074.0,-37.3,38.5,-41.8,191.59,77.32,-50.93,,45.696,,,,NaN,,,,0 / 0,1566,2014-12-14 04:47:01:133
-0.1569,-8.7279,4.1286,1.6039,-9.5119,1.7667,-1.7608,0.784,2.3619,0.7697,-2.4166,-0.358,1750.0,-37.8,37.2,-43.7,191.59,77.32,-50.93,,45.696,,,,NaN,,,,0 / 0,1615,2014-12-14 04:47:01:182
0.0588,-8.3455,4.4032,1.6479,-9.4878,1.8539,-1.5891,1.1423,2.5493,0.6829,-2.529,-0.4142,1750.0,-37.8,36.8,-43.2,180.21,75.35,-41.63,,45.696,,,,NaN,,,,0 / 0,1665,2014-12-14 04:47:01:232
4.9229,-1.4612,7.8159,2.7154,-9.0106,2.758,2.2075,7.5494,5.0579,-0.5388,-1.8546,-1.0055,1750.0,-40.4,33.7,-42.2,181.95,68.52,-43.61,,45.696,,,,NaN,,,,0 / 0,1715,2014-12-14 04:47:01:282
7.1981,8.267,-9.4634,4.3493,-8.4627,2.3741,2.8488,16.7297,-11.8376,-4.2602,2.9358,0.0305,1750.0,-40.4,33.7,-42.2,181.95,68.52,-43.61,,45.696,,,,NaN,,,,0 / 0,1765,2014-12-14 04:47:01:332
4.462,-1.1474,0.0883,5.3002,-8.2293,0.5968,-5.8057,-1.8088,-9.3882,-4.948,6.1355,-0.6805,1750.0,-40.0,32.0,-34.4,225.86,58.05,-75.05,,45.696,,,,NaN,,,,0 / 0,1816,2014-12-14 04:47:01:383
-3.3048,-13.9058,-6.5803,5.1131,-8.0781,-2.1842,-8.418,-5.8278,-4.396,-3.6212,1.9462,-1.8253,1750.0,-40.0,32.0,-34.4,225.86,58.05,-75.05,,45.696,,,,NaN,,,,0 / 0,1865,2014-12-14 04:47:01:432
-1.8731,-8.7573,-5.2171,4.7016,-7.5803,-4.0748,-6.5747,-1.1771,-1.1423,-4.3579,-1.2083,-2.4813,1750.0,-41.7,30.3,-32.0,264.46,55.46,-113.13,,45.696,,,,NaN,,,,0 / 0,1915,2014-12-14 04:47:01:482
0.4511,-18.2208,-4.6091,4.25,-6.4768,-6.0133,-3.7989,-11.744,1.4041,-4.7232,-0.2065,-1.7544,744.0,-45.2,25.5,-21.8,286.06,41.33,-144.75,,68.236,,,,NaN,,,,0 / 0,1965,2014-12-14 04:47:01:532
-3.3931,-14.3373,8.9241,3.5061,-7.1211,-5.7591,-6.8992,-7.2162,14.6832,-1.9523,-0.6084,-0.5253,744.0,-45.6,22.0,-19.8,286.06,41.33,-144.75,,68.236,,,,NaN,,,,0 / 0,2015,2014-12-14 04:47:01:582
-3.3931,-14.3373,8.9241,3.5061,-7.1211,-5.7591,-6.8992,-7.2162,14.6832,-0.9468,-0.8015,-0.9945,744.0,-46.5,21.1,-18.8,280.21,46.56,-148.67,,68.236,,,,NaN,,,,0 / 0,2065,2014-12-14 04:47:01:632
-9.993,-7.3158,6.9921,2.9255,-8.3423,-4.2447,-12.9185,1.0265,11.2369,1.4294,-2.2345,-1.0079,744.0,-47.8,19.4,-21.3,271.7,58.29,-145.42,,68.236,,,,NaN,,,,0 / 0,2115,2014-12-14 04:47:01:682
-9.993,-7.3158,6.9921,2.9255,-8.3423,-4.2447,-12.9185,1.0265,11.2369,1.4294,-2.2345,-1.0079,744.0,-47.8,19.4,-21.3,271.7,58.29,-145.42,,68.236,,,,NaN,,,,0 / 0,2165,2014-12-14 04:47:01:732
-1.3533,-19.2701,-3.9325,1.04,-9.6595,-1.335,-2.3933,-9.6105,-2.5975,3.7153,-3.1912,-0.0476,475.0,-46.5,19.0,-25.2,272.13,72.95,-149.76,,68.236,,,,NaN,,,,0 / 0,2216,2014-12-14 04:47:01:783
4.7856,-19.9761,-11.8857,0.4612,-9.7938,0.2002,4.3244,-10.1824,-12.0858,4.5351,-0.0086,0.9652,475.0,-46.5,20.3,-30.5,189.85,87.06,-66.54,,68.236,,,,NaN,,,,0 / 0,2266,2014-12-14 04:47:01:833
-2.128,-7.4531,-7.2961,0.1609,-9.6999,1.4339,-2.2889,2.2469,-8.73,1.5944,-3.9059,0.1967,475.0,-44.7,23.3,-37.9,133.88,81.54,-6.4,,68.236,,,,NaN,,,,0 / 0,2316,2014-12-14 04:47:01:883
3.3146,2.6282,-7.8159,0.1566,-9.7647,0.8929,3.1581,12.3928,-8.7088,-0.6707,-3.2144,-0.303,475.0,-45.6,23.7,-36.4,133.88,81.54,-6.4,,68.236,,,,NaN,,,,0 / 0,2366,2014-12-14 04:47:01:933
7.0706,2.9812,-3.0597,0.7588,-9.7744,-0.2342,5.9979,18.7475,-7.4248,-1.9511,-1.774,-1.1191,1403.0,-48.2,23.3,-31.0,234.5,85.35,-107.15,,68.236,,,,NaN,,,,0 / 0,2415,2014-12-14 04:47:01:982
10.1793,-1.726,-0.6669,3.2403,-9.0202,-2.0755,6.939,7.2942,1.4086,-2.1002,2.9725,-0.4362,1403.0,-48.2,23.7,-34.0,258.7,66.9,-122.64,,68.236,,,,NaN,,,,0 / 0,2466,2014-12-14 04:47:02:033
10.1891,-0.1079,-4.9229,3.6099,-8.8854,-2.0467,6.5792,8.7775,-2.8762,-2.5143,3.7092,-0.4044,1403.0,-48.2,23.7,-34.4,258.7,66.9,-122.64,,69.649,,,,NaN,,,,0 / 0,2516,2014-12-14 04:47:02:083
10.1891,-0.1079,-4.9229,3.6099,-8.8854,-2.0467,6.5792,8.7775,-2.8762,-2.5143,3.7092,-0.4044,1974.0,-48.2,23.7,-34.4,258.7,66.9,-122.64,,69.649,,,,NaN,,,,0 / 0,2566,2014-12-14 04:47:02:133
-5.1583,-5.325,-5.1779,6.0017,-6.7068,-3.8948,-11.16,1.3818,-1.2831,-4.4935,0.0171,-3.5809,1974.0,-49.1,23.3,-39.3,267.56,46.91,-116.68,,69.649,,,,NaN,,,,0 / 0,2646,2014-12-14 04:47:02:213
-2.0104,-19.1034,8.8162,4.5454,-5.3809,-6.8232,-6.5557,-13.7224,15.6394,-4.1111,1.0336,-1.025,1974.0,-54.7,18.1,-30.1,280.9,33.28,-146.33,,69.649,,,,NaN,,,,0 / 0,2665,2014-12-14 04:47:02:232
-2.0888,-6.8156,4.9131,4.5454,-5.3809,-6.8232,-6.5557,-13.7224,15.6394,-0.0831,0.7062,-1.3659,1974.0,-54.7,18.1,-30.1,280.9,33.28,-146.33,,69.649,,,,NaN,,,,0 / 0,2716,2014-12-14 04:47:02:283
-2.0888,-6.8156,4.9131,4.5454,-5.3809,-6.8232,-6.5557,-13.7224,15.6394,-0.0831,0.7062,-1.3659,1974.0,-54.7,18.1,-30.1,280.9,33.28,-146.33,,69.649,,,,NaN,,,,0 / 0,2766,2014-12-14 04:47:02:333
-3.6579,-5.4133,2.9224,4.6363,-6.0326,-6.1873,-6.7251,-0.783,11.1005,0.0745,0.9249,-1.4099,638.0,-56.0,17.2,-29.1,276.44,37.96,-143.16,,69.649,,,,NaN,,,,0 / 0,2815,2014-12-14 04:47:02:382
-3.6579,-5.4133,2.9224,4.6363,-6.0326,-6.1873,-6.7251,-0.783,11.1005,0.0745,0.9249,-1.4099,638.0,-56.0,17.2,-29.1,276.44,37.96,-143.16,,69.649,,,,NaN,,,,0 / 0,2865,2014-12-14 04:47:02:432
3.854,-19.7114,-4.8935,0.8923,-8.8296,-4.1729,2.9617,-10.8818,-0.7206,3.0079,-4.9761,1.1044,638.0,-51.3,20.3,-32.0,295.74,64.21,-167.93,,69.649,,,,NaN,,,,0 / 0,2916,2014-12-14 04:47:02:483
3.854,-19.7114,-4.8935,0.8923,-8.8296,-4.1729,2.9617,-10.8818,-0.7206,3.0079,-4.9761,1.1044,638.0,-51.3,20.3,-32.0,295.74,64.21,-167.93,,69.649,,,,NaN,,,,0 / 0,2965,2014-12-14 04:47:02:532
4.109,-16.9067,-5.9428,0.3769,-9.4803,-2.4805,3.7321,-7.4264,-3.4623,2.5424,-1.879,1.4197,638.0,-47.3,22.0,-36.9,303.29,75.18,-171.36,,69.649,,,,NaN,,,,0 / 0,3015,2014-12-14 04:47:02:582
4.2365,-0.1961,-4.7268,-4.0E-4,-9.5273,-2.3241,4.2369,9.3312,-2.4027,-0.6707,-2.474,-0.099,638.0,-43.9,22.4,-35.9,312.42,76.29,179.99,,71.661,,,,NaN,,,,0 / 0,3066,2014-12-14 04:47:02:633
4.3247,3.6187,-4.2953,0.8445,-9.0615,-3.6533,3.4802,12.6802,-0.642,-1.1325,-0.6707,-1.1142,1890.0,-43.0,21.6,-32.5,299.93,67.52,-166.98,,71.661,,,,NaN,,,,0 / 0,3115,2014-12-14 04:47:02:682
4.3051,0.2942,0.9611,1.6244,-8.5981,-4.4276,2.6807,8.8923,5.3887,-1.4844,0.7941,-0.3519,1890.0,-43.4,22.4,-31.0,294.36,61.25,-159.85,,71.661,,,,NaN,,,,0 / 0,3166,2014-12-14 04:47:02:733
-3.1872,-16.9753,-5.6682,3.2515,-7.366,-5.5982,-6.4387,-9.6093,-0.0701,-0.6952,2.2174,-1.3512,1890.0,-41.7,23.7,-31.5,291.21,48.69,-149.85,,71.661,,,,NaN,,,,0 / 0,3215,2014-12-14 04:47:02:782
7.8355,3.5108,-9.6988,4.6742,-6.6226,-5.5194,3.1613,10.1334,-4.1794,-4.061,2.0818,-3.7483,1890.0,-43.9,22.9,-34.9,291.21,48.69,-149.85,,71.661,,,,NaN,,,,0 / 0,3265,2014-12-14 04:47:02:832
-13.3174,-15.4259,-15.3866,5.4368,-2.1033,-7.8859,-18.7542,-13.3226,-7.5007,-4.7366,1.9988,-2.8796,1890.0,-48.7,17.6,-23.7,286.37,12.38,-145.42,,71.661,,,,NaN,,,,0 / 0,3316,2014-12-14 04:47:02:883
-2.0594,-19.8487,10.954,4.425,-3.0645,-8.1975,-6.5923,-13.4401,20.0733,-1.2156,-0.5644,-0.7917,1890.0,-52.1,15.0,-22.7,282.78,18.21,-151.64,,71.661,,,,NaN,,,,0 / 0,3365,2014-12-14 04:47:02:932
-2.5791,-4.5699,5.4231,4.425,-3.0645,-8.1975,-6.5923,-13.4401,20.0733,-1.2156,-0.5644,-0.7917,705.0,-52.1,15.0,-22.7,282.78,18.21,-151.64,,71.661,,,,NaN,,,,0 / 0,3415,2014-12-14 04:47:02:982
-11.0521,-6.0997,5.5898,4.7355,-4.2402,-7.4677,-16.3367,-2.7422,13.1948,1.0531,-1.3011,-0.1735,705.0,-54.7,15.0,-26.1,279.59,23.42,-145.8,,71.661,,,,NaN,,,,0 / 0,3466,2014-12-14 04:47:03:033
-11.0521,-6.0997,5.5898,4.7355,-4.2402,-7.4677,-16.3367,-2.7422,13.1948,1.0531,-1.3011,-0.1735,705.0,-54.7,15.0,-26.1,279.59,23.42,-145.8,,72.656,,,,NaN,,,,0 / 0,3515,2014-12-14 04:47:03:082
-2.4419,-12.5525,-1.7554,2.4679,-6.1806,-7.2028,-4.9097,-6.3719,5.4474,2.7171,-3.6273,0.5767,584.0,-53.0,18.1,-26.6,283.13,25.62,-147.62,,72.656,,,,NaN,,,,0 / 0,3565,2014-12-14 04:47:03:132
-2.4419,-12.5525,-1.7554,2.4679,-6.1806,-7.2028,-4.9097,-6.3719,5.4474,2.7171,-3.6273,0.5767,584.0,-53.0,18.1,-26.6,283.13,25.62,-147.62,,72.656,,,,NaN,,,,0 / 0,3615,2014-12-14 04:47:03:182
0.9611,-15.8181,-4.1286,-0.3837,-8.98,-3.9222,1.3448,-6.8382,-0.2064,2.3066,-2.485,1.1655,584.0,-46.0,27.6,-35.4,318.11,66.31,174.41,,72.656,,,,NaN,,,,0 / 0,3665,2014-12-14 04:47:03:232
5.2368,1.9515,-6.5901,-0.5688,-8.8924,-4.0953,5.8056,10.844,-2.4948,-1.1802,-2.6585,-1.223,1444.0,-45.6,30.3,-33.0,319.5,65.06,172.09,,72.656,,,,NaN,,,,0 / 0,3719,2014-12-14 04:47:03:286
4.717,4.2071,-6.1095,-0.0677,-8.4927,-4.903,4.9416,11.5426,1.1373,-1.1619,-1.9401,-1.6787,1444.0,-46.5,29.4,-32.5,313.19,60.0,179.21,,72.656,,,,NaN,,,,0 / 0,3765,2014-12-14 04:47:03:332
5.0308,0.9316,-0.7943,0.1422,-8.3238,-5.183,4.8886,9.2555,4.3887,-0.744,-0.5168,-1.3195,1444.0,-46.5,28.9,-32.0,313.19,60.0,179.21,,72.656,,,,NaN,,,,0 / 0,3815,2014-12-14 04:47:03:382
2.7361,-4.4228,-10.6304,4.7222,-6.5451,-5.5707,-1.9862,2.1223,-5.0597,-3.3769,1.4954,0.1564,1809.0,-43.9,30.3,-39.8,296.23,42.46,-147.4,,72.656,,,,NaN,,,,0 / 0,3865,2014-12-14 04:47:03:432
2.7361,-4.4228,-10.6304,4.7222,-6.5451,-5.5707,-1.9862,2.1223,-5.0597,-5.0042,0.3103,-4.8344,1809.0,-44.7,28.5,-43.2,291.17,41.87,-139.71,,72.656,,,,NaN,,,,0 / 0,3915,2014-12-14 04:47:03:482
-14.7982,-18.0344,-2.383,4.7106,-2.3114,-8.2848,-19.5088,-15.723,5.9018,-9.2815,-3.675,-3.7739,1809.0,-46.5,27.6,-41.3,291.17,41.87,-139.71,,72.656,,,,NaN,,,,0 / 0,3966,2014-12-14 04:47:03:533
-0.6472,-19.2603,12.5427,4.2046,-3.2935,-8.2246,-4.8519,-15.9668,20.7673,-1.0666,0.1979,0.2859,1809.0,-52.1,22.9,-32.0,290.93,19.62,-152.92,,72.645,,,,NaN,,,,0 / 0,4016,2014-12-14 04:47:03:583
-3.2754,-1.6279,2.6086,4.939,-4.3414,-7.2753,-8.2144,2.7134,9.8838,-0.4875,1.0287,-1.6139,658.0,-50.8,23.3,-34.4,288.41,26.28,-145.83,,72.645,,,,NaN,,,,0 / 0,4066,2014-12-14 04:47:03:633
-8.7671,-7.7473,5.7663,4.2582,-4.7234,-7.4651,-13.0253,-3.0238,13.2314,0.8589,-1.2095,-0.3299,658.0,-52.1,21.6,-39.3,289.78,28.79,-150.3,,72.645,,,,NaN,,,,0 / 0,4115,2014-12-14 04:47:03:682
-1.4906,-8.7475,0.3236,2.6189,-6.5622,-6.8007,-4.1095,-2.1854,7.1243,2.1014,-2.0097,0.1466,658.0,-51.3,20.3,-43.2,295.04,42.0,-158.94,,72.645,,,,NaN,,,,0 / 0,4165,2014-12-14 04:47:03:732
-4.5209,-18.358,-6.5018,1.6261,-7.6057,-5.9733,-6.1469,-10.7524,-0.5285,2.5217,-3.1472,1.4294,658.0,-51.3,18.5,-45.2,295.04,42.0,-158.94,,72.645,,,,NaN,,,,0 / 0,4216,2014-12-14 04:47:03:783
3.4617,-19.8977,-6.2076,-0.2546,-8.6839,-4.5492,3.7164,-11.2138,-1.6585,2.4325,-3.8619,2.2162,658.0,-51.3,18.5,-47.1,308.39,56.46,-173.96,,72.645,,,,NaN,,,,0 / 0,4265,2014-12-14 04:47:03:832
4.2561,-12.023,-5.4427,-1.0331,-9.365,-2.7203,5.2891,-2.658,-2.7224,2.2028,-2.7391,1.3341,658.0,-50.8,16.8,-51.0,336.46,72.74,159.21,,72.645,,,,NaN,,,,0 / 0,4315,2014-12-14 04:47:03:882
2.7459,-4.5111,-3.7756,-1.1777,-9.4186,-2.4644,3.9236,4.9075,-2.5272,0.6439,-2.9615,0.5461,1397.0,-53.0,15.9,-50.1,336.46,72.74,159.21,,72.645,,,,NaN,,,,0 / 0,4366,2014-12-14 04:47:03:933
2.8635,3.0204,-2.2555,-0.3247,-8.9834,-3.9197,3.1883,12.0038,1.6642,-1.3708,-3.2865,-1.4783,1397.0,-56.9,14.2,-44.7,313.85,66.35,175.26,,72.645,,,,NaN,,,,0 / 0,4415,2014-12-14 04:47:03:982
5.2368,3.7952,-2.0104,0.1912,-8.9845,-3.926,5.0456,12.7796,1.9156,-1.3231,1.8192,-0.4508,1397.0,-59.1,12.4,-43.7,304.8,66.37,-177.21,,72.645,,,,NaN,,,,0 / 0,4466,2014-12-14 04:47:04:033
5.8938,-12.3172,11.6111,1.8121,-7.2654,-6.3325,4.0817,-5.0518,17.9436,-5.4611,-5.3194,1.1301,2143.0,-56.9,12.4,-47.1,304.8,66.37,-177.21,,70.101,,,,NaN,,,,0 / 0,4515,2014-12-14 04:47:04:082
17.1028,14.5629,-11.3071,3.3257,-7.7506,-5.0037,13.7771,22.3135,-6.3033,-0.788,1.0776,-1.1777,2143.0,-54.3,9.8,-54.4,283.55,52.22,-146.39,,70.101,,,,NaN,,,,0 / 0,4565,2014-12-14 04:47:04:132
-5.884,2.3242,-12.5525,5.1087,-3.4567,-7.6238,-10.9927,5.7809,-4.9287,-8.9101,-1.7715,-3.3109,2143.0,-56.0,9.4,-50.5,283.55,52.22,-146.39,,70.101,,,,NaN,,,,0 / 0,4615,2014-12-14 04:47:04:182
-8.5906,-18.6032,9.8753,4.2766,-1.0431,-8.7632,-12.8672,-17.5601,18.6385,-1.9829,0.7184,-1.7129,1210.0,-56.5,9.8,-46.6,279.46,6.11,-153.99,,70.101,,,,NaN,,,,0 / 0,4665,2014-12-14 04:47:04:232
3.0499,-11.0521,3.9717,4.0267,-2.3881,-8.617,-0.9769,-8.664,12.5887,-0.5363,-0.6292,-0.7404,1210.0,-56.0,9.8,-44.2,281.12,14.09,-154.95,,70.101,,,,NaN,,,,0 / 0,4716,2014-12-14 04:47:04:283
-3.6579,4.4424,-1.5887,5.2869,-2.2612,-7.9439,-8.9448,6.7036,6.3553,0.6133,0.1344,0.0696,1210.0,-53.4,9.4,-49.1,279.08,13.33,-146.36,,70.101,,,,NaN,,,,0 / 0,4771,2014-12-14 04:47:04:338
-3.6579,4.4424,-1.5887,5.2869,-2.2612,-7.9439,-8.9448,6.7036,6.3553,0.6133,0.1344,0.0696,1210.0,-53.4,9.4,-49.1,279.08,13.33,-146.36,,70.101,,,,NaN,,,,0 / 0,4815,2014-12-14 04:47:04:382
0.4021,-15.3278,-4.2267,4.1526,-4.5371,-7.6381,-11.7432,-9.7009,14.9709,2.4312,-0.5351,0.6842,943.0,-52.1,9.8,-50.5,279.66,10.18,-146.27,,70.101,,,,NaN,,,,0 / 0,4866,2014-12-14 04:47:04:433
0.4021,-15.3278,-4.2267,4.1526,-4.5371,-7.6381,-6.9642,-13.3382,2.8076,2.4312,-0.5351,0.6842,943.0,-51.3,10.3,-49.6,279.66,10.18,-146.27,,70.101,,,,NaN,,,,0 / 0,4915,2014-12-14 04:47:04:482
7.2079,-18.9857,-4.1286,1.9842,-7.2699,-6.2755,5.2237,-11.7158,2.1469,1.1301,-1.6322,3.5137,943.0,-47.8,13.3,-51.5,299.11,47.84,-162.45,,70.101,,,,NaN,,,,0 / 0,4965,2014-12-14 04:47:04:532
1.7456,-2.0692,-3.9129,0.0817,-8.5512,-4.8001,1.3501,5.1875,0.3282,-0.1063,-2.573,0.0195,1302.0,-44.7,17.6,-52.0,319.38,60.69,-179.02,,73.823,,,,NaN,,,,0 / 0,5100,2014-12-14 04:47:04:667
1.7456,-2.0692,-3.9129,0.0817,-8.5512,-4.8001,1.3501,5.1875,0.3282,-0.1063,-2.573,0.0195,1302.0,-44.7,17.6,-52.0,319.38,60.69,-179.02,,73.823,,,,NaN,,,,0 / 0,5105,2014-12-14 04:47:04:672
1.7456,-2.0692,-3.9129,0.0817,-8.5512,-4.8001,1.3501,5.1875,0.3282,-0.1063,-2.573,0.0195,1302.0,-44.7,17.6,-52.0,319.38,60.69,-179.02,,73.823,,,,NaN,,,,0 / 0,5116,2014-12-14 04:47:04:683
4.1874,6.188,-1.7848,-0.2511,-7.8975,-5.8084,4.4386,14.0855,4.0236,-1.179,-3.7642,-1.4624,1302.0,-46.9,18.1,-46.6,320.06,56.66,177.58,,73.823,,,,NaN,,,,0 / 0,5165,2014-12-14 04:47:04:732
5.1583,-0.8924,-0.4315,-0.3256,-7.2723,-6.5709,3.4834,8.508,8.9834,-1.5443,-4.3701,-0.5705,1302.0,-48.7,18.1,-40.8,313.32,47.87,177.16,,73.823,,,,NaN,,,,0 / 0,5216,2014-12-14 04:47:04:783
6.3645,-10.2676,-16.0045,0.5717,-8.0336,-5.595,-7.8482,-11.0501,-6.4083,4.5925,0.5205,-3.8069,1302.0,-45.2,21.6,-40.8,310.83,55.0,-174.17,,73.823,,,,NaN,,,,0 / 0,5265,2014-12-14 04:47:04:832
17.2401,14.0922,-9.2575,0.2466,-8.6189,-4.6717,12.9434,12.11,-8.7046,-1.7825,-0.6952,-1.7984,1302.0,-45.6,20.3,-43.7,310.83,55.0,-174.17,,73.823,,,,NaN,,,,0 / 0,5315,2014-12-14 04:47:04:882
-15.6612,-11.1502,2.5693,2.5286,-6.4173,-6.971,-18.1898,-4.7329,9.5403,-2.6108,2.5388,-0.2028,1805.0,-45.2,21.1,-44.7,300.18,40.87,-160.06,,73.823,,,,NaN,,,,0 / 0,5365,2014-12-14 04:47:04:932
-4.364,-10.3264,3.7559,1.8539,-6.7771,-6.8414,-6.2179,-3.5493,10.5973,-1.5589,-0.4325,-0.7966,1805.0,-45.6,21.1,-45.2,303.29,43.72,-164.84,,73.823,,,,NaN,,,,0 / 0,5415,2014-12-14 04:47:04:982
-2.0202,-5.9134,0.8728,0.8844,-7.3227,-6.4627,-2.9046,1.4093,7.3355,-1.5345,-0.854,-0.7184,1494.0,-45.6,22.0,-42.7,309.11,48.31,-172.21,,73.823,,,,NaN,,,,0 / 0,5466,2014-12-14 04:47:05:033
-0.1177,-11.817,1.1376,1.081,-7.2583,-6.5053,-1.1987,-4.5587,7.6429,-1.3537,-0.2908,-1.3903,1494.0,-46.0,22.0,-40.8,306.92,47.74,-170.57,,73.472,,,,NaN,,,,0 / 0,5515,2014-12-14 04:47:05:082
-0.1177,-11.817,1.1376,1.081,-7.2583,-6.5053,-1.1987,-4.5587,7.6429,-1.3537,-0.2908,-1.3903,1494.0,-46.0,22.0,-40.8,306.92,47.74,-170.57,,73.472,,,,NaN,,,,0 / 0,5565,2014-12-14 04:47:05:132
0.7061,-8.3945,3.0891,1.3664,-7.8427,-5.7267,-0.6603,-0.5518,8.8158,-1.2999,-0.7758,-0.8955,1494.0,-46.9,21.6,-39.3,304.89,52.2,-167.73,,73.472,,,,NaN,,,,0 / 0,5615,2014-12-14 04:47:05:182
-1.8535,-10.3754,2.0006,1.7271,-8.063,-5.308,-3.5806,-2.3124,7.3086,-1.2144,-0.5082,-1.047,1494.0,-46.9,21.1,-39.8,298.72,55.31,-161.98,,73.472,,,,NaN,,,,0 / 0,5665,2014-12-14 04:47:05:232
-0.2059,-8.4729,3.0008,2.033,-8.5639,-4.3241,-2.239,0.0909,7.3249,-1.2193,-0.3958,-0.9371,1494.0,-47.3,20.7,-38.8,291.75,60.84,-154.82,,73.472,,,,NaN,,,,0 / 0,5716,2014-12-14 04:47:05:283
-0.3825,-8.6691,3.2754,2.1214,-8.7822,-3.8134,-2.5038,0.1132,7.0889,-0.9493,-0.5974,-1.0275,1494.0,-48.2,20.3,-37.4,285.8,63.58,-150.91,,73.472,,,,NaN,,,,0 / 0,5765,2014-12-14 04:47:05:332
0.255,-10.0714,3.2166,2.2135,-8.954,-3.3312,-1.9585,-1.1175,6.5478,-0.887,-0.3836,-0.8772,1494.0,-48.2,20.3,-38.8,285.8,63.58,-150.91,,73.472,,,,NaN,,,,0 / 0,5815,2014-12-14 04:47:05:382
0.2256,-10.395,3.2264,2.2369,-8.9998,-3.1891,-2.0702,-1.4541,6.4057,-0.8137,-0.4325,-0.8589,1494.0,-48.7,20.3,-38.8,280.36,66.6,-144.95,,73.472,,,,NaN,,,,0 / 0,5866,2014-12-14 04:47:05:433
-0.2746,-8.4435,1.9319,2.324,-9.1848,-2.5317,-2.5986,0.7412,4.4636,-0.8247,-0.4801,-0.9187,1494.0,-48.7,19.8,-39.3,280.36,66.6,-144.95,,73.472,,,,NaN,,,,0 / 0,5915,2014-12-14 04:47:05:482
-0.4413,-10.4931,1.6867,2.2947,-9.2237,-2.4139,-2.736,-1.2694,4.1007,-0.909,-0.6866,-0.8039,1494.0,-49.5,19.4,-38.3,272.32,69.49,-137.45,,73.472,,,,NaN,,,,0 / 0,5965,2014-12-14 04:47:05:532
-0.5688,-10.6304,2.4615,2.1511,-9.2833,-2.3157,-2.7199,-0.994,5.0322,-0.909,-0.6866,-0.8039,1494.0,-49.5,19.4,-38.3,272.32,69.49,-137.45,,73.472,,,,NaN,,,,0 / 0,6015,2014-12-14 04:47:05:582
-0.1961,-9.3654,2.4909,1.9732,-9.4398,-1.7797,-2.1693,0.0744,4.2706,-0.7697,-0.7538,-0.7624,1494.0,-49.5,19.4,-37.9,270.25,72.54,-136.27,,51.84,,,,NaN,,,,0 / 0,6065,2014-12-14 04:47:05:632
-0.3628,-9.9341,2.1477,1.96,-9.467,-1.6446,-2.3228,-0.4671,3.7922,-0.8137,-0.6377,-0.7526,1494.0,-49.5,19.0,-38.3,262.76,74.88,-130.0,,51.84,,,,NaN,,,,0 / 0,6115,2014-12-14 04:47:05:682
-0.0981,-10.1401,2.2065,1.8888,-9.4972,-1.5512,-1.9869,-0.6429,3.7577,-0.7599,-0.7086,-0.6939,1494.0,-50.0,19.4,-37.4,262.76,74.88,-130.0,,51.84,,,,NaN,,,,0 / 0,6166,2014-12-14 04:47:05:733
-0.0785,-9.8066,2.0594,1.8647,-9.5232,-1.4148,-1.9431,-0.2834,3.4742,-0.7489,-0.6353,-0.7049,1494.0,-49.5,19.4,-38.3,259.53,76.19,-127.19,,51.84,,,,NaN,,,,0 / 0,6216,2014-12-14 04:47:05:783
-0.4217,-9.1104,1.824,1.8351,-9.5398,-1.3399,-2.2568,0.4294,3.1639,-0.865,-0.7257,-0.7611,1494.0,-49.5,19.0,-38.3,259.53,76.19,-127.19,,51.84,,,,NaN,,,,0 / 0,6265,2014-12-14 04:47:05:832
-0.5296,-9.7576,2.1378,1.7735,-9.5529,-1.3291,-2.3031,-0.2047,3.467,-0.8076,-0.7685,-0.7208,1494.0,-49.5,19.4,-38.3,258.93,76.94,-126.85,,51.84,,,,NaN,,,,0 / 0,6315,2014-12-14 04:47:05:882
-0.2452,-9.9145,2.1967,1.6837,-9.5808,-1.2422,-1.9387,-0.2356,3.5369,-0.7318,-0.6402,-0.6573,1494.0,-49.5,19.0,-38.3,258.93,76.94,-126.85,,51.84,,,,NaN,,,,0 / 0,6365,2014-12-14 04:47:05:932
-0.2452,-9.7576,2.0986,1.6713,-9.5867,-1.2134,-1.9165,-0.3278,3.4101,-0.733,-0.6451,-0.6304,1494.0,-50.0,19.4,-37.4,256.44,77.84,-125.98,,51.84,,,,NaN,,,,0 / 0,6416,2014-12-14 04:47:05:983
-0.1471,-9.8459,2.1673,1.6742,-9.6098,-1.01,-1.9782,-0.3734,3.1577,-0.6891,-0.7428,-0.6829,1494.0,-49.5,19.0,-38.3,256.22,78.21,-124.59,,51.84,,,,NaN,,,,0 / 0,6465,2014-12-14 04:47:06:032
-0.2256,-9.8753,2.1084,1.671,-9.6127,-0.9868,-1.8966,-0.2626,3.0952,-0.6658,-0.6646,-0.7501,1494.0,-49.5,18.5,-37.4,256.22,78.21,-124.59,,51.84,,,,NaN,,,,0 / 0,6515,2014-12-14 04:47:06:082