ACCELEROMETER X (m/s²),ACCELEROMETER Y (m/s²),ACCELEROMETER Z (m/s²),GRAVITY X (m/s²),GRAVITY Y (m/s²),GRAVITY Z (m/s²),LINEAR ACCELERATION X (m/s²),LINEAR ACCELERATION Y (m/s²),LINEAR ACCELERATION Z (m/s²),GYROSCOPE X (rad/s),GYROSCOPE Y (rad/s),GYROSCOPE Z (rad/s),LIGHT (lux),MAGNETIC FIELD X (μT),MAGNETIC FIELD Y (μT),MAGNETIC FIELD Z (μT),ORIENTATION X (°),ORIENTATION Y (°),ORIENTATION Z (°),PROXIMITY (i),SOUND LEVEL (dB),LOCATION Latitude : ,LOCATION Longitude : ,LOCATION Altitude ( m),LOCATION Altitude-google ( m),LOCATION Speed ( Kmh),LOCATION Accuracy ( m),LOCATION ORIENTATION (°),Satellites in range,Time since start in ms ,YYYY-MO-DD HH-MI-SS_SSS
0.3923,-9.8459,1.8633,0.6884,-9.7006,1.263,-0.2962,-0.1453,0.6002,0.0281,0.0073,0.0244,1095.0,32.6,7.4,-3.0,294.79,81.57,-28.59,,47.424,,,,NaN,,,,0 / 0,16,2014-12-14 04:52:33:662
0.4217,-9.787,1.8338,0.6827,-9.697,1.2934,-0.261,-0.0901,0.5404,0.022,0.0037,0.0269,1095.0,33.1,7.4,-3.5,294.79,81.57,-28.59,,47.424,,,,NaN,,,,0 / 0,65,2014-12-14 04:52:33:711
0.4413,-9.6694,1.6966,0.6687,-9.6953,1.313,-0.2274,0.026,0.3836,-0.0305,-0.0134,0.0501,1095.0,33.1,7.4,-3.5,293.24,81.36,-26.99,,47.424,,,,NaN,,,,0 / 0,115,2014-12-14 04:52:33:761
0.5884,-9.7478,2.2849,0.7031,-9.681,1.3977,-0.1147,-0.0668,0.8873,0.0367,-0.1124,0.077,1095.0,33.1,7.4,-4.0,291.35,80.82,-26.7,,47.424,,,,NaN,,,,0 / 0,166,2014-12-14 04:52:33:812
0.5786,-9.6399,2.334,0.7065,-9.6706,1.4664,-0.1279,0.0307,0.8676,0.0379,-0.11,0.0843,1095.0,33.1,7.4,-4.0,291.35,80.82,-26.7,,41.018,,,,NaN,,,,0 / 0,215,2014-12-14 04:52:33:861
0.7747,-9.7184,2.5105,0.7134,-9.6602,1.5305,0.1201,-0.117,0.9898,0.044,-0.1478,0.0929,1095.0,33.5,7.0,-4.5,289.93,80.08,-24.99,,41.018,,,,NaN,,,,0 / 0,265,2014-12-14 04:52:33:911
0.3727,-9.3555,1.9515,0.8267,-9.6297,1.66,-0.454,0.2742,0.2915,-0.1063,-0.1197,0.1344,1095.0,33.5,6.6,-5.5,289.88,79.1,-26.47,,41.018,,,,NaN,,,,0 / 0,316,2014-12-14 04:52:33:962
0.2157,-9.3752,1.8338,0.8154,-9.6333,1.6448,-0.5996,0.2581,0.189,-0.1417,-0.1381,0.1393,1095.0,34.0,6.6,-5.5,289.88,79.1,-26.47,,41.018,,,,NaN,,,,0 / 0,365,2014-12-14 04:52:34:011
0.304,-9.7576,1.4906,0.7085,-9.6832,1.38,-0.6897,-0.2357,-0.1298,-0.2566,-0.1735,0.0354,1095.0,34.0,7.0,-5.0,289.39,79.73,-26.05,,41.018,,,,NaN,,,,0 / 0,415,2014-12-14 04:52:34:061
-0.353,-9.993,0.5099,0.646,-9.7295,1.0441,-1.6037,-0.2914,-0.3059,-0.3433,0.088,-0.0354,1095.0,33.5,7.0,-5.5,289.39,79.73,-26.05,,41.018,,,,NaN,,,,0 / 0,465,2014-12-14 04:52:34:111
-1.1278,-10.0028,-0.0098,0.4482,-9.7738,0.6644,-1.5759,-0.2289,-0.6742,-0.4093,0.121,-0.0819,1095.0,34.4,7.4,-4.5,298.21,84.84,-34.08,,41.018,,,,NaN,,,,0 / 0,515,2014-12-14 04:52:34:161
-0.5492,-10.0518,-0.5982,0.3134,-9.7965,0.316,-0.8626,-0.2553,-0.9142,-0.4618,0.171,-0.1564,1095.0,34.4,7.9,-3.5,298.21,84.84,-34.08,,41.018,,,,NaN,,,,0 / 0,566,2014-12-14 04:52:34:212
-0.5884,-10.1303,0.1177,0.3134,-9.7965,0.316,-0.8626,-0.2553,-0.9142,-0.4704,0.2199,-0.1454,971.0,34.4,7.9,-3.5,298.21,84.84,-34.08,,41.018,,,,NaN,,,,0 / 0,616,2014-12-14 04:52:34:262
-0.7649,-10.091,-0.049,0.2721,-9.7982,-0.3036,-0.9782,-0.2242,0.2154,-0.391,0.3164,-0.2358,971.0,33.5,10.0,-0.1,28.63,88.12,-120.57,,41.018,,,,NaN,,,,0 / 0,666,2014-12-14 04:52:34:312
-0.0883,-10.2185,-0.2648,0.3338,-9.7905,-0.4522,-0.4221,-0.428,0.1874,-0.1723,0.248,-0.3091,971.0,33.1,10.5,0.9,54.45,86.71,-143.57,,42.105,,,,NaN,,,,0 / 0,715,2014-12-14 04:52:34:361
0.2648,-10.1989,-0.2354,0.4156,-9.7839,-0.5219,-0.1606,-0.415,0.1002,-0.1491,0.1955,-0.3372,971.0,33.5,11.3,1.4,54.45,86.71,-143.57,,42.105,,,,NaN,,,,0 / 0,765,2014-12-14 04:52:34:411
0.3825,-10.2774,-0.1079,0.6534,-9.7689,-0.5591,-0.271,-0.5085,0.4512,0.0562,0.2773,-0.3971,971.0,33.1,12.2,0.9,41.19,84.97,-130.55,,42.105,,,,NaN,,,,0 / 0,815,2014-12-14 04:52:34:461
0.0883,-9.9636,-0.9709,0.8594,-9.7597,-0.4247,-0.7712,-0.2039,-0.5462,0.2773,0.3213,-0.2419,971.0,31.8,12.6,2.3,28.89,84.39,-116.3,,42.105,,,,NaN,,,,0 / 0,865,2014-12-14 04:52:34:511
2.3732,-9.5713,0.1079,0.8947,-9.7566,-0.4234,1.4785,0.1853,0.5313,0.2615,0.2138,-0.0916,971.0,30.9,12.6,2.8,29.78,84.21,-115.33,,42.105,,,,NaN,,,,0 / 0,915,2014-12-14 04:52:34:561
3.4617,-9.3457,1.5887,1.2514,-9.7224,-0.2823,2.2103,0.3766,1.871,0.1759,0.1124,-0.2077,971.0,31.8,13.1,1.9,29.78,84.21,-115.33,,42.105,,,,NaN,,,,0 / 0,965,2014-12-14 04:52:34:611
3.0499,-9.2869,1.7162,1.7437,-9.6504,0.0097,0.806,-0.4505,2.2654,0.0733,0.1625,-0.2101,971.0,30.9,13.5,2.3,12.11,81.87,-99.07,,42.105,,,,NaN,,,,0 / 0,1015,2014-12-14 04:52:34:661
2.2555,-10.601,2.1378,1.8544,-9.6288,0.1344,0.4011,-0.9722,2.0035,-0.0171,0.226,-0.1051,971.0,30.5,13.1,3.3,4.89,79.76,-89.68,,42.105,,,,NaN,,,,0 / 0,1065,2014-12-14 04:52:34:711
1.3925,-10.6991,1.5298,1.9125,-9.6123,0.3411,-0.52,-1.0868,1.1888,0.1539,0.2077,-0.0257,971.0,30.5,13.1,3.3,4.89,79.76,-89.68,,42.105,,,,NaN,,,,0 / 0,1115,2014-12-14 04:52:34:761
1.4122,-10.2774,2.7459,1.8466,-9.6101,0.6379,-0.4344,-0.6673,2.1079,0.4044,0.2456,-0.0538,971.0,30.9,13.5,3.3,347.35,78.51,-70.94,,48.027,,,,NaN,,,,0 / 0,1165,2014-12-14 04:52:34:811
3.4912,-8.9241,2.5595,1.9594,-9.4927,1.4901,1.4828,1.0492,0.3438,0.7782,-0.4826,-0.1491,1138.0,30.5,13.5,1.4,327.3,75.46,-52.75,,48.027,,,,NaN,,,,0 / 0,1215,2014-12-14 04:52:34:861
2.0594,-9.5615,2.3634,2.3415,-9.3542,1.7852,-0.2821,-0.2073,0.5782,0.3983,0.2896,-0.1295,1138.0,31.3,14.0,0.4,327.3,75.46,-52.75,,48.027,,,,NaN,,,,0 / 0,1265,2014-12-14 04:52:34:911
2.1673,-9.6497,2.5988,2.3346,-9.3463,1.8348,-0.1674,-0.3034,0.7639,0.4789,0.2285,-0.0403,1138.0,31.3,13.5,0.4,325.11,72.37,-51.84,,48.027,,,,NaN,,,,0 / 0,1316,2014-12-14 04:52:34:962
2.4811,-8.9142,2.5693,2.3689,-9.2714,2.1447,0.0043,0.4552,0.6502,0.3738,0.2272,0.0464,1138.0,31.8,13.1,-0.6,319.52,70.98,-47.84,,48.027,,,,NaN,,,,0 / 0,1365,2014-12-14 04:52:35:011
2.4811,-8.9142,2.5693,2.3689,-9.2714,2.1447,0.0043,0.4552,0.6502,0.3738,0.2272,0.0464,1138.0,31.8,13.1,-0.6,319.52,70.98,-47.84,,48.027,,,,NaN,,,,0 / 0,1415,2014-12-14 04:52:35:061
1.8338,-9.7674,4.7072,2.3212,-9.1865,2.5279,-0.0461,-0.5221,2.3067,0.7758,0.0244,0.0342,1138.0,32.6,12.6,-0.1,316.32,69.51,-42.56,,48.027,,,,NaN,,,,0 / 0,1466,2014-12-14 04:52:35:112
1.4808,-7.6296,4.0011,2.3856,-8.9621,3.1876,-0.6106,1.2835,0.7645,0.7294,-0.088,0.0525,1138.0,33.1,11.8,-2.5,307.87,66.05,-36.81,,48.027,,,,NaN,,,,0 / 0,1515,2014-12-14 04:52:35:161
2.5595,-7.1098,4.0501,2.3498,-8.7734,3.6981,0.2098,1.6636,0.3521,0.6316,-0.5877,0.0672,1138.0,33.5,11.3,-4.5,300.56,63.46,-32.43,,48.027,,,,NaN,,,,0 / 0,1565,2014-12-14 04:52:35:211
2.0594,-5.0602,3.0597,2.5712,-8.6836,3.7623,-0.502,4.2313,-0.6732,-0.0635,-0.1564,0.0904,1138.0,34.0,10.5,-6.4,300.56,63.46,-32.43,,55.699,,,,NaN,,,,0 / 0,1615,2014-12-14 04:52:35:261
6.1684,-4.4032,5.4329,2.6361,-8.7296,3.6075,3.5322,4.3265,1.8253,-0.9566,0.4484,0.1491,1138.0,35.3,10.5,-4.5,299.38,62.31,-34.35,,55.699,,,,NaN,,,,0 / 0,1665,2014-12-14 04:52:35:311
6.6391,-9.8655,3.5108,2.9277,-8.5583,3.7888,3.7114,-1.3072,-0.278,-0.8039,1.4881,0.1894,1138.0,36.6,10.9,-1.1,309.25,60.77,-37.69,,55.699,,,,NaN,,,,0 / 0,1715,2014-12-14 04:52:35:361
4.4816,-6.4332,-4.1188,2.916,-8.9893,2.619,1.5656,2.5562,-6.7378,-2.4117,3.9926,0.2285,1138.0,39.6,10.9,7.7,330.4,66.44,-48.07,,55.699,,,,NaN,,,,0 / 0,1765,2014-12-14 04:52:35:411
3.6481,-6.8156,-4.5797,2.9304,-9.0758,2.2832,-7.2647,-6.4347,-3.7592,-2.4117,3.9926,0.2285,1138.0,39.6,10.9,7.7,330.4,66.44,-48.07,,55.699,,,,NaN,,,,0 / 0,1815,2014-12-14 04:52:35:461
-2.7655,-12.2289,-3.7854,1.673,-9.3981,-2.2467,-4.4385,-2.8308,-1.5386,-3.2913,-0.5681,-1.6322,1138.0,36.6,10.9,37.5,51.87,76.16,-101.59,,55.699,,,,NaN,,,,0 / 0,1865,2014-12-14 04:52:35:511
-3.1381,-14.6217,-4.9916,1.6759,-9.2986,-2.6264,-4.8141,-5.3231,-2.3652,-3.6762,-0.4789,-1.5944,2089.0,36.1,10.9,39.4,100.29,71.48,-147.46,,55.699,,,,NaN,,,,0 / 0,1915,2014-12-14 04:52:35:561
-3.4912,-19.9173,7.6002,1.2712,-8.7864,-4.1657,-4.7624,-11.1309,11.7659,-2.5974,1.3048,1.0568,2089.0,32.2,6.1,47.7,124.01,63.63,-163.03,,55.699,,,,NaN,,,,0 / 0,1967,2014-12-14 04:52:35:613
-0.5394,-9.4242,9.8557,0.8631,-9.2674,-3.0887,-2.8071,-10.7263,14.4155,-2.4141,1.0091,0.9481,2089.0,32.6,5.7,48.7,124.01,63.63,-163.03,,55.699,,,,NaN,,,,0 / 0,2016,2014-12-14 04:52:35:662
-4.2659,-7.0314,8.8358,0.9377,-9.4225,-2.5509,-5.2036,2.3911,11.3867,0.496,-1.4807,-0.6548,2089.0,30.5,7.9,47.2,123.41,73.91,-159.82,,55.699,,,,NaN,,,,0 / 0,2065,2014-12-14 04:52:35:711
-3.1087,-6.6293,6.2566,-0.2399,-9.7999,-0.2739,-8.7494,3.3265,6.7829,1.6994,-0.507,-0.4753,825.0,28.7,10.5,44.8,123.41,73.91,-159.82,,55.699,,,,NaN,,,,0 / 0,2115,2014-12-14 04:52:35:761
-0.2452,-8.8456,2.1182,-0.3321,-9.7733,0.7371,0.087,0.9277,1.3811,3.5894,-2.6854,-0.2456,825.0,27.0,16.1,36.5,300.96,85.27,24.26,,65.571,,,,NaN,,,,0 / 0,2165,2014-12-14 04:52:35:811
1.9123,-14.9748,-2.0888,-0.2129,-9.6668,1.6364,2.1252,-5.3079,-3.7252,4.1514,-2.7538,-0.0428,825.0,27.0,17.9,32.1,300.96,85.27,24.26,,65.571,,,,NaN,,,,0 / 0,2216,2014-12-14 04:52:35:862
3.7363,-19.9565,-8.5024,-0.1878,-9.1711,3.4678,3.9241,-10.7854,-11.9702,4.7965,0.7184,2.3787,825.0,26.6,20.0,14.5,306.7,70.5,1.08,,65.571,,,,NaN,,,,0 / 0,2265,2014-12-14 04:52:35:911
-1.4514,-19.9958,-2.0104,-0.3239,-9.0538,3.7543,-1.1275,-10.942,-5.7647,4.2602,-2.3714,1.2877,825.0,27.9,17.4,5.3,287.46,67.4,4.93,,65.571,,,,NaN,,,,0 / 0,2315,2014-12-14 04:52:35:961
-1.8535,-9.0319,-5.6781,-0.2409,-8.8146,4.2913,-1.6125,-0.2174,-9.9694,3.0641,-2.8833,0.2981,2374.0,26.6,16.6,-1.6,287.46,67.4,4.93,,65.571,,,,NaN,,,,0 / 0,2365,2014-12-14 04:52:36:011
7.61,9.6399,-4.3345,0.4275,-9.0909,3.6529,7.1825,18.7308,-7.9874,-0.9664,-0.8711,-0.3861,2374.0,22.6,17.0,-6.9,271.45,67.02,-3.46,,65.571,,,,NaN,,,,0 / 0,2416,2014-12-14 04:52:36:062
5.5898,7.1589,-12.2877,2.7421,-9.0111,2.7298,2.8477,16.17,-15.0175,-2.5681,5.1862,0.3409,2374.0,24.8,19.6,2.3,327.51,66.76,-45.13,,65.571,,,,NaN,,,,0 / 0,2465,2014-12-14 04:52:36:111
4.4228,-15.367,-5.7565,3.3789,-9.0011,1.9322,2.7324,-8.5886,-13.2939,-2.6805,4.1575,-0.3213,2374.0,25.7,20.5,12.1,327.51,66.76,-45.13,,65.571,,,,NaN,,,,0 / 0,2515,2014-12-14 04:52:36:161
-3.0401,-13.6901,-8.7083,3.6139,-9.11,0.3435,-8.1404,4.5243,-3.0411,-2.4471,3.2522,-1.3708,2374.0,23.1,22.2,22.8,33.39,68.27,-84.57,,65.571,,,,NaN,,,,0 / 0,2566,2014-12-14 04:52:36:212
-8.5122,-9.1888,-10.1401,3.6139,-9.11,0.3435,-8.1404,4.5243,-3.0411,-2.4471,3.2522,-1.3708,2374.0,23.1,22.2,22.8,33.39,68.27,-84.57,,65.571,,,,NaN,,,,0 / 0,2615,2014-12-14 04:52:36:261
-8.5514,-18.6522,-7.8061,3.2066,-8.1056,-4.493,-11.758,-10.5466,-3.3131,-3.6127,2.2859,-0.3005,2374.0,14.8,22.2,40.9,75.65,63.14,-122.99,,65.571,,,,NaN,,,,0 / 0,2665,2014-12-14 04:52:36:311
0.6963,-15.8966,15.4455,2.279,-8.4988,-4.3298,-0.3765,-3.1613,16.1959,0.1906,-1.8619,-0.722,1212.0,16.1,20.0,43.3,115.82,60.07,-152.24,,71.973,,,,NaN,,,,0 / 0,2715,2014-12-14 04:52:36:361
-9.8165,-7.7473,9.5909,2.5143,-8.9027,-3.2542,-12.3307,1.1555,12.8451,2.0171,-0.3922,-0.1344,1212.0,13.1,23.5,40.9,115.82,60.07,-152.24,,71.973,,,,NaN,,,,0 / 0,2765,2014-12-14 04:52:36:411
-9.8165,-7.7473,9.5909,2.5143,-8.9027,-3.2542,-12.3307,1.1555,12.8451,2.0171,-0.3922,-0.1344,1212.0,13.1,23.5,40.9,115.82,60.07,-152.24,,71.973,,,,NaN,,,,0 / 0,2816,2014-12-14 04:52:36:462
-3.2362,-16.5732,-3.7559,2.0206,-9.307,-2.3384,-5.2568,-7.2663,-1.4176,3.7312,-2.3335,0.5217,1212.0,16.6,26.6,28.2,91.93,71.63,-139.17,,71.973,,,,NaN,,,,0 / 0,2865,2014-12-14 04:52:36:511
3.6285,-19.9467,-13.0036,0.8538,-9.7567,-0.4986,2.7746,-10.19,-12.505,4.4324,0.6182,1.6188,1212.0,20.5,24.8,10.1,51.04,84.21,-120.28,,71.973,,,,NaN,,,,0 / 0,2915,2014-12-14 04:52:36:561
-2.0202,-11.7484,-5.4329,0.2051,-9.803,0.1709,-1.6565,-4.4264,-5.3586,2.8442,-3.5039,1.4001,1212.0,23.1,20.0,0.9,51.04,84.21,-120.28,,71.973,,,,NaN,,,,0 / 0,2965,2014-12-14 04:52:36:611
1.6573,3.4716,-5.0504,-0.1833,-9.8028,0.2068,1.8406,13.2743,-5.2572,0.0415,-1.9609,0.4753,1212.0,20.9,15.7,-8.9,205.76,88.39,41.55,,71.973,,,,NaN,,,,0 / 0,3015,2014-12-14 04:52:36:661
4.9426,7.1981,-6.0311,0.086,-9.7719,-0.8198,4.8565,16.97,-5.2113,-1.3561,-2.1087,-0.4826,1212.0,18.3,15.7,-9.4,54.42,85.18,-174.01,,71.973,,,,NaN,,,,0 / 0,3065,2014-12-14 04:52:36:711
6.3449,-3.246,0.304,0.9179,-9.5661,-1.9537,5.427,6.3201,2.2577,-0.3567,0.5119,0.1185,2133.0,17.0,15.7,-9.4,54.42,85.18,-174.01,,71.973,,,,NaN,,,,0 / 0,3115,2014-12-14 04:52:36:761
10.6206,3.1774,-0.2452,2.3065,-9.5182,-0.5037,8.3141,12.6956,0.2586,0.981,2.7416,0.9493,2133.0,20.5,12.2,-7.9,359.29,77.2,-113.45,,71.973,,,,NaN,,,,0 / 0,3166,2014-12-14 04:52:36:812
5.58,7.0706,-13.6705,2.91,-9.3594,-0.3224,2.67,16.43,-13.348,-1.069,4.0073,0.9444,2133.0,21.8,10.9,-5.5,354.11,72.63,-96.32,,71.973,,,,NaN,,,,0 / 0,3215,2014-12-14 04:52:36:861
-8.6887,2.0594,5.6879,3.5073,-8.924,-2.0569,-12.196,10.9834,7.7448,-3.9731,2.8833,2.5913,2133.0,24.8,10.5,2.3,354.11,72.63,-96.32,,72.428,,,,NaN,,,,0 / 0,3265,2014-12-14 04:52:36:911
10.3852,2.8832,-8.1493,3.4555,-8.8831,-2.3065,6.9297,11.7663,-5.8429,1.3781,2.9993,-1.1851,2133.0,24.8,11.3,7.7,46.52,64.93,-123.72,,72.428,,,,NaN,,,,0 / 0,3315,2014-12-14 04:52:36:961
-9.8949,-14.5727,-15.7593,5.3922,-4.6338,-6.7544,-15.2871,-9.9389,-9.0049,-9.9571,-2.0232,-1.6616,2133.0,19.6,16.6,16.0,59.29,33.25,-137.42,,72.428,,,,NaN,,,,0 / 0,3366,2014-12-14 04:52:37:012
-0.9218,-17.2597,9.7968,5.085,-5.2567,-6.533,-6.0068,-12.003,16.3299,-4.3811,3.2669,-0.2578,1271.0,15.3,17.4,27.2,71.72,28.2,-141.4,,72.428,,,,NaN,,,,0 / 0,3415,2014-12-14 04:52:37:061
-5.325,-4.5013,5.7467,5.3423,-6.2859,-5.3026,-10.6673,1.7847,11.0493,0.1527,1.2767,-0.8406,1271.0,11.8,16.1,32.6,84.91,39.87,-134.79,,72.428,,,,NaN,,,,0 / 0,3466,2014-12-14 04:52:37:112
-8.571,-7.3844,4.4914,4.9209,-7.1559,-4.5551,-13.4919,-0.2286,9.0465,1.3977,-0.2737,0.0232,1271.0,9.2,16.1,33.1,84.91,39.87,-134.79,,72.428,,,,NaN,,,,0 / 0,3515,2014-12-14 04:52:37:161
-0.2059,-5.325,4.2561,3.5993,-8.3481,-3.6777,-4.4427,3.4545,9.9539,3.2742,-2.8356,0.5278,1271.0,12.6,17.4,27.2,89.52,58.35,-135.62,,72.428,,,,NaN,,,,0 / 0,3565,2014-12-14 04:52:37:211
-1.5985,-18.7895,-5.5702,2.1913,-9.4078,-1.6918,-3.7898,-9.3818,-3.8784,3.6237,-2.1466,1.6139,1271.0,14.0,17.0,26.2,89.52,58.35,-135.62,,72.428,,,,NaN,,,,0 / 0,3615,2014-12-14 04:52:37:261
-2.6184,-9.8459,-2.687,-0.1311,-9.8013,0.297,3.6386,-10.1946,-11.988,4.0451,-0.1124,1.7251,1271.0,20.5,17.0,16.5,75.42,79.36,-132.75,,72.428,,,,NaN,,,,0 / 0,3665,2014-12-14 04:52:37:311
2.4026,1.0689,-4.1482,-0.3492,-9.7985,0.1922,3.1591,10.9694,-4.1153,-0.3812,-1.3561,-0.2786,3064.0,25.7,13.1,0.9,242.31,87.21,38.17,,73.4,,,,NaN,,,,0 / 0,3715,2014-12-14 04:52:37:361
6.2665,2.4124,-3.9325,1.0214,-9.682,-1.1772,5.2451,12.0944,-2.7552,0.0733,-0.5803,-0.6267,3064.0,23.1,14.8,-2.1,40.58,80.86,-139.06,,73.4,,,,NaN,,,,0 / 0,3766,2014-12-14 04:52:37:412
6.6195,0.4413,-1.6867,1.3196,-9.6233,-1.3493,8.3063,9.2317,5.776,0.7159,3.1337,0.5901,3064.0,24.4,14.8,-1.1,40.58,80.86,-139.06,,73.4,,,,NaN,,,,0 / 0,3815,2014-12-14 04:52:37:461
1.9319,-6.1488,0.8434,3.0144,-9.3015,-0.7522,-1.0825,3.1527,1.5955,-0.8393,5.8704,1.5235,2221.0,27.9,14.0,5.8,23.61,71.53,-104.01,,73.4,,,,NaN,,,,0 / 0,3865,2014-12-14 04:52:37:511
2.432,1.0493,-12.1112,3.6821,-8.723,-2.5538,-1.25,9.7723,-9.5575,-3.5027,1.9902,-2.5632,2221.0,25.7,16.6,18.9,60.61,62.81,-124.74,,73.4,,,,NaN,,,,0 / 0,3915,2014-12-14 04:52:37:561
2.432,1.0493,-12.1112,3.6821,-8.723,-2.5538,-1.25,9.7723,-9.5575,-3.5027,1.9902,-2.5632,2221.0,25.7,16.6,18.9,60.61,62.81,-124.74,,73.4,,,,NaN,,,,0 / 0,3965,2014-12-14 04:52:37:611
-2.383,-19.4368,11.7876,4.195,-5.8758,-6.6368,-12.1874,-13.355,8.961,-3.1753,3.1594,-2.4422,2221.0,18.7,20.0,31.1,78.91,36.81,-147.7,,73.4,,,,NaN,,,,0 / 0,4016,2014-12-14 04:52:37:662
-3.1479,-3.2558,5.5506,4.2949,-7.5016,-4.6315,-7.4428,4.2458,10.1821,0.4386,1.653,-0.7587,1491.0,14.8,17.9,39.9,93.15,44.33,-144.79,,73.4,,,,NaN,,,,0 / 0,4065,2014-12-14 04:52:37:711
-4.6582,-2.128,3.1577,4.4748,-7.7076,-4.0914,-9.1329,5.5796,7.2492,1.3415,-0.2285,0.0,1491.0,12.6,19.2,38.4,91.35,51.81,-132.44,,73.4,,,,NaN,,,,0 / 0,4115,2014-12-14 04:52:37:761
-1.0199,-6.3939,-0.5982,3.5563,-8.7566,-2.6162,-4.5762,2.3627,2.018,2.2773,-0.6487,0.5278,1491.0,13.5,19.2,33.6,88.98,63.24,-126.34,,73.4,,,,NaN,,,,0 / 0,4165,2014-12-14 04:52:37:811
-1.8829,-18.3679,-2.9812,2.6499,-9.3395,-1.3863,-4.5328,-9.0283,-1.5949,3.4111,-1.0971,1.2034,1491.0,13.5,18.7,26.2,88.98,63.24,-126.34,,72.703,,,,NaN,,,,0 / 0,4216,2014-12-14 04:52:37:862
-2.079,-19.1818,-3.7069,2.2344,-9.4784,-1.1566,-4.3134,-9.7034,-2.5503,3.5772,-1.9316,2.1429,1491.0,14.8,18.3,23.8,76.39,75.13,-117.37,,72.703,,,,NaN,,,,0 / 0,4266,2014-12-14 04:52:37:912
-2.079,-19.1818,-3.7069,2.2344,-9.4784,-1.1566,-4.3134,-9.7034,-2.5503,3.5772,-1.9316,2.1429,1491.0,14.8,18.3,23.8,76.39,75.13,-117.37,,72.703,,,,NaN,,,,0 / 0,4315,2014-12-14 04:52:37:961
2.0202,-19.986,-10.8265,0.6492,-9.7848,0.0814,-0.2569,-10.211,-10.2215,3.8387,-2.8234,2.6218,1491.0,18.7,15.3,13.6,28.15,86.17,-82.85,,72.703,,,,NaN,,,,0 / 0,4365,2014-12-14 04:52:38:011
4.2953,3.1381,-5.7369,-0.1191,-9.8034,-0.2239,4.4145,12.9415,-5.5129,0.2187,-0.0733,0.5082,2774.0,20.0,13.1,0.9,28.15,86.17,-82.85,,72.703,,,,NaN,,,,0 / 0,4416,2014-12-14 04:52:38:062
4.5209,4.8053,1.4318,1.8347,-9.5446,-1.3056,2.6862,14.3499,2.7374,0.38,-1.6481,-0.3702,2774.0,14.4,17.9,-4.5,15.52,76.73,-125.44,,72.703,,,,NaN,,,,0 / 0,4465,2014-12-14 04:52:38:111
8.5416,-10.0616,7.5707,2.6313,-9.4149,0.7793,5.9103,-0.6468,6.7914,-0.9175,3.4025,2.0317,2371.0,14.4,20.5,-5.0,333.25,73.75,-73.5,,72.703,,,,NaN,,,,0 / 0,4515,2014-12-14 04:52:38:161
8.5416,-10.0616,7.5707,2.6313,-9.4149,0.7793,5.9103,-0.6468,6.7914,-0.9175,3.4025,2.0317,2371.0,14.4,20.5,-5.0,333.25,73.75,-73.5,,72.703,,,,NaN,,,,0 / 0,4565,2014-12-14 04:52:38:211
0.6767,5.1093,-5.4133,3.1312,-9.2933,-0.0242,-2.4546,14.4026,-5.389,-0.9029,0.193,-1.003,2371.0,15.7,26.1,-1.6,341.92,73.53,-72.51,,72.703,,,,NaN,,,,0 / 0,4615,2014-12-14 04:52:38:261
-3.246,4.0796,-9.1888,3.6631,-9.0414,-1.003,-6.9091,13.1209,-8.1859,-2.9199,-3.0788,-1.9853,2371.0,13.5,29.2,-1.6,4.18,67.21,-105.31,,72.703,,,,NaN,,,,0 / 0,4665,2014-12-14 04:52:38:311
-0.1275,-14.8178,11.4247,3.0716,-8.8597,-2.8706,-3.1991,-5.9581,14.2954,0.0452,-1.2315,-1.7764,2371.0,7.0,36.6,4.8,4.18,67.21,-105.31,,72.703,,,,NaN,,,,0 / 0,4715,2014-12-14 04:52:38:361
6.1292,-13.2096,10.9148,2.9538,-8.9999,-2.5392,3.1754,-4.2097,13.454,-0.6903,0.3054,-1.0983,2371.0,6.1,37.4,3.8,22.85,66.6,-130.68,,73.344,,,,NaN,,,,0 / 0,4765,2014-12-14 04:52:38:411
-3.3637,-2.1378,1.167,4.1139,-8.8892,-0.4787,-7.4775,6.7513,1.6457,-0.0635,2.3433,-0.7709,2371.0,0.5,44.8,5.3,18.51,65.64,-99.24,,73.344,,,,NaN,,,,0 / 0,4815,2014-12-14 04:52:38:461
-3.805,0.1765,3.2068,3.8529,-9.0102,0.377,-7.6579,9.1867,2.8298,0.5266,1.5968,-1.0104,2371.0,-6.5,51.8,9.7,33.47,66.75,-84.41,,73.344,,,,NaN,,,,0 / 0,4865,2014-12-14 04:52:38:511
-3.805,0.1765,3.2068,3.8529,-9.0102,0.377,-7.6579,9.1867,2.8298,0.9505,0.6756,-0.7721,2371.0,-6.5,51.8,9.7,33.47,66.75,-84.41,,73.344,,,,NaN,,,,0 / 0,4915,2014-12-14 04:52:38:561
-1.8633,-4.5993,3.8638,3.7654,-9.0221,0.7713,-5.6286,4.4227,3.0925,0.9505,0.6756,-0.7721,2371.0,-8.7,53.1,10.6,40.58,66.93,-78.42,,73.344,,,,NaN,,,,0 / 0,4965,2014-12-14 04:52:38:611
-0.5982,-8.7573,-2.383,0.6578,-9.7097,1.2081,-1.256,0.9524,-3.5911,0.7685,-2.375,0.7917,3315.0,6.6,45.7,5.3,345.1,81.94,-28.57,,73.344,,,,NaN,,,,0 / 0,5365,2014-12-14 04:52:39:011
-0.5982,-8.7573,-2.383,0.6578,-9.7097,1.2081,-1.256,0.9524,-3.5911,0.7685,-2.375,0.7917,3315.0,6.6,45.7,5.3,345.1,81.94,-28.57,,73.344,,,,NaN,,,,0 / 0,5367,2014-12-14 04:52:39:013
-0.5982,-8.7573,-2.383,0.6578,-9.7097,1.2081,-1.256,0.9524,-3.5911,0.7685,-2.375,0.7917,3315.0,6.6,45.7,5.3,345.1,81.94,-28.57,,73.344,,,,NaN,,,,0 / 0,5368,2014-12-14 04:52:39:014
-0.5982,-8.7573,-2.383,0.6578,-9.7097,1.2081,-1.256,0.9524,-3.5911,0.7685,-2.375,0.7917,3315.0,6.6,45.7,5.3,345.1,81.94,-28.57,,73.344,,,,NaN,,,,0 / 0,5370,2014-12-14 04:52:39:016
-0.5982,-8.7573,-2.383,0.6578,-9.7097,1.2081,-1.256,0.9524,-3.5911,0.7685,-2.375,0.7917,3315.0,6.6,45.7,5.3,345.1,81.94,-28.57,,73.344,,,,NaN,,,,0 / 0,5372,2014-12-14 04:52:39:018
-0.5982,-8.7573,-2.383,0.6578,-9.7097,1.2081,-1.256,0.9524,-3.5911,0.7685,-2.375,0.7917,3315.0,6.6,45.7,5.3,345.1,81.94,-28.57,,73.344,,,,NaN,,,,0 / 0,5375,2014-12-14 04:52:39:021
-0.5982,-8.7573,-2.383,0.6578,-9.7097,1.2081,-1.256,0.9524,-3.5911,0.7685,-2.375,0.7917,3315.0,6.6,45.7,5.3,345.1,81.94,-28.57,,73.344,,,,NaN,,,,0 / 0,5377,2014-12-14 04:52:39:023
-0.5982,-8.7573,-2.383,0.6578,-9.7097,1.2081,-1.256,0.9524,-3.5911,0.7685,-2.375,0.7917,3315.0,6.6,45.7,5.3,345.1,81.94,-28.57,,73.344,,,,NaN,,,,0 / 0,5378,2014-12-14 04:52:39:024
-0.5982,-8.7573,-2.383,0.6578,-9.7097,1.2081,-1.256,0.9524,-3.5911,0.7685,-2.375,0.7917,3315.0,6.6,45.7,5.3,345.1,81.94,-28.57,,73.344,,,,NaN,,,,0 / 0,5415,2014-12-14 04:52:39:061
-0.2256,-3.9423,-2.7164,0.5346,-9.7381,1.0262,-0.7602,5.7959,-3.7426,0.1894,-2.441,0.4154,3315.0,7.4,44.4,5.8,345.91,83.22,-27.52,,68.668,,,,NaN,,,,0 / 0,5465,2014-12-14 04:52:39:111
-4.9818,-13.337,2.9126,0.2417,-9.7765,-0.7289,-5.2235,-3.5605,3.6415,-0.5473,-1.5907,0.5143,1584.0,19.6,29.6,-6.4,50.84,85.51,-161.66,,68.668,,,,NaN,,,,0 / 0,5515,2014-12-14 04:52:39:161
0.4903,-7.8257,1.9319,-0.3916,-9.7836,-0.5466,0.8819,1.9579,2.4785,-0.7624,-1.4746,0.5571,1584.0,19.6,29.6,-6.0,103.38,86.07,144.38,,68.668,,,,NaN,,,,0 / 0,5565,2014-12-14 04:52:39:211
0.4413,-10.2087,1.5593,-0.4084,-9.7853,-0.5016,0.8497,-0.4234,2.0609,-0.7624,-1.4746,0.5571,1584.0,19.6,29.6,-6.0,103.38,86.07,144.38,,68.668,,,,NaN,,,,0 / 0,5615,2014-12-14 04:52:39:261
0.8336,-9.6792,1.5495,-0.3499,-9.7921,-0.4035,1.1835,0.1129,1.9529,-0.369,-0.5278,0.4178,1584.0,18.7,29.6,-7.4,102.39,86.61,139.93,,68.668,,,,NaN,,,,0 / 0,5665,2014-12-14 04:52:39:311
-0.3432,-9.4242,1.0101,-0.3813,-9.7964,-0.2351,0.038,0.3722,1.2452,-0.2248,-0.6414,0.4105,873.0,20.0,28.7,-8.4,123.57,87.38,121.66,,68.668,,,,NaN,,,,0 / 0,5715,2014-12-14 04:52:39:361
-0.3825,-9.3359,1.1376,-0.3828,-9.7967,-0.2222,0.2062,0.549,1.5559,-0.2089,-0.518,0.1026,873.0,19.6,28.7,-8.4,123.57,87.38,121.66,,68.668,,,,NaN,,,,0 / 0,5766,2014-12-14 04:52:39:412
0.3334,-9.8851,1.3533,-0.31,-9.8003,-0.1683,0.6434,-0.0848,1.5216,-0.1881,-0.3738,0.0354,873.0,19.2,29.2,-8.9,123.78,87.94,118.49,,68.668,,,,NaN,,,,0 / 0,5816,2014-12-14 04:52:39:462
0.2354,-10.395,1.7848,-0.2134,-9.8039,-0.0926,0.5696,-0.4648,1.7941,-0.1222,-0.3702,0.0428,873.0,19.6,29.2,-9.9,123.78,87.94,118.49,,68.668,,,,NaN,,,,0 / 0,5865,2014-12-14 04:52:39:511
0.2354,-10.395,1.7848,-0.2134,-9.8039,-0.0926,-0.4044,-0.4228,1.2548,-0.11,-0.1881,0.0611,873.0,18.7,29.2,-8.9,129.75,88.64,113.45,,69.588,,,,NaN,,,,0 / 0,5915,2014-12-14 04:52:39:561
-0.3628,-10.0028,1.3239,-0.1927,-9.8031,0.1794,-0.1701,-0.1997,1.1445,-0.0623,-0.2236,0.0305,873.0,18.7,29.2,-8.4,190.4,88.72,54.57,,69.588,,,,NaN,,,,0 / 0,5965,2014-12-14 04:52:39:611
-0.3628,-10.0028,1.3239,-0.1927,-9.8031,0.1794,-0.1701,-0.1997,1.1445,-0.0623,-0.2236,0.0305,873.0,18.7,29.2,-8.4,190.4,88.72,54.57,,69.588,,,,NaN,,,,0 / 0,6016,2014-12-14 04:52:39:662
-0.4707,-10.5225,1.4612,-0.1493,-9.8024,0.2485,-0.3215,-0.7202,1.2127,-0.0464,-0.3592,-0.0562,741.0,18.3,29.2,-8.9,213.82,88.31,30.99,,69.588,,,,NaN,,,,0 / 0,6065,2014-12-14 04:52:39:711
0.0686,-10.0028,1.5004,0.178,-9.7953,0.4359,-0.1093,-0.2074,1.0646,-0.0672,-0.0611,0.0037,741.0,18.3,29.6,-8.9,269.75,87.25,-22.21,,69.588,,,,NaN,,,,0 / 0,6115,2014-12-14 04:52:39:761
0.2256,-9.7086,1.1964,0.2902,-9.7916,0.4593,-0.0647,0.083,0.7371,-0.1332,0.0635,-0.0183,741.0,17.9,29.6,-8.9,269.75,87.25,-22.21,,69.588,,,,NaN,,,,0 / 0,6166,2014-12-14 04:52:39:812
0.2059,-9.8851,1.3043,0.3048,-9.7914,0.4535,-0.0989,-0.0937,0.8508,-0.1258,0.0611,0.0037,741.0,18.3,30.0,-7.9,284.64,86.81,-33.91,,69.588,,,,NaN,,,,0 / 0,6215,2014-12-14 04:52:39:861
0.1765,-9.6497,1.4416,0.3748,-9.786,0.5131,-0.1983,0.1363,0.9285,-0.0965,-0.066,-0.0061,741.0,17.9,29.6,-8.4,284.64,86.81,-33.91,,69.588,,,,NaN,,,,0 / 0,6265,2014-12-14 04:52:39:911
0.1275,-9.9734,1.3435,0.3837,-9.7845,0.5349,-0.2562,-0.1888,0.8086,-0.0965,-0.0024,0.0281,741.0,17.9,30.0,-8.4,287.56,86.29,-36.15,,69.588,,,,NaN,,,,0 / 0,6316,2014-12-14 04:52:39:962
0.2059,-9.8655,1.7064,0.3846,-9.783,0.561,-0.3748,-0.0628,0.7433,-0.0379,0.0134,0.0452,741.0,17.9,30.0,-7.9,287.56,86.29,-36.15,,63.264,,,,NaN,,,,0 / 0,6365,2014-12-14 04:52:40:011
-0.049,-9.8851,1.0591,0.388,-9.7814,0.5858,-0.437,-0.1037,0.4733,-0.022,0.0501,0.022,741.0,17.9,30.5,-7.4,288.5,85.89,-33.52,,63.264,,,,NaN,,,,0 / 0,6415,2014-12-14 04:52:40:061
-0.0392,-9.9538,1.3239,0.3752,-9.7817,0.59,-0.4144,-0.1721,0.7339,0.0134,0.0476,0.0269,741.0,18.3,30.5,-6.9,287.44,85.91,-32.45,,63.264,,,,NaN,,,,0 / 0,6465,2014-12-14 04:52:40:111
-0.0392,-9.9243,1.2847,0.3562,-9.7806,0.6191,-0.3954,-0.1437,0.6656,0.0244,0.0342,0.022,741.0,18.3,30.0,-7.9,282.16,85.82,-29.91,,63.264,,,,NaN,,,,0 / 0,6516,2014-12-14 04:52:40:162
-0.0098,-9.8851,1.3827,0.3072,-9.779,0.6687,-0.317,-0.1061,0.714,0.0501,-0.0501,-0.011,741.0,17.9,30.9,-6.4,282.16,85.82,-29.91,,63.264,,,,NaN,,,,0 / 0,6565,2014-12-14 04:52:40:211
-0.1569,-9.9832,1.2553,0.3192,-9.7743,0.7288,-0.4761,-0.2089,0.5264,0.0293,0.0916,0.0269,741.0,18.3,30.5,-7.4,280.22,85.7,-24.67,,63.264,,,,NaN,,,,0 / 0,6615,2014-12-14 04:52:40:261
-0.1373,-10.042,1.2847,0.3211,-9.7743,0.7288,-0.4584,-0.2678,0.5558,0.0415,0.033,0.0073,741.0,18.3,30.0,-6.9,279.66,85.34,-23.78,,63.264,,,,NaN,,,,0 / 0,6666,2014-12-14 04:52:40:312