ACCELEROMETER X (m/s²),ACCELEROMETER Y (m/s²),ACCELEROMETER Z (m/s²),GRAVITY X (m/s²),GRAVITY Y (m/s²),GRAVITY Z (m/s²),LINEAR ACCELERATION X (m/s²),LINEAR ACCELERATION Y (m/s²),LINEAR ACCELERATION Z (m/s²),GYROSCOPE X (rad/s),GYROSCOPE Y (rad/s),GYROSCOPE Z (rad/s),LIGHT (lux),MAGNETIC FIELD X (μT),MAGNETIC FIELD Y (μT),MAGNETIC FIELD Z (μT),ORIENTATION X (°),ORIENTATION Y (°),ORIENTATION Z (°),PROXIMITY (i),SOUND LEVEL (dB),LOCATION Latitude : ,LOCATION Longitude : ,LOCATION Altitude ( m),LOCATION Altitude-google ( m),LOCATION Speed ( Kmh),LOCATION Accuracy ( m),LOCATION ORIENTATION (°),Satellites in range,Time since start in ms ,YYYY-MO-DD HH-MI-SS_SSS
1.1768,-9.3654,2.6968,-1.0431,-8.8333,4.1298,2.2885,-0.4634,-1.4134,0.7489,1.2058,0.6487,1974.0,-40.0,35.5,-47.1,108.25,64.26,14.17,,58.289,,,,NaN,,,,0 / 0,8,2014-12-14 04:49:30:719
1.3043,-9.4732,2.7949,-1.0266,-8.8404,4.1188,2.3309,-0.6329,-1.3239,0.7379,1.2058,0.6329,1974.0,-40.8,35.9,-46.6,107.97,64.35,14.0,,58.289,,,,NaN,,,,0 / 0,58,2014-12-14 04:49:30:769
1.3631,-9.5419,2.7164,-1.0018,-8.8455,4.1139,2.3649,-0.6964,-1.3974,0.7428,1.2132,0.628,1974.0,-40.4,35.5,-47.1,107.97,64.35,14.0,,58.289,,,,NaN,,,,0 / 0,109,2014-12-14 04:49:30:820
1.2553,-9.2869,3.0106,-0.9499,-8.8536,4.1088,2.2051,-0.4333,-1.0981,0.6597,1.1875,0.639,1974.0,-40.4,35.9,-47.1,109.45,64.59,13.29,,58.289,,,,NaN,,,,0 / 0,158,2014-12-14 04:49:30:869
1.2356,-9.3555,3.1087,-0.9437,-8.8524,4.1128,2.1849,-0.5621,-0.9661,0.6597,1.1875,0.639,1974.0,-40.4,35.9,-47.1,109.45,64.59,13.29,,40.232,,,,NaN,,,,0 / 0,209,2014-12-14 04:49:30:920
1.3239,-9.4732,2.9028,-0.8406,-8.8435,4.1542,2.3268,-0.647,-1.202,0.7416,1.1594,0.6206,1974.0,-40.8,35.9,-46.1,110.12,64.46,12.53,,40.232,,,,NaN,,,,0 / 0,258,2014-12-14 04:49:30:969
1.3925,-9.3555,2.589,-0.8237,-8.8465,4.1511,2.1365,-0.5916,-1.471,0.7355,1.1863,0.6304,1974.0,-40.8,36.3,-46.6,110.9,64.43,11.22,,40.232,,,,NaN,,,,0 / 0,309,2014-12-14 04:49:31:020
1.3631,-9.4634,2.5203,-0.7765,-8.8903,4.0658,2.1396,-0.5731,-1.5455,0.7025,1.2034,0.617,1974.0,-41.3,35.5,-44.7,110.23,64.51,11.14,,40.232,,,,NaN,,,,0 / 0,358,2014-12-14 04:49:31:069
1.3631,-9.4634,2.5203,-0.7765,-8.8903,4.0658,2.1396,-0.5731,-1.5455,0.7025,1.2034,0.617,1974.0,-41.3,35.5,-44.7,110.23,64.51,11.14,,40.232,,,,NaN,,,,0 / 0,408,2014-12-14 04:49:31:119
1.1768,-9.5419,2.6086,-0.7403,-8.9106,4.0278,1.9171,-0.6312,-1.4192,0.6829,1.1533,0.6158,1974.0,-41.3,35.9,-45.7,111.68,65.32,10.41,,40.232,,,,NaN,,,,0 / 0,458,2014-12-14 04:49:31:169
1.422,-8.9731,2.4713,-0.6822,-8.9317,3.9913,2.1042,-0.0414,-1.52,0.6243,1.1631,0.5901,1974.0,-41.7,35.9,-43.7,111.68,65.32,10.41,,40.232,,,,NaN,,,,0 / 0,508,2014-12-14 04:49:31:219
1.5102,-8.6985,2.8832,-0.63,-8.9619,3.9317,2.1402,0.2634,-1.0485,0.5046,1.2388,0.5864,1974.0,-42.1,35.9,-43.7,110.99,65.61,9.7,,40.232,,,,NaN,,,,0 / 0,559,2014-12-14 04:49:31:270
1.2847,-9.2379,3.2852,-0.63,-8.9619,3.9317,2.1402,0.2634,-1.0485,0.5046,1.2388,0.5864,1974.0,-42.1,35.9,-43.7,110.99,65.61,9.7,,36.751,,,,NaN,,,,0 / 0,608,2014-12-14 04:49:31:319
0.1765,-9.9832,4.2365,-0.6184,-8.9247,4.0173,0.7949,-1.0585,0.2192,0.6903,1.113,0.7196,1974.0,-41.7,35.9,-43.2,110.47,65.51,8.75,,36.751,,,,NaN,,,,0 / 0,659,2014-12-14 04:49:31:370
-0.3727,-9.2967,4.4228,-0.8806,-8.8311,4.172,0.5079,-0.4656,0.2508,0.5278,1.157,0.7379,1974.0,-41.7,36.8,-41.3,103.86,64.23,11.92,,36.751,,,,NaN,,,,0 / 0,709,2014-12-14 04:49:31:420
2.5007,-8.9044,4.4032,-0.9279,-8.6938,4.4416,3.4286,-0.2107,-0.0384,0.9187,0.5559,0.5767,1974.0,-41.7,36.8,-40.8,102.36,62.44,11.8,,36.751,,,,NaN,,,,0 / 0,759,2014-12-14 04:49:31:470
2.991,-9.1986,4.2267,-0.6575,-8.5617,4.7367,3.6486,-0.637,-0.51,0.9212,0.4288,0.7501,1974.0,-42.1,36.8,-40.3,103.73,60.81,7.9,,36.751,,,,NaN,,,,0 / 0,809,2014-12-14 04:49:31:520
1.5691,-9.9734,5.0112,-0.5117,-8.4624,4.9291,2.0807,-1.5109,0.0821,1.0104,1.1753,0.9297,1974.0,-41.7,36.8,-39.3,103.73,60.81,7.9,,36.751,,,,NaN,,,,0 / 0,859,2014-12-14 04:49:31:570
1.9613,-9.3654,6.2174,-0.6197,-8.2717,5.2312,2.5614,-1.2506,0.5547,1.5589,1.0091,0.9529,1974.0,-40.4,37.2,-40.8,104.94,59.65,5.93,,36.751,,,,NaN,,,,0 / 0,909,2014-12-14 04:49:31:620
1.9613,-9.3654,6.2174,-0.6197,-8.2717,5.2312,2.5614,-1.2506,0.5547,1.5589,1.0091,0.9529,1974.0,-40.4,37.2,-40.8,104.94,59.65,5.93,,36.751,,,,NaN,,,,0 / 0,959,2014-12-14 04:49:31:670
2.7066,-7.0706,6.8548,-0.5858,-7.4624,6.3356,3.2925,0.3918,0.5193,2.5815,1.1985,0.7819,2457.0,-40.4,35.5,-43.7,99.29,49.55,5.28,,55.508,,,,NaN,,,,0 / 0,1008,2014-12-14 04:49:31:719
0.0883,-8.4337,6.4332,-0.7614,-6.3059,7.4717,0.8497,-2.1278,-1.0385,2.9456,1.4355,0.7355,2457.0,-40.0,32.9,-48.6,94.43,40.02,5.82,,55.508,,,,NaN,,,,0 / 0,1058,2014-12-14 04:49:31:769
-2.5301,-7.4923,7.5903,-1.1192,-5.5508,8.0066,-1.4109,-1.9415,-0.4163,2.5302,0.2224,0.733,2457.0,-40.4,30.7,-52.0,90.56,34.47,7.96,,55.508,,,,NaN,,,,0 / 0,1109,2014-12-14 04:49:31:820
-0.6276,-4.6385,9.1006,-1.2303,-5.0973,8.287,0.6026,0.4587,0.8136,1.1692,-0.981,0.8454,2457.0,-42.1,28.5,-51.5,90.56,34.47,7.96,,55.508,,,,NaN,,,,0 / 0,1158,2014-12-14 04:49:31:869
5.3544,0.0098,6.3841,-0.6232,-4.9964,8.4153,3.1108,2.3107,-0.2002,0.3763,-1.0189,0.9982,2457.0,-43.0,28.5,-49.6,87.15,30.57,7.09,,55.508,,,,NaN,,,,0 / 0,1208,2014-12-14 04:49:31:919
6.443,0.6178,5.7565,-0.462,-5.0263,8.408,6.9049,5.6441,-2.6514,-1.7031,0.3384,1.4514,2457.0,-43.9,28.9,-44.2,85.53,30.83,3.14,,55.508,,,,NaN,,,,0 / 0,1258,2014-12-14 04:49:31:969
7.914,0.9022,2.5105,-0.0899,-5.1365,8.3534,8.0039,6.0387,-5.8428,-1.9755,0.6707,1.5455,2457.0,-43.9,29.4,-41.8,86.2,31.59,0.62,,55.508,,,,NaN,,,,0 / 0,1308,2014-12-14 04:49:32:019
7.0902,-9.8263,-4.0207,-0.102,-7.0469,6.8192,7.1922,-2.7794,-10.8399,-1.4539,5.2962,0.672,4564.0,-42.1,29.8,-37.4,97.06,45.94,0.86,,55.508,,,,NaN,,,,0 / 0,1358,2014-12-14 04:49:32:069
3.6873,-7.6198,-5.2662,-0.4067,-8.138,5.4569,4.094,0.5182,-10.7231,-2.3836,5.8839,0.3848,4564.0,-41.7,29.4,-37.4,97.06,45.94,0.86,,55.508,,,,NaN,,,,0 / 0,1408,2014-12-14 04:49:32:119
-3.6677,-11.8759,-2.9518,-0.8212,-9.771,0.1524,-2.8465,-2.1048,-3.1042,-2.6011,3.3561,-0.8418,4564.0,-42.6,28.1,-34.9,47.93,85.11,79.49,,55.508,,,,NaN,,,,0 / 0,1459,2014-12-14 04:49:32:170
-5.4427,-19.5839,-2.7557,-0.9451,-9.4548,-2.4258,-4.4976,-10.1291,-0.3299,-2.8442,0.259,-0.5339,1163.0,-46.9,24.2,-25.7,323.35,74.6,158.71,,65.51,,,,NaN,,,,0 / 0,1508,2014-12-14 04:49:32:219
-4.5013,-19.8977,4.3247,-1.196,-9.3015,-2.8673,-3.3052,-10.5961,7.192,-2.8442,0.259,-0.5339,1163.0,-46.9,24.2,-25.7,323.35,74.6,158.71,,65.51,,,,NaN,,,,0 / 0,1559,2014-12-14 04:49:32:270
1.8535,-15.877,9.1986,-1.5016,-9.311,-2.6873,2.2959,-3.575,11.2386,-1.9816,1.7788,1.4343,1163.0,-47.3,22.9,-22.2,322.58,70.67,156.14,,65.51,,,,NaN,,,,0 / 0,1608,2014-12-14 04:49:32:319
-2.8733,-6.4332,6.5116,-1.213,-9.4857,-2.1725,-1.6603,3.0526,8.6841,0.0061,1.0812,-0.3054,501.0,-47.8,19.4,-20.3,324.05,75.3,150.82,,65.51,,,,NaN,,,,0 / 0,1659,2014-12-14 04:49:32:370
-6.6489,-5.5211,7.0216,-1.1326,-9.5392,-1.9728,-5.5163,4.018,8.9943,0.5082,1.317,-0.325,501.0,-48.7,19.0,-19.8,324.05,75.3,150.82,,65.51,,,,NaN,,,,0 / 0,1708,2014-12-14 04:49:32:419
2.6282,-8.9927,0.7551,-2.422,-9.2774,2.0576,5.0502,0.2847,-1.3025,3.708,-0.2065,0.8528,501.0,-49.1,17.6,-23.2,61.2,71.09,49.65,,65.51,,,,NaN,,,,0 / 0,1758,2014-12-14 04:49:32:469
-3.4716,-19.829,-5.2171,-3.2169,-8.1739,4.3599,0.1752,-9.586,-4.7102,4.2602,-0.2211,1.361,501.0,-49.5,18.1,-23.7,73.35,67.15,36.47,,65.51,,,,NaN,,,,0 / 0,1808,2014-12-14 04:49:32:519
-0.7845,-19.9958,-3.8442,-3.486,-7.8873,4.6701,2.7014,-12.1085,-8.5143,4.9627,-1.9853,2.2993,501.0,-46.5,22.0,-30.5,73.54,55.1,37.03,,65.51,,,,NaN,,,,0 / 0,1858,2014-12-14 04:49:32:569
-1.6377,-5.0406,-5.9036,-3.151,-7.0736,6.0171,1.5133,2.033,-11.9207,4.9627,-1.9853,2.2993,1470.0,-46.5,24.6,-34.0,73.54,55.1,37.03,,65.51,,,,NaN,,,,0 / 0,1909,2014-12-14 04:49:32:620
4.1678,2.687,-7.5903,-3.1206,-6.9532,6.1713,7.2884,9.6402,-13.7617,0.6182,-2.0427,1.0372,1470.0,-47.3,25.5,-32.0,78.68,45.59,27.55,,65.51,,,,NaN,,,,0 / 0,1958,2014-12-14 04:49:32:669
9.2967,7.4727,-5.9232,-2.7355,-7.3669,5.8666,12.0322,14.8395,-11.7898,-0.1564,2.6536,0.3958,1470.0,-47.8,25.0,-28.6,77.86,48.7,25.0,,65.51,,,,NaN,,,,0 / 0,2008,2014-12-14 04:49:32:719
6.5214,-0.8238,3.9423,-2.8735,-7.4171,5.7359,9.3949,6.5933,-1.7936,0.733,4.4581,0.9762,1470.0,-48.7,25.5,-31.0,77.64,49.14,26.61,,68.164,,,,NaN,,,,0 / 0,2058,2014-12-14 04:49:32:769
5.2662,4.8347,-10.7285,-3.3146,-7.4865,5.3978,8.5808,12.3212,-16.1262,-1.6298,3.89,-0.121,1470.0,-48.7,25.5,-31.0,77.64,49.14,26.61,,68.164,,,,NaN,,,,0 / 0,2110,2014-12-14 04:49:32:821
1.9025,-18.3875,-10.2676,-4.0397,-8.3203,3.2593,5.9422,-10.0671,-13.5269,-1.5479,5.521,-0.2248,3112.0,-46.9,27.2,-36.9,66.28,58.04,51.1,,68.164,,,,NaN,,,,0 / 0,2159,2014-12-14 04:49:32:870
-0.7551,-8.7573,-10.0518,-3.8631,-8.8267,1.8263,3.108,0.0694,-11.8782,-1.6542,5.1594,-0.3323,3112.0,-47.3,26.8,-37.9,66.28,58.04,51.1,,68.164,,,,NaN,,,,0 / 0,2209,2014-12-14 04:49:32:920
-7.1785,-16.485,-10.0714,-2.8958,-8.949,-2.775,-4.2826,-7.536,-7.2964,-3.6786,1.7849,-1.2022,3112.0,-52.1,22.9,-27.6,345.59,65.86,133.78,,68.164,,,,NaN,,,,0 / 0,2258,2014-12-14 04:49:32:969
-4.5503,-19.5054,9.5811,-2.405,-8.7173,-3.794,-1.593,-10.7578,13.3141,-0.022,0.9786,0.0611,3112.0,-54.7,19.0,-24.2,345.59,65.86,133.78,,68.164,,,,NaN,,,,0 / 0,2308,2014-12-14 04:49:33:019
-5.8252,-3.8442,3.854,-2.1976,-9.1964,-2.6013,-3.6275,5.3522,6.4553,0.507,1.7568,-0.0733,810.0,-55.6,19.0,-24.2,334.68,69.68,139.81,,68.164,,,,NaN,,,,0 / 0,2358,2014-12-14 04:49:33:069
0.4413,-6.9529,4.3836,-3.5214,-9.1522,0.0863,3.9627,2.1993,4.2973,2.8564,-0.8796,1.1643,810.0,-54.3,18.1,-25.2,25.06,68.95,88.6,,68.164,,,,NaN,,,,0 / 0,2408,2014-12-14 04:49:33:119
1.6279,-7.2765,2.3438,-3.5721,-9.1132,0.6003,5.2,1.8366,1.7435,3.2205,-1.0385,1.1985,584.0,-54.3,18.5,-24.7,25.06,68.95,88.6,,68.164,,,,NaN,,,,0 / 0,2458,2014-12-14 04:49:33:169
0.4315,-19.8389,-3.7658,-3.3701,-8.6924,3.0423,3.8016,-11.1465,-6.808,4.7635,-1.157,2.2382,584.0,-50.0,21.1,-28.6,61.97,63.77,51.08,,68.164,,,,NaN,,,,0 / 0,2508,2014-12-14 04:49:33:219
0.9709,-19.5152,-4.2659,-3.8229,-8.0686,4.0562,4.7938,-11.4466,-8.3221,4.9309,0.1833,2.6512,584.0,-46.5,22.9,-33.0,71.75,59.66,43.73,,72.848,,,,NaN,,,,0 / 0,2558,2014-12-14 04:49:33:269
0.9709,-19.5152,-4.2659,-3.8229,-8.0686,4.0562,4.7938,-11.4466,-8.3221,4.9309,0.1833,2.6512,584.0,-43.9,23.7,-35.4,71.75,59.66,43.73,,72.848,,,,NaN,,,,0 / 0,2611,2014-12-14 04:49:33:322
-1.0983,-3.7658,-5.1485,-3.723,-7.6119,4.9364,2.6247,3.8462,-10.0849,2.8833,-2.3421,1.124,1702.0,-43.9,23.7,-34.4,75.26,50.91,37.02,,72.848,,,,NaN,,,,0 / 0,2659,2014-12-14 04:49:33:370
3.4421,3.5304,-4.7464,-3.9261,-7.5576,4.8619,7.3682,11.088,-9.6084,0.215,-0.8027,0.5913,1702.0,-43.4,24.2,-30.5,75.26,50.91,37.02,,72.848,,,,NaN,,,,0 / 0,2708,2014-12-14 04:49:33:419
3.4421,3.5304,-4.7464,-3.9261,-7.5576,4.8619,7.3682,11.088,-9.6084,0.215,-0.8027,0.5913,1702.0,-43.4,24.2,-30.5,75.26,50.91,37.02,,72.848,,,,NaN,,,,0 / 0,2759,2014-12-14 04:49:33:470
3.4421,3.5304,-4.7464,-3.9261,-7.5576,4.8619,7.3682,11.088,-9.6084,0.215,-0.8027,0.5913,1702.0,-43.4,24.2,-30.5,75.26,50.91,37.02,,72.848,,,,NaN,,,,0 / 0,2808,2014-12-14 04:49:33:519
7.3256,-2.1084,3.9913,-4.0488,-7.678,4.5636,9.0796,4.7556,-2.4355,0.215,-0.8027,0.5913,1702.0,-44.3,23.7,-27.1,66.62,51.53,41.58,,72.848,,,,NaN,,,,0 / 0,2858,2014-12-14 04:49:33:569
7.3256,-2.1084,3.9913,-4.0488,-7.678,4.5636,9.0796,4.7556,-2.4355,-0.2993,5.9352,0.7978,2469.0,-44.3,23.7,-27.1,66.62,51.53,41.58,,72.848,,,,NaN,,,,0 / 0,2908,2014-12-14 04:49:33:619
-4.7758,-11.8072,-15.4062,-3.6744,-8.6982,2.648,-1.1015,-3.1091,-18.0542,-0.3897,6.535,-0.3079,2469.0,-44.3,25.0,-33.5,63.57,62.49,54.22,,72.848,,,,NaN,,,,0 / 0,2958,2014-12-14 04:49:33:669
-4.7758,-11.8072,-15.4062,-3.6744,-8.6982,2.648,-1.1015,-3.1091,-18.0542,-0.3897,6.535,-0.3079,2469.0,-44.3,25.0,-33.5,63.57,62.49,54.22,,72.848,,,,NaN,,,,0 / 0,3008,2014-12-14 04:49:33:719
-4.7758,-11.8072,-15.4062,-3.6744,-8.6982,2.648,-1.1015,-3.1091,-18.0542,-0.3897,6.535,-0.3079,2469.0,-44.3,25.0,-33.5,63.57,62.49,54.22,,72.848,,,,NaN,,,,0 / 0,3058,2014-12-14 04:49:33:769
4.5209,-18.2011,10.9933,-2.6601,-8.6795,-3.7095,7.181,-9.5216,14.7028,0.1845,3.4599,-0.3018,2469.0,-52.1,17.6,-20.8,329.17,62.26,144.36,,72.848,,,,NaN,,,,0 / 0,3109,2014-12-14 04:49:33:820
-7.051,-3.6971,5.5211,-1.4633,-9.4528,-2.1619,-5.5876,5.7557,7.6831,1.3598,2.7623,-0.2382,796.0,-55.2,16.3,-23.2,328.04,74.56,145.91,,73.019,,,,NaN,,,,0 / 0,3158,2014-12-14 04:49:33:869
-3.4323,-19.2897,-3.295,-4.0089,-8.6131,2.4317,0.5766,-10.6766,-5.7267,4.5119,-2.2578,3.2058,702.0,-50.4,25.5,-29.1,54.06,61.44,58.76,,73.019,,,,NaN,,,,0 / 0,3208,2014-12-14 04:49:33:919
4.6385,-19.986,-9.4928,-4.3857,-7.9618,3.6804,9.0242,-12.0241,-13.1732,5.2376,0.6829,2.9517,702.0,-47.3,28.9,-34.0,54.06,61.44,58.76,,73.019,,,,NaN,,,,0 / 0,3258,2014-12-14 04:49:33:969
-0.3236,-6.6195,-2.8439,-4.3578,-7.7923,4.0571,4.7696,-1.3279,-6.4499,2.496,-1.5272,2.1136,702.0,-44.3,30.3,-39.3,68.81,52.62,47.05,,73.019,,,,NaN,,,,0 / 0,3309,2014-12-14 04:49:34:020
0.6276,-3.4716,-3.7658,-4.2367,-7.7144,4.3254,4.8643,4.2428,-8.0912,2.0378,-1.6897,1.8216,702.0,-43.9,30.7,-38.8,68.81,52.62,47.05,,73.019,,,,NaN,,,,0 / 0,3358,2014-12-14 04:49:34:069
3.197,-2.5693,0.3432,-3.5934,-8.2548,3.888,6.7903,5.6854,-3.5448,-0.0379,0.3567,0.1833,1830.0,-46.9,29.4,-33.0,68.77,57.33,42.74,,73.019,,,,NaN,,,,0 / 0,3408,2014-12-14 04:49:34:119
5.5604,3.0204,-3.501,-3.5934,-8.2548,3.888,6.7903,5.6854,-3.5448,-0.0379,0.3567,0.1833,1830.0,-46.9,29.4,-33.0,68.77,57.33,42.74,,73.019,,,,NaN,,,,0 / 0,3458,2014-12-14 04:49:34:169
4.7562,0.4413,-10.1008,-3.3013,-8.4207,3.79,8.0576,8.862,-13.8908,-2.0782,6.5973,0.9126,2167.0,-43.9,29.8,-41.3,79.68,56.56,34.26,,73.019,,,,NaN,,,,0 / 0,3509,2014-12-14 04:49:34:220
7.5903,4.3738,-9.0221,-3.3281,-9.1259,1.3459,10.9185,13.4997,-10.368,0.2431,5.0262,-0.5547,2167.0,-44.3,28.5,-44.2,59.89,68.53,67.98,,73.019,,,,NaN,,,,0 / 0,3558,2014-12-14 04:49:34:269
8.571,4.0501,-11.0815,-2.6612,-9.4379,0.1196,11.2322,13.4881,-11.2011,-2.8503,3.7214,-1.8741,2167.0,-45.2,27.2,-44.2,59.89,68.53,67.98,,73.019,,,,NaN,,,,0 / 0,3609,2014-12-14 04:49:34:320
-10.9246,-18.0737,-5.6682,-1.2561,-8.6899,-4.3678,-9.6685,-9.3837,-1.3005,-1.7263,2.193,-1.8986,2167.0,-50.4,24.6,-33.0,323.14,62.39,163.96,,69.921,,,,NaN,,,,0 / 0,3658,2014-12-14 04:49:34:369
-0.0098,-19.8781,10.1695,-1.2606,-8.4931,-4.7379,1.2508,-11.3849,14.9074,-2.0293,2.1136,0.8552,805.0,-51.3,22.9,-31.0,323.14,62.39,163.96,,69.921,,,,NaN,,,,0 / 0,3709,2014-12-14 04:49:34:420
-2.383,-5.7663,8.4337,-0.35,-9.2516,-3.2335,-2.033,3.4853,11.6672,1.8937,2.5326,0.0208,805.0,-52.6,20.7,-35.9,317.08,65.02,167.48,,69.921,,,,NaN,,,,0 / 0,3758,2014-12-14 04:49:34:469
-2.2849,-5.1779,1.8633,-1.5255,-9.687,0.0739,-0.7595,4.5091,1.7894,3.2376,-0.6536,0.8821,805.0,-53.0,19.0,-40.8,39.23,81.04,87.23,,69.921,,,,NaN,,,,0 / 0,3808,2014-12-14 04:49:34:519
-1.167,-6.0409,0.9218,-1.8782,-9.5402,1.2759,-0.7595,4.5091,1.7894,3.2376,-0.6536,0.8821,805.0,-53.0,19.0,-40.8,39.23,81.04,87.23,,69.921,,,,NaN,,,,0 / 0,3858,2014-12-14 04:49:34:569
-3.2852,-19.1818,-4.9622,-2.6332,-9.0848,2.5889,-0.652,-10.097,-7.551,4.6071,-0.1759,2.3812,805.0,-53.4,13.7,-47.1,82.14,67.88,45.49,,69.921,,,,NaN,,,,0 / 0,3908,2014-12-14 04:49:34:619
1.9711,-18.0442,-7.0608,-3.5701,-8.3652,3.6671,5.5413,-9.679,-10.7279,4.8747,-0.2321,2.7086,805.0,-54.3,12.0,-49.6,83.92,58.54,44.23,,69.921,,,,NaN,,,,0 / 0,3958,2014-12-14 04:49:34:669
3.5598,0.8728,-3.3048,-3.5457,-8.0633,4.3106,4.0753,3.4444,-6.2032,2.0757,-1.3525,1.9719,805.0,-56.5,12.4,-46.1,84.58,55.31,39.44,,69.921,,,,NaN,,,,0 / 0,4009,2014-12-14 04:49:34:720
4.8739,1.4122,-2.1477,-2.9599,-8.4578,3.9843,7.8338,9.87,-6.132,0.0794,-0.0635,-0.573,1749.0,-58.7,13.3,-41.8,79.74,55.47,40.91,,71.748,,,,NaN,,,,0 / 0,4058,2014-12-14 04:49:34:769
2.1869,0.0098,0.5492,-2.4672,-8.5756,4.0672,4.6541,8.5854,-3.5181,0.7367,-0.4801,-0.1588,1749.0,-61.3,10.3,-36.9,86.11,60.98,31.24,,71.748,,,,NaN,,,,0 / 0,4108,2014-12-14 04:49:34:819
5.6682,-0.0294,5.8938,-2.2503,-8.3169,4.6835,7.2909,5.6691,1.2495,2.7807,2.7196,1.3537,1749.0,-60.8,10.7,-35.4,86.11,60.98,31.24,,71.748,,,,NaN,,,,0 / 0,4158,2014-12-14 04:49:34:869
5.7369,2.7557,2.2163,-2.0844,-8.0051,5.2672,7.8213,10.7608,-3.0509,0.5229,0.0672,2.7672,1749.0,-58.2,12.4,-41.3,95.6,54.72,21.59,,71.748,,,,NaN,,,,0 / 0,4209,2014-12-14 04:49:34:920
-6.7274,-18.358,-11.7288,-1.9423,-7.5282,5.977,-4.785,-10.8299,-17.7057,4.2675,3.7727,-2.2602,2720.0,-56.9,13.3,-40.3,95.6,54.72,21.59,,71.748,,,,NaN,,,,0 / 0,4259,2014-12-14 04:49:34:970
-0.6276,5.1093,-8.6495,-1.3972,-8.6808,4.343,0.7696,13.7901,-12.9924,-2.5375,0.0977,-0.6548,2720.0,-55.6,10.7,-45.7,105.32,62.28,17.83,,71.748,,,,NaN,,,,0 / 0,4308,2014-12-14 04:49:35:019
4.7268,-12.0818,5.8644,-2.576,-9.2576,1.9575,7.3028,-2.8242,3.9068,-0.2969,1.0201,-0.1405,2720.0,-56.9,10.3,-40.3,83.64,71.21,41.41,,71.748,,,,NaN,,,,0 / 0,4358,2014-12-14 04:49:35:069
4.7268,-12.0818,5.8644,-2.576,-9.2576,1.9575,7.3028,-2.8242,3.9068,-0.2969,1.0201,-0.1405,1533.0,-56.9,10.3,-40.3,83.64,71.21,41.41,,71.748,,,,NaN,,,,0 / 0,4408,2014-12-14 04:49:35:119
3.6873,-7.6982,5.5898,-1.7796,-9.3867,2.2122,5.4669,1.6885,3.3776,-0.0855,2.0073,0.4911,1533.0,-56.0,10.7,-38.3,82.87,73.17,38.82,,71.748,,,,NaN,,,,0 / 0,4458,2014-12-14 04:49:35:169
-2.7655,-10.3068,3.854,-2.1039,-9.1217,2.922,-1.1704,8.9765,0.1585,0.4056,3.824,-0.4753,1533.0,-56.0,9.8,-39.8,92.2,72.43,30.6,,71.748,,,,NaN,,,,0 / 0,4508,2014-12-14 04:49:35:219
-4.6974,-19.7016,-0.2354,-2.6733,-8.5703,3.9463,-2.024,-11.1312,-4.1817,2.171,2.1576,0.788,1533.0,-54.7,9.0,-43.7,89.67,66.7,35.87,,72.511,,,,NaN,,,,0 / 0,4559,2014-12-14 04:49:35:270
2.2751,-17.6029,0.0,-3.0549,-8.3529,4.1313,5.33,-9.2501,-4.1313,3.5381,0.2578,2.9089,1268.0,-53.4,10.3,-43.2,87.79,58.4,36.48,,72.511,,,,NaN,,,,0 / 0,4609,2014-12-14 04:49:35:320
6.5606,-19.8487,-5.6094,-3.5181,-8.0,4.4489,10.0788,-11.8486,-10.0583,3.9266,1.1215,3.3048,1268.0,-50.8,13.3,-45.7,87.79,58.4,36.48,,72.511,,,,NaN,,,,0 / 0,4659,2014-12-14 04:49:35:370
2.942,-17.044,-3.854,-3.5436,-7.958,4.5037,6.4856,-9.0859,-8.3577,3.8277,0.4789,3.3048,1268.0,-48.7,14.6,-46.6,87.14,54.24,38.2,,72.511,,,,NaN,,,,0 / 0,4709,2014-12-14 04:49:35:420
-0.3727,-2.942,-2.9714,-4.6108,-7.214,4.7821,4.2382,4.272,-7.7535,0.3409,-1.774,1.5369,1268.0,-47.8,19.8,-40.8,82.01,48.84,42.11,,72.511,,,,NaN,,,,0 / 0,4759,2014-12-14 04:49:35:470
3.0793,-0.5492,-2.2555,-4.7084,-7.2308,4.6602,7.7877,6.6816,-6.9157,0.3409,-1.774,1.5369,1838.0,-47.8,19.8,-40.8,82.01,48.84,42.11,,72.511,,,,NaN,,,,0 / 0,4808,2014-12-14 04:49:35:519
3.7069,-0.3432,-0.1275,-4.4045,-7.3873,4.7115,8.1114,7.0441,-4.839,0.0586,-1.9658,0.2236,1838.0,-48.2,20.3,-35.4,72.51,48.88,43.07,,72.511,,,,NaN,,,,0 / 0,4859,2014-12-14 04:49:35:570
6.0899,-6.1782,6.4332,-2.3742,-7.7765,5.4828,8.4641,1.5983,0.9504,0.0073,1.7556,0.8796,1838.0,-48.7,20.3,-29.1,83.41,52.46,23.41,,72.511,,,,NaN,,,,0 / 0,4909,2014-12-14 04:49:35:620
-2.2261,-17.1813,5.7957,-0.9036,-7.5776,6.159,-1.3225,-9.6036,-0.3633,1.1313,-1.157,1.1765,3991.0,-46.9,21.6,-24.7,89.86,50.6,8.35,,72.511,,,,NaN,,,,0 / 0,4958,2014-12-14 04:49:35:669
-2.334,-11.8464,2.6184,-2.4835,-8.7815,3.59,0.1495,-3.0649,-0.9716,0.3189,0.281,0.6878,3991.0,-45.2,23.3,-25.2,73.94,63.57,34.67,,70.676,,,,NaN,,,,0 / 0,5195,2014-12-14 04:49:35:906
-2.334,-11.8464,2.6184,-2.4835,-8.7815,3.59,0.1495,-3.0649,-0.9716,0.3189,0.281,0.6878,3991.0,-45.2,23.3,-25.2,73.94,63.57,34.67,,70.676,,,,NaN,,,,0 / 0,5200,2014-12-14 04:49:35:911
-2.334,-11.8464,2.6184,-2.4835,-8.7815,3.59,0.1495,-3.0649,-0.9716,0.3189,0.281,0.6878,3991.0,-45.2,23.3,-25.2,73.94,63.57,34.67,,70.676,,,,NaN,,,,0 / 0,5203,2014-12-14 04:49:35:914
-2.0496,-11.2188,3.2656,-2.5998,-8.8077,3.4403,0.5502,-2.4111,-0.1747,0.0489,0.4924,0.8735,3991.0,-45.2,22.4,-23.7,71.51,63.91,37.08,,70.676,,,,NaN,,,,0 / 0,5207,2014-12-14 04:49:35:918
-2.0496,-11.2188,3.2656,-2.5998,-8.8077,3.4403,0.5502,-2.4111,-0.1747,0.0489,0.4924,0.8735,3991.0,-45.2,22.4,-23.7,71.51,63.91,37.08,,70.676,,,,NaN,,,,0 / 0,5212,2014-12-14 04:49:35:923
-2.0888,-10.0518,3.7461,-2.6777,-8.8197,3.3485,0.5889,-1.2321,0.3976,0.0367,0.4056,0.9249,3991.0,-44.7,22.9,-22.2,71.51,63.91,37.08,,70.676,,,,NaN,,,,0 / 0,5258,2014-12-14 04:49:35:969
-1.2847,-8.1003,2.7459,-2.8075,-8.7809,3.3443,1.5228,0.6806,-0.5985,0.1258,-0.0464,1.0531,3991.0,-44.7,23.7,-20.8,65.17,63.56,40.01,,70.676,,,,NaN,,,,0 / 0,5308,2014-12-14 04:49:36:019
1.118,-10.7677,2.7753,-2.6427,-8.8226,3.3688,3.7607,-1.9451,-0.5935,0.5021,0.7563,0.8735,3991.0,-43.0,23.3,-17.9,64.77,64.11,38.11,,70.676,,,,NaN,,,,0 / 0,5359,2014-12-14 04:49:36:070
-0.3138,-9.993,2.1673,-2.548,-8.9379,3.1292,2.0162,-0.5958,-1.7069,0.5021,0.8125,0.8723,5786.0,-42.1,23.7,-15.9,64.77,64.11,38.11,,70.676,,,,NaN,,,,0 / 0,5409,2014-12-14 04:49:36:120
-0.1079,-10.1303,2.6674,-2.551,-8.9441,3.1089,2.4431,-1.1861,-0.4415,0.6048,0.7636,0.7624,5786.0,-41.7,24.2,-14.4,59.59,65.79,39.37,,70.676,,,,NaN,,,,0 / 0,5459,2014-12-14 04:49:36:170
0.0,-8.9829,2.5988,-2.4177,-8.952,3.1917,2.4177,-0.0309,-0.5929,0.639,1.0458,0.7611,5786.0,-41.3,23.7,-14.4,61.63,65.9,37.14,,70.676,,,,NaN,,,,0 / 0,5508,2014-12-14 04:49:36:219
-0.3138,-9.9734,2.3438,-2.4566,-8.9075,3.2851,2.1428,-1.0658,-0.9413,0.6927,0.9493,0.7074,5786.0,-40.4,24.2,-13.5,60.7,65.27,36.79,,70.676,,,,NaN,,,,0 / 0,5558,2014-12-14 04:49:36:269
-0.1275,-9.7576,2.2163,-2.4549,-8.9147,3.2668,2.3274,-0.8429,-1.0505,0.6597,0.9529,0.7001,5786.0,-40.8,24.2,-13.0,60.7,65.27,36.79,,70.676,,,,NaN,,,,0 / 0,5609,2014-12-14 04:49:36:320
-0.0392,-9.5811,2.3634,-2.3881,-8.9531,3.2108,2.4934,-0.6905,-0.8673,0.6548,1.0531,0.7013,6484.0,-40.4,23.7,-12.0,59.47,65.63,37.0,,55.507,,,,NaN,,,,0 / 0,5658,2014-12-14 04:49:36:369
-0.0196,-9.6792,2.1967,-2.3696,-8.9608,3.203,2.3676,-0.6732,-0.8414,0.6573,1.146,0.6891,6484.0,-40.0,23.7,-12.0,60.01,66.03,36.49,,55.507,,,,NaN,,,,0 / 0,5710,2014-12-14 04:49:36:421
-0.2844,-9.0221,2.2457,-2.3329,-8.9829,3.1679,2.0485,-0.0392,-0.9222,0.5644,1.0653,0.7025,6484.0,-39.5,23.7,-12.0,60.31,66.35,36.37,,55.507,,,,NaN,,,,0 / 0,5758,2014-12-14 04:49:36:469
-0.2844,-9.0221,2.2457,-2.3329,-8.9829,3.1679,2.0485,-0.0392,-0.9222,0.5644,1.0653,0.7025,6484.0,-39.5,23.7,-12.0,60.31,66.35,36.37,,55.507,,,,NaN,,,,0 / 0,5808,2014-12-14 04:49:36:519
0.2059,-9.7086,2.1673,-2.3393,-8.986,3.1544,2.5452,-0.7226,-0.9872,0.6536,1.2987,0.7147,6484.0,-40.4,23.7,-11.0,58.89,66.39,36.56,,55.507,,,,NaN,,,,0 / 0,5858,2014-12-14 04:49:36:569
-0.2059,-9.7576,2.1084,-2.3107,-9.0118,3.1015,2.1048,-0.7459,-0.9931,0.6329,1.1325,0.6903,6484.0,-40.0,23.3,-10.5,58.12,66.77,36.69,,55.507,,,,NaN,,,,0 / 0,5908,2014-12-14 04:49:36:619