ACCELEROMETER X (m/s²),ACCELEROMETER Y (m/s²),ACCELEROMETER Z (m/s²),GRAVITY X (m/s²),GRAVITY Y (m/s²),GRAVITY Z (m/s²),LINEAR ACCELERATION X (m/s²),LINEAR ACCELERATION Y (m/s²),LINEAR ACCELERATION Z (m/s²),GYROSCOPE X (rad/s),GYROSCOPE Y (rad/s),GYROSCOPE Z (rad/s),LIGHT (lux),MAGNETIC FIELD X (μT),MAGNETIC FIELD Y (μT),MAGNETIC FIELD Z (μT),ORIENTATION X (°),ORIENTATION Y (°),ORIENTATION Z (°),PROXIMITY (i),SOUND LEVEL (dB),LOCATION Latitude : ,LOCATION Longitude : ,LOCATION Altitude ( m),LOCATION Altitude-google ( m),LOCATION Speed ( Kmh),LOCATION Accuracy ( m),LOCATION ORIENTATION (°),Satellites in range,Time since start in ms ,YYYY-MO-DD HH-MI-SS_SSS
0.7355,-9.2575,3.3539,1.0697,-9.2821,2.9781,-0.3342,0.0246,0.3758,0.0305,-0.0024,-0.0086,2519.0,13.1,19.0,-52.0,219.6,71.18,-19.76,,59.598,,,,NaN,,,,0 / 0,12,2014-12-14 04:47:14:926
0.7355,-9.2575,3.3539,1.0697,-9.2821,2.9781,-0.3342,0.0246,0.3758,0.0305,-0.0024,-0.0086,2519.0,13.1,19.0,-52.0,219.6,71.18,-19.76,,59.598,,,,NaN,,,,0 / 0,62,2014-12-14 04:47:14:976
0.6669,-9.2477,3.1872,1.1004,-9.2963,2.9219,-0.4335,0.0487,0.2652,-0.0024,-0.011,-0.0147,2519.0,13.1,19.0,-52.0,220.4,71.37,-20.54,,59.598,,,,NaN,,,,0 / 0,112,2014-12-14 04:47:15:026
0.6963,-9.2575,3.246,1.104,-9.307,2.8863,-0.4078,0.0495,0.3597,-0.0244,0.0281,-0.0086,2519.0,13.1,19.0,-52.5,220.71,71.63,-20.93,,59.598,,,,NaN,,,,0 / 0,162,2014-12-14 04:47:15:076
0.5786,-9.13,3.1381,1.1027,-9.3207,2.8423,-0.5241,0.1907,0.2959,-0.0281,0.0611,-0.0098,2519.0,13.1,19.0,-52.0,220.9,71.89,-21.21,,59.598,,,,NaN,,,,0 / 0,212,2014-12-14 04:47:15:126
0.608,-9.3065,2.9126,1.1011,-9.3568,2.7218,-0.5127,-0.0674,0.2692,-0.1918,0.1613,-0.044,2519.0,13.1,19.4,-51.5,221.88,72.58,-22.03,,59.598,,,,NaN,,,,0 / 0,262,2014-12-14 04:47:15:176
0.4511,-9.3457,3.0891,1.0726,-9.4076,2.5528,-0.6215,0.0619,0.5363,-0.2285,0.1405,-0.0257,2519.0,13.1,19.8,-50.1,221.88,72.58,-22.03,,43.425,,,,NaN,,,,0 / 0,312,2014-12-14 04:47:15:226
0.4609,-8.2082,2.4026,1.0871,-9.4877,2.2299,-0.6262,1.2795,0.1728,-0.529,0.1368,-0.1124,2519.0,12.6,20.7,-47.1,227.05,75.35,-25.99,,43.425,,,,NaN,,,,0 / 0,362,2014-12-14 04:47:15:276
0.5982,-8.9829,2.3928,1.0903,-9.5336,2.0229,-0.5803,0.6292,0.4091,-0.7599,0.1955,-0.0867,2519.0,12.2,20.3,-46.6,227.61,76.45,-28.32,,43.425,,,,NaN,,,,0 / 0,412,2014-12-14 04:47:15:326
0.1863,-9.2477,2.3634,1.0767,-9.6191,1.5763,-0.8904,0.3714,0.7871,-0.9676,0.2187,-0.0843,2519.0,12.6,21.6,-44.2,227.61,76.45,-28.32,,43.425,,,,NaN,,,,0 / 0,462,2014-12-14 04:47:15:376
0.3138,-10.042,2.7066,1.0035,-9.6911,1.1159,-0.6897,-0.3509,1.5908,-0.9371,0.4044,-0.2126,2519.0,11.8,22.9,-41.3,242.8,81.2,-41.97,,43.425,,,,NaN,,,,0 / 0,512,2014-12-14 04:47:15:426
-0.3236,-10.7873,3.2264,0.9514,-9.7098,0.9925,-1.275,-1.0775,2.2339,-0.6402,-0.066,-0.2737,2519.0,11.8,23.3,-38.8,245.26,81.94,-43.79,,43.425,,,,NaN,,,,0 / 0,562,2014-12-14 04:47:15:476
-0.2059,-10.6304,3.0008,0.9365,-9.7108,0.9969,-1.1424,-0.9196,2.004,-0.5864,-0.0916,-0.2871,2519.0,11.8,23.3,-38.3,245.26,81.94,-43.79,,43.425,,,,NaN,,,,0 / 0,613,2014-12-14 04:47:15:527
-0.9316,-11.1011,4.9033,0.8911,-9.6949,1.1769,-1.8227,-1.4062,3.7265,-0.0049,-0.6597,-0.2492,2519.0,10.9,23.7,-37.9,238.05,81.34,-37.13,,43.425,,,,NaN,,,,0 / 0,663,2014-12-14 04:47:15:577
-1.8829,-11.6013,4.6091,0.8541,-9.6727,1.3713,-2.737,-1.9286,3.2378,0.281,-0.4472,-0.1405,2519.0,10.9,23.7,-38.8,238.05,81.34,-37.13,,43.425,,,,NaN,,,,0 / 0,713,2014-12-14 04:47:15:627
1.8731,-10.7383,5.5604,0.5624,-9.4963,2.382,2.1443,-0.5849,2.3448,1.1215,-2.0513,0.0452,2519.0,10.9,22.9,-42.7,213.24,77.64,-13.49,,43.425,,,,NaN,,,,0 / 0,762,2014-12-14 04:47:15:676
1.3827,-8.8946,2.5105,0.8748,-9.3507,2.8231,0.959,0.6522,-0.3616,1.1044,-0.7966,0.2089,2519.0,10.5,22.0,-45.2,217.32,72.46,-17.22,,39.923,,,,NaN,,,,0 / 0,812,2014-12-14 04:47:15:726
0.5394,-10.4931,3.0204,1.0065,-9.2624,3.0604,-0.2415,-0.8777,-0.2557,1.2156,-0.4154,0.2358,2519.0,11.3,21.1,-48.1,217.7,70.82,-18.2,,39.923,,,,NaN,,,,0 / 0,862,2014-12-14 04:47:15:776
0.1667,-11.562,3.5696,1.0023,-9.1954,3.2574,-0.7179,-1.8665,0.0769,1.609,-0.6622,0.3738,2519.0,10.5,20.3,-48.6,217.7,70.82,-18.2,,39.923,,,,NaN,,,,0 / 0,912,2014-12-14 04:47:15:826
0.3727,-9.2183,4.6974,1.0262,-8.808,4.1876,-0.6535,-0.4102,0.5098,1.9206,-1.0825,0.2101,2519.0,11.3,16.8,-55.4,211.93,63.92,-13.77,,39.923,,,,NaN,,,,0 / 0,962,2014-12-14 04:47:15:876
1.2454,-4.7366,5.1681,1.354,-8.3486,4.9636,-0.1086,3.612,0.2045,0.9236,-1.0641,0.055,2008.0,9.6,14.2,-59.3,212.93,58.36,-15.26,,39.923,,,,NaN,,,,0 / 0,1012,2014-12-14 04:47:15:926
3.9521,4.3738,2.5497,1.8587,-8.0479,5.2865,2.7505,10.6173,1.0977,-1.0568,-1.0788,0.3067,2008.0,8.3,14.2,-59.3,217.37,55.15,-19.37,,39.923,,,,NaN,,,,0 / 0,1062,2014-12-14 04:47:15:976
7.1981,-6.8647,6.1782,1.9178,-8.0617,5.2442,4.133,14.3281,-12.9032,-1.2792,2.9993,0.7538,2008.0,9.6,15.0,-57.4,217.37,55.15,-19.37,,39.923,,,,NaN,,,,0 / 0,1112,2014-12-14 04:47:16:026
3.1185,-5.5996,11.9151,2.2434,-8.3005,4.7158,0.8751,2.7009,7.1993,-2.441,1.4355,0.7416,1573.0,10.9,15.0,-54.4,228.52,57.82,-25.44,,39.923,,,,NaN,,,,0 / 0,1162,2014-12-14 04:47:16:076
-0.7845,-11.6601,-8.3455,1.8985,-9.3427,2.2979,-2.683,-2.3174,-10.6433,-3.4697,4.1588,-0.529,1573.0,14.4,16.3,-38.3,242.24,69.88,-33.91,,58.146,,,,NaN,,,,0 / 0,1212,2014-12-14 04:47:16:126
-2.8635,-13.8862,-5.3839,2.0831,-9.5263,-1.0394,-3.5345,-4.252,-4.6485,-3.5565,0.7648,-1.5785,1573.0,12.6,17.6,-24.7,327.91,76.27,-116.52,,58.146,,,,NaN,,,,0 / 0,1262,2014-12-14 04:47:16:176
-8.522,-19.1328,-4.0109,2.1929,-9.1329,-2.8197,-8.5672,-9.127,-0.9558,-4.0354,-0.2932,-1.5797,1573.0,10.0,18.1,-17.9,352.95,68.64,-142.13,,58.146,,,,NaN,,,,0 / 0,1312,2014-12-14 04:47:16:226
-2.8635,-19.9761,9.6497,1.3745,-8.8641,-3.9636,-4.238,-11.1121,13.6133,-2.5253,1.9193,0.8393,1573.0,9.2,16.8,-13.0,352.95,68.64,-142.13,,58.146,,,,NaN,,,,0 / 0,1362,2014-12-14 04:47:16:276
-1.3141,-6.6587,4.6974,1.1141,-9.4302,-2.4498,-2.4282,2.7714,7.1472,0.0757,-0.5791,-0.5632,1573.0,10.0,14.2,-9.6,16.67,74.07,-155.55,,58.146,,,,NaN,,,,0 / 0,1412,2014-12-14 04:47:16:326
-10.7579,-5.325,6.9529,0.8442,-9.6445,-1.5628,-11.6021,4.3194,8.5157,1.0372,0.5608,-0.2028,1573.0,8.7,14.6,-8.6,13.9,79.56,-151.62,,58.146,,,,NaN,,,,0 / 0,1462,2014-12-14 04:47:16:376
-0.8826,-9.1888,1.9711,-0.3412,-9.788,0.4981,-0.5414,0.5992,1.473,2.81,-2.8136,0.1258,1573.0,12.6,15.5,-13.5,13.9,79.56,-151.62,,58.146,,,,NaN,,,,0 / 0,1513,2014-12-14 04:47:16:427
-0.4315,-14.4648,-1.2651,-0.3489,-9.753,0.9635,-0.0826,-4.7118,-2.2285,3.0824,-2.5766,0.1075,858.0,12.6,15.9,-13.5,207.64,84.0,19.91,,58.146,,,,NaN,,,,0 / 0,1562,2014-12-14 04:47:16:476
0.4119,-19.2701,-3.6187,-0.5542,-9.5263,2.2611,0.9661,-9.7438,-5.8798,3.8594,-1.5785,1.4368,858.0,15.7,16.3,-20.8,208.13,76.27,13.77,,58.146,,,,NaN,,,,0 / 0,1613,2014-12-14 04:47:16:527
2.8341,-19.8192,-11.0521,-0.7838,-9.393,2.7071,3.6179,-10.4263,-13.7592,4.2602,-0.4496,1.9047,858.0,18.3,15.5,-22.2,208.13,76.27,13.77,,70.976,,,,NaN,,,,0 / 0,1662,2014-12-14 04:47:16:576
3.0008,-2.1869,-6.0997,-1.2353,-9.0818,3.4878,3.7949,-4.6671,-7.1457,2.7917,-2.6389,1.0678,858.0,24.0,12.9,-30.1,203.71,67.83,19.5,,70.976,,,,NaN,,,,0 / 0,1712,2014-12-14 04:47:16:626
6.4234,3.1774,-4.0403,-0.6861,-9.1483,3.4653,4.5499,8.5501,-9.212,-0.6206,-1.0922,0.3922,858.0,26.6,11.6,-38.3,203.71,67.83,19.5,,70.976,,,,NaN,,,,0 / 0,1762,2014-12-14 04:47:16:676
7.9336,1.2651,-2.9126,0.7246,-9.5501,2.1072,7.209,10.8152,-5.0198,-0.9383,-0.3299,-0.5571,2481.0,27.9,12.4,-39.3,238.16,76.87,-18.98,,70.976,,,,NaN,,,,0 / 0,1812,2014-12-14 04:47:16:726
7.9336,1.2651,-2.9126,0.7246,-9.5501,2.1072,7.209,10.8152,-5.0198,-0.9383,-0.3299,-0.5571,2481.0,27.9,12.4,-39.3,238.16,76.87,-18.98,,70.976,,,,NaN,,,,0 / 0,1870,2014-12-14 04:47:16:784
2.5497,-0.608,-5.884,2.2475,-9.3666,1.8398,0.3022,8.7586,-7.7238,-0.981,5.3292,0.3372,2481.0,29.2,11.1,-26.1,283.11,72.77,-50.7,,70.976,,,,NaN,,,,0 / 0,1913,2014-12-14 04:47:16:827
4.3836,-17.0832,-12.1897,3.273,-9.2259,-0.584,-6.0061,3.3997,-5.4102,-0.981,5.3292,0.3372,2481.0,29.2,11.1,-26.1,283.11,72.77,-50.7,,70.976,,,,NaN,,,,0 / 0,1963,2014-12-14 04:47:16:877
-14.6413,-14.9846,-12.7977,3.8067,-8.147,-3.9122,-18.448,-6.8375,-8.8855,-6.2675,-0.5657,-1.6249,2789.0,21.8,11.1,-3.7,31.41,56.18,-135.78,,70.976,,,,NaN,,,,0 / 0,2012,2014-12-14 04:47:16:926
0.6472,-19.8487,8.1689,2.7629,-7.8708,-5.1563,-6.2835,-11.821,9.0593,-2.4545,0.5718,-1.19,2789.0,18.7,11.1,-1.3,48.36,53.38,-151.82,,70.976,,,,NaN,,,,0 / 0,2062,2014-12-14 04:47:16:976
-1.118,-19.9663,12.8467,2.4265,-8.1439,-4.8948,-3.5445,-11.8224,17.7415,-2.1649,0.215,0.7233,2789.0,17.0,9.4,2.1,48.36,53.38,-151.82,,70.976,,,,NaN,,,,0 / 0,2112,2014-12-14 04:47:17:026
-2.6086,-4.4914,0.559,2.4453,-9.0134,-2.9916,-5.0539,4.5219,3.5506,0.9016,-0.0024,-0.9285,1053.0,15.7,12.9,-1.3,37.83,66.8,-140.74,,71.923,,,,NaN,,,,0 / 0,2163,2014-12-14 04:47:17:077
-2.7459,-5.8644,4.6778,1.2644,-9.666,-1.068,-4.0102,3.8016,5.7458,3.0885,-2.3188,0.6341,1053.0,10.9,20.7,-5.7,37.83,66.8,-140.74,,71.923,,,,NaN,,,,0 / 0,2213,2014-12-14 04:47:17:127
-2.991,-17.652,-7.4727,0.4222,-9.7422,1.04,-3.4132,-7.9098,-8.5126,3.2999,-2.4862,0.6231,1053.0,11.3,21.6,-8.6,355.78,83.42,-124.35,,71.923,,,,NaN,,,,0 / 0,2263,2014-12-14 04:47:17:177
2.1477,-19.4172,-5.0995,-0.0748,-9.7194,1.303,2.2225,-9.6978,-6.4025,3.6664,-1.9462,2.0598,1053.0,14.4,25.0,-23.2,212.04,82.35,3.29,,71.923,,,,NaN,,,,0 / 0,2313,2014-12-14 04:47:17:227
1.7652,-10.4735,-2.9812,-0.2898,-9.6891,1.4861,3.2906,-10.0223,-8.8214,3.9022,-1.9682,2.2675,2350.0,14.8,25.0,-25.2,212.04,82.35,3.29,,71.923,,,,NaN,,,,0 / 0,2362,2014-12-14 04:47:17:276
0.5982,-3.4029,-2.4517,-0.3809,-9.5472,2.2083,0.9791,6.1443,-4.66,0.2224,-1.8619,0.2175,2350.0,17.0,21.6,-47.6,191.55,76.55,11.78,,71.923,,,,NaN,,,,0 / 0,2412,2014-12-14 04:47:17:326
7.0216,1.2062,-2.6478,0.6053,-9.7119,1.218,6.4163,10.9181,-3.8658,-1.3696,-0.7929,-1.3341,2350.0,15.3,23.7,-48.6,226.43,82.03,-26.42,,71.923,,,,NaN,,,,0 / 0,2462,2014-12-14 04:47:17:376
7.4334,-0.5198,-2.1869,1.341,-9.6723,0.9046,6.6808,10.0057,-3.5033,-0.6096,0.1283,-0.8552,2350.0,13.5,24.6,-47.6,257.1,80.51,-56.0,,71.923,,,,NaN,,,,0 / 0,2512,2014-12-14 04:47:17:426
3.9913,-2.1575,-2.2261,2.2419,-9.5345,0.4866,2.9066,7.8086,-2.5754,-0.5913,1.9328,0.3922,1989.0,13.1,25.5,-46.1,257.1,80.51,-56.0,,71.923,,,,NaN,,,,0 / 0,2563,2014-12-14 04:47:17:477
3.0597,1.9711,-6.4822,2.8381,-9.3864,-0.1073,0.0352,10.6514,-4.3057,-1.6102,4.2541,0.1038,1989.0,15.7,25.9,-40.3,301.66,73.16,-92.16,,71.923,,,,NaN,,,,0 / 0,2612,2014-12-14 04:47:17:526
-3.6677,-17.8089,-12.6996,3.5244,-9.0358,-1.4502,-7.1921,-8.7731,-11.2494,-1.6102,4.2541,0.1038,1989.0,15.7,25.9,-40.3,301.66,73.16,-92.16,,70.369,,,,NaN,,,,0 / 0,2662,2014-12-14 04:47:17:576
-17.4264,-17.7598,-5.2073,3.8811,-8.3606,-3.3478,-18.9931,-7.1633,-10.8522,-2.3286,0.0721,-2.5925,3175.0,7.9,27.6,-12.0,351.7,58.49,-130.78,,70.369,,,,NaN,,,,0 / 0,2713,2014-12-14 04:47:17:627
-17.4264,-17.7598,-5.2073,3.8811,-8.3606,-3.3478,-18.9931,-7.1633,-10.8522,-2.3286,0.0721,-2.5925,3175.0,7.9,27.6,-12.0,351.7,58.49,-130.78,,70.369,,,,NaN,,,,0 / 0,2762,2014-12-14 04:47:17:676
3.1381,-19.6329,11.9739,3.6163,-8.0452,-4.2856,-0.4782,-11.5877,16.2596,-1.6787,0.5938,0.3372,3175.0,5.3,27.2,-7.6,356.69,55.12,-139.84,,70.369,,,,NaN,,,,0 / 0,2812,2014-12-14 04:47:17:726
1.3043,-17.9364,10.4637,3.0754,-8.2466,-4.3251,-1.7711,-9.6898,14.7888,-0.8015,0.6035,0.3836,3175.0,5.3,27.2,-7.1,0.05,57.24,-144.59,,70.369,,,,NaN,,,,0 / 0,2862,2014-12-14 04:47:17:776
-5.0308,-2.2163,0.3923,3.3519,-8.9987,-1.9895,-8.3828,6.7824,2.3818,0.661,1.1313,-0.9432,1212.0,3.5,27.6,-8.6,0.05,57.24,-144.59,,70.369,,,,NaN,,,,0 / 0,2912,2014-12-14 04:47:17:826
-7.6002,-2.5007,3.1185,3.2116,-9.0975,-1.7582,-10.8117,6.5968,4.8767,0.931,1.1338,-0.6329,1212.0,3.1,28.5,-9.1,339.52,68.08,-118.7,,70.369,,,,NaN,,,,0 / 0,2962,2014-12-14 04:47:17:876
-3.9521,-6.3743,4.9818,1.5792,-9.6727,-0.3409,-5.5313,3.2983,5.3226,2.3995,-1.1619,0.6781,1212.0,4.4,29.4,-13.5,339.52,68.08,-118.7,,70.369,,,,NaN,,,,0 / 0,3014,2014-12-14 04:47:17:928
-3.0597,-16.0535,-3.5206,0.8458,-9.7289,0.8963,-3.219,-2.3823,-3.1421,2.9444,-2.0855,1.5406,1212.0,7.9,28.9,-22.2,252.04,82.78,-43.34,,70.369,,,,NaN,,,,0 / 0,3062,2014-12-14 04:47:17:976
4.8935,-19.9663,-11.5522,-0.6525,-9.5819,1.983,5.546,-10.3845,-13.5353,3.8558,-0.3238,1.5345,2381.0,13.1,23.3,-38.3,180.79,77.71,18.21,,70.369,,,,NaN,,,,0 / 0,3112,2014-12-14 04:47:18:026
2.589,-17.142,-4.6091,-0.6655,-9.5614,2.0753,3.2545,-7.5806,-6.6844,3.5308,-0.452,1.73,2381.0,13.5,21.6,-41.3,180.79,77.71,18.21,,70.369,,,,NaN,,,,0 / 0,3162,2014-12-14 04:47:18:076
3.8834,-2.6086,-3.599,-0.4856,-9.5809,2.0351,5.4966,8.4342,-6.2782,1.168,-2.7489,0.9591,2381.0,14.4,17.2,-47.6,178.39,75.96,17.69,,72.139,,,,NaN,,,,0 / 0,3212,2014-12-14 04:47:18:126
4.3149,-0.814,2.687,-0.4856,-9.5809,2.0351,5.4966,8.4342,-6.2782,-0.3506,-1.3647,-0.8027,2381.0,10.5,17.6,-52.5,178.39,75.96,17.69,,72.139,,,,NaN,,,,0 / 0,3262,2014-12-14 04:47:18:176
4.4718,-1.52,4.2561,1.5757,-9.6506,0.7433,2.7392,8.8367,1.9437,0.4862,1.7874,0.3372,2381.0,10.5,17.2,-52.0,260.11,79.77,-64.75,,72.139,,,,NaN,,,,0 / 0,3312,2014-12-14 04:47:18:226
-8.4337,-15.671,-5.2171,2.5543,-9.4528,-0.5383,-0.567,-0.3306,-12.0809,-0.4643,4.7684,-1.2779,2381.0,10.5,18.5,-36.9,303.88,74.56,-101.9,,72.139,,,,NaN,,,,0 / 0,3362,2014-12-14 04:47:18:276
4.5797,3.3833,-11.2384,3.7109,-8.8415,-2.0563,0.8688,12.2248,-9.1821,-4.3848,0.1918,-3.218,2381.0,7.4,19.8,-32.5,318.86,64.37,-101.9,,72.139,,,,NaN,,,,0 / 0,3413,2014-12-14 04:47:18:327
1.4612,-1.1082,-12.2975,4.2209,-8.3255,-3.0068,-2.7597,7.2173,-9.2907,-8.9565,-2.3421,-2.9065,2381.0,7.0,21.1,-29.6,318.86,64.37,-118.99,,72.139,,,,NaN,,,,0 / 0,3462,2014-12-14 04:47:18:376
-13.4547,-17.6324,-6.4037,4.3261,-6.8381,-5.5403,-17.7808,-10.7942,-0.8634,-3.6982,0.6304,-1.9939,2381.0,3.5,21.1,-23.2,339.49,44.21,-142.02,,72.139,,,,NaN,,,,0 / 0,3513,2014-12-14 04:47:18:427
0.8924,-7.61,8.62,3.5133,-7.6163,-5.0812,-3.2093,-10.1631,15.9274,0.0562,0.6866,-0.2517,1947.0,0.0,19.8,-15.9,339.49,44.21,-142.02,,72.139,,,,NaN,,,,0 / 0,3563,2014-12-14 04:47:18:477
0.7159,-5.3544,8.0316,3.6065,-8.0428,-4.2986,-2.7141,0.4328,12.9186,0.0843,1.2193,-0.5938,1947.0,-0.8,19.4,-14.0,332.97,55.1,-140.0,,72.139,,,,NaN,,,,0 / 0,3612,2014-12-14 04:47:18:526
-3.8442,-2.4615,2.2359,4.1196,-8.3772,-3.0036,-7.9638,5.9158,5.2395,0.8589,1.3757,-0.6744,1947.0,-2.6,19.4,-10.5,332.97,55.1,-140.0,,72.139,,,,NaN,,,,0 / 0,3663,2014-12-14 04:47:18:577
1.2258,-6.1488,-1.2258,2.6804,-9.3672,-1.1145,-1.2879,4.405,2.4384,2.5717,-1.2462,0.3506,1947.0,3.5,24.6,-15.9,326.89,63.79,-122.41,,72.139,,,,NaN,,,,0 / 0,3712,2014-12-14 04:47:18:626
0.0196,-8.2572,-5.3544,2.6275,-9.4148,-0.7926,-1.4017,3.266,-0.4332,2.5766,-0.5253,0.4398,1947.0,4.0,25.0,-15.9,316.85,73.75,-106.79,,71.354,,,,NaN,,,,0 / 0,3762,2014-12-14 04:47:18:676
1.5495,-19.5447,-11.1502,0.1936,-9.7989,0.3379,1.3558,-9.7457,-11.4881,2.6133,-2.0354,2.6964,1947.0,12.6,23.7,-27.6,316.85,73.75,-106.79,,71.354,,,,NaN,,,,0 / 0,3812,2014-12-14 04:47:18:726
2.7557,-5.4819,-1.5789,-0.2224,-9.7375,1.1411,2.9781,4.2556,-2.72,1.9242,-2.3115,1.1484,4032.0,17.0,20.3,-39.3,193.35,83.19,11.03,,71.354,,,,NaN,,,,0 / 0,3862,2014-12-14 04:47:18:776
2.5301,0.7845,-1.6769,-0.2026,-9.7537,0.9972,2.7327,10.5382,-2.6741,-0.8015,-2.0769,-0.0977,4032.0,16.6,19.4,-43.7,193.35,83.19,11.03,,71.354,,,,NaN,,,,0 / 0,3912,2014-12-14 04:47:18:826
4.8249,-2.7164,-0.657,1.4928,-9.6851,-0.375,3.3321,6.9687,-0.2821,-0.5522,-1.4844,-0.8381,4032.0,14.4,22.0,-48.1,303.37,80.97,-104.1,,71.354,,,,NaN,,,,0 / 0,3962,2014-12-14 04:47:18:876
2.1771,2.7459,-0.1275,2.0642,-9.586,-0.1312,0.1128,12.3319,0.0037,0.1185,1.7849,0.1894,2364.0,14.8,20.3,-47.1,295.34,77.82,-93.64,,71.354,,,,NaN,,,,0 / 0,4012,2014-12-14 04:47:18:926
2.5693,4.1482,-2.942,2.1625,-9.5652,-0.0281,0.4068,13.7134,-2.9139,-0.281,1.912,0.0257,2364.0,15.3,19.8,-45.7,295.34,77.82,-93.64,,71.354,,,,NaN,,,,0 / 0,4062,2014-12-14 04:47:18:976
4.0894,3.3539,-14.9257,2.6827,-9.4321,-0.0964,8.6538,19.6604,-9.1022,-8.3737,-0.54,-1.3635,2364.0,16.1,19.8,-30.1,298.32,74.11,-92.06,,71.354,,,,NaN,,,,0 / 0,4113,2014-12-14 04:47:19:027
-16.9361,-17.7108,-1.0199,4.9838,-6.2484,-5.6824,-21.9199,-11.4625,4.6625,-1.5088,1.08,-2.1429,3469.0,10.9,24.2,-28.1,344.41,39.58,-138.75,,73.291,,,,NaN,,,,0 / 0,4162,2014-12-14 04:47:19:076
-4.7758,-18.1031,9.13,4.2969,-6.5104,-5.9433,-9.0727,-11.5927,15.0733,-1.5088,1.08,-2.1429,3469.0,10.9,24.2,-28.1,344.41,39.58,-138.75,,73.291,,,,NaN,,,,0 / 0,4212,2014-12-14 04:47:19:126
4.7562,-10.4637,5.9723,4.4788,-7.2914,-4.7902,0.2774,-3.1723,10.7625,-0.8308,0.7416,0.0073,3469.0,9.2,25.0,-26.1,342.47,48.03,-136.92,,73.291,,,,NaN,,,,0 / 0,4262,2014-12-14 04:47:19:176
-1.6181,-0.0392,1.6377,5.1222,-7.665,-3.3439,-8.1426,7.5571,3.0694,0.0354,1.9939,-0.7379,3469.0,7.0,23.7,-21.8,342.47,48.03,-136.92,,73.291,,,,NaN,,,,0 / 0,4313,2014-12-14 04:47:19:227
-1.6181,-0.0392,1.6377,5.2235,-7.6629,-3.1883,-6.8416,7.6236,4.826,0.0354,1.9939,-0.7379,3469.0,5.7,24.6,-19.8,333.31,51.39,-121.4,,73.291,,,,NaN,,,,0 / 0,4363,2014-12-14 04:47:19:277
-1.824,-15.0924,-0.0785,5.3234,-7.77,-2.731,-7.6672,1.0034,4.4275,2.6524,-1.1106,1.8509,2770.0,4.0,23.7,-20.8,326.07,52.4,-117.16,,73.291,,,,NaN,,,,0 / 0,4413,2014-12-14 04:47:19:327
1.4416,-19.6918,-3.8736,4.0247,-8.9343,-0.3878,-10.0656,-9.8356,-1.7108,2.6524,-1.1106,1.8509,2770.0,4.0,23.3,-24.2,326.07,52.4,-117.16,,73.291,,,,NaN,,,,0 / 0,4462,2014-12-14 04:47:19:376
13.9254,-19.986,-9.2084,1.8347,-9.6321,0.167,11.522,-10.3343,-11.5525,3.1753,-1.1374,3.196,2770.0,9.2,19.8,-30.1,287.86,79.17,-84.8,,73.291,,,,NaN,,,,0 / 0,4512,2014-12-14 04:47:19:426
0.1373,-9.8655,-2.1378,1.1576,-9.7159,0.6563,-1.0204,-0.1495,-2.7942,2.0733,-1.9963,2.1429,4668.0,12.6,16.8,-39.3,287.86,79.17,-84.8,,73.291,,,,NaN,,,,0 / 0,4562,2014-12-14 04:47:19:476
-0.4903,-3.3245,-2.4615,0.4748,-9.7747,0.6329,-0.9651,6.4502,-3.0944,0.4423,-1.1741,1.0287,4668.0,14.0,15.5,-43.7,235.94,85.37,-36.88,,73.291,,,,NaN,,,,0 / 0,4612,2014-12-14 04:47:19:526
-0.4903,-3.3245,-2.4615,0.4748,-9.7747,0.6329,-0.9651,6.4502,-3.0944,0.4423,-1.1741,1.0287,4668.0,14.0,15.5,-43.7,235.94,85.37,-36.88,,71.022,,,,NaN,,,,0 / 0,4662,2014-12-14 04:47:19:576
4.9916,1.1278,-0.7355,0.6196,-9.7871,0.0028,4.5877,10.905,-1.1012,-0.4899,-3.8252,-0.2175,4668.0,12.2,15.9,-50.1,284.3,86.38,-89.74,,71.022,,,,NaN,,,,0 / 0,4726,2014-12-14 04:47:19:640
0.3432,-4.2463,1.52,1.5112,-9.6734,-0.5585,0.0088,6.4372,1.5686,-0.0684,-1.9939,0.4679,2535.0,8.7,16.8,-54.4,301.9,80.54,-110.28,,71.022,,,,NaN,,,,0 / 0,4762,2014-12-14 04:47:19:676
1.471,-5.6486,4.6582,1.545,-9.6721,-0.4834,-1.29,4.151,2.8468,0.2419,0.5547,0.5803,2535.0,8.3,16.8,-54.9,301.9,80.54,-110.28,,71.022,,,,NaN,,,,0 / 0,4812,2014-12-14 04:47:19:726
-1.9711,-18.613,-10.9148,1.7951,-9.5671,1.1913,-2.2659,-7.6534,-5.3787,0.9774,-1.5125,-0.4606,2535.0,7.0,18.1,-57.4,247.66,77.31,-56.43,,71.022,,,,NaN,,,,0 / 0,4863,2014-12-14 04:47:19:777
0.4805,-17.3872,-0.3138,1.5249,-9.6869,0.099,-1.8878,-8.073,2.441,0.6109,-0.0611,-0.1136,1906.0,6.6,18.1,-57.4,247.66,77.31,-56.43,,71.022,,,,NaN,,,,0 / 0,4912,2014-12-14 04:47:19:826
-1.5396,-10.905,0.1667,1.4379,-9.6999,0.1214,-2.9776,-1.2051,0.0453,-0.0134,-1.2022,-0.2957,1906.0,9.6,19.0,-56.4,278.03,81.54,-85.17,,71.022,,,,NaN,,,,0 / 0,4963,2014-12-14 04:47:19:877
-3.0891,-7.306,0.2354,1.2714,-9.7221,-0.1866,-4.3605,2.4161,0.422,-0.755,-0.2834,-0.573,1906.0,7.9,19.8,-55.9,288.86,82.47,-98.35,,71.022,,,,NaN,,,,0 / 0,5104,2014-12-14 04:47:20:018
-3.0891,-7.306,0.2354,1.2714,-9.7221,-0.1866,-4.3605,2.4161,0.422,-0.755,-0.2834,-0.573,1906.0,7.9,19.8,-55.9,288.86,82.47,-98.35,,71.022,,,,NaN,,,,0 / 0,5110,2014-12-14 04:47:20:024
-5.1779,-9.3555,3.3146,0.6775,-9.7722,-0.4631,-5.8554,0.4167,3.7778,-0.9273,-0.3189,0.1234,1906.0,7.4,21.6,-55.4,312.9,85.2,-124.35,,71.022,,,,NaN,,,,0 / 0,5114,2014-12-14 04:47:20:028
0.2059,-8.0218,1.6475,0.0464,-9.8024,-0.2863,0.1595,1.7805,1.9338,-0.7098,-0.6707,0.16,1906.0,6.6,22.4,-54.4,312.9,85.2,-124.35,,71.022,,,,NaN,,,,0 / 0,5162,2014-12-14 04:47:20:076
0.4609,-10.6991,2.8832,0.091,-9.8016,-0.3011,0.6445,0.2695,2.89,-0.5363,0.2272,0.077,1906.0,6.6,23.3,-54.0,350.7,88.16,-163.19,,71.022,,,,NaN,,,,0 / 0,5212,2014-12-14 04:47:20:126
0.4511,-9.6007,0.6767,0.2157,-9.8039,-0.083,0.4609,-0.9736,1.7893,-0.2969,0.1148,-0.088,1906.0,6.1,24.6,-52.5,350.7,88.16,-163.19,,70.634,,,,NaN,,,,0 / 0,5262,2014-12-14 04:47:20:176
-1.2356,-10.4049,0.912,0.1492,-9.8039,-0.1771,-1.8948,-0.8461,0.6772,-0.3152,0.099,-0.0721,1906.0,6.6,25.0,-52.0,300.64,88.0,-112.17,,70.634,,,,NaN,,,,0 / 0,5312,2014-12-14 04:47:20:226
-1.7064,-10.4441,2.3438,-0.0263,-9.8064,-0.0712,-1.5232,-0.7162,2.5915,-0.099,0.0525,-0.0501,1906.0,6.6,26.3,-51.0,358.84,88.72,-172.12,,70.634,,,,NaN,,,,0 / 0,5362,2014-12-14 04:47:20:276
-1.7064,-10.4441,2.3438,-0.0263,-9.8064,-0.0712,-1.5232,-0.7162,2.5915,-0.099,0.0525,-0.0501,1906.0,6.6,26.3,-51.0,358.84,88.72,-172.12,,70.634,,,,NaN,,,,0 / 0,5412,2014-12-14 04:47:20:326
0.0392,-9.6596,1.1572,-0.2746,-9.7934,0.4302,0.3138,0.1338,0.727,-0.0428,-0.2382,0.0257,1906.0,4.8,26.3,-50.5,145.12,89.01,41.42,,70.634,,,,NaN,,,,0 / 0,5462,2014-12-14 04:47:20:376
0.0883,-9.4928,1.1278,-0.2605,-9.7934,0.4372,0.3488,0.3006,0.6906,-0.0586,-0.2065,0.0305,1906.0,4.8,26.8,-50.5,154.19,87.03,30.79,,70.634,,,,NaN,,,,0 / 0,5513,2014-12-14 04:47:20:427
-0.0294,-9.7674,1.5396,-0.0855,-9.7944,0.4816,0.0561,0.027,1.0581,-0.0489,-0.0367,-0.0867,1906.0,4.8,27.6,-51.5,175.4,87.14,10.07,,70.634,,,,NaN,,,,0 / 0,5562,2014-12-14 04:47:20:476
-0.1275,-9.9145,1.6083,-0.0591,-9.7939,0.4969,-0.0684,-0.1206,1.1114,-0.0489,-0.0489,-0.0806,1906.0,5.3,26.8,-51.0,175.4,87.14,10.07,,70.634,,,,NaN,,,,0 / 0,5613,2014-12-14 04:47:20:527
-0.4805,-9.9538,1.9123,-0.0021,-9.7908,0.5581,-0.0371,-0.1336,0.9031,-0.1038,-0.077,-0.0855,1906.0,4.8,27.2,-51.5,185.56,86.74,0.22,,70.634,,,,NaN,,,,0 / 0,5663,2014-12-14 04:47:20:577
-0.0785,-9.8753,1.3729,0.0851,-9.7854,0.6398,-0.1636,-0.0899,0.7331,-0.099,-0.27,-0.1515,1906.0,4.0,27.6,-51.0,192.75,86.59,-7.83,,60.038,,,,NaN,,,,0 / 0,5713,2014-12-14 04:47:20:627
-0.0392,-9.7674,1.1572,0.0872,-9.784,0.6602,-0.0872,-0.0324,0.5755,-0.0464,0.1295,-0.0757,1906.0,4.0,27.6,-50.1,192.6,86.11,-7.53,,60.038,,,,NaN,,,,0 / 0,5763,2014-12-14 04:47:20:677
-0.1765,-10.0126,1.4122,0.1214,-9.7844,0.6483,-0.2096,-0.1399,0.607,-0.1063,-0.0147,-0.0562,1906.0,3.5,27.6,-50.1,192.6,86.11,-7.53,,60.038,,,,NaN,,,,0 / 0,5812,2014-12-14 04:47:20:726
-0.1667,-9.993,1.167,0.1378,-9.7865,0.6137,-0.3045,-0.2065,0.5532,-0.1368,-0.0757,-0.0648,1906.0,3.5,28.1,-50.1,197.89,86.32,-12.65,,60.038,,,,NaN,,,,0 / 0,5862,2014-12-14 04:47:20:776
0.1177,-10.0126,1.3337,0.1569,-9.7876,0.5898,-0.0393,-0.225,0.7439,-0.1258,-0.1014,-0.0733,1906.0,3.1,28.5,-49.6,199.04,86.43,-14.9,,60.038,,,,NaN,,,,0 / 0,5913,2014-12-14 04:47:20:827