ACCELEROMETER X (m/s²),ACCELEROMETER Y (m/s²),ACCELEROMETER Z (m/s²),GRAVITY X (m/s²),GRAVITY Y (m/s²),GRAVITY Z (m/s²),LINEAR ACCELERATION X (m/s²),LINEAR ACCELERATION Y (m/s²),LINEAR ACCELERATION Z (m/s²),GYROSCOPE X (rad/s),GYROSCOPE Y (rad/s),GYROSCOPE Z (rad/s),LIGHT (lux),MAGNETIC FIELD X (μT),MAGNETIC FIELD Y (μT),MAGNETIC FIELD Z (μT),ORIENTATION X (°),ORIENTATION Y (°),ORIENTATION Z (°),PROXIMITY (i),SOUND LEVEL (dB),LOCATION Latitude : ,LOCATION Longitude : ,LOCATION Altitude ( m),LOCATION Altitude-google ( m),LOCATION Speed ( Kmh),LOCATION Accuracy ( m),LOCATION ORIENTATION (°),Satellites in range,Time since start in ms ,YYYY-MO-DD HH-MI-SS_SSS
0.8434,-9.3654,3.0106,2.5328,-9.2993,1.8106,-1.6894,-0.0661,1.2,-0.4594,0.0012,-0.5742,1771.0,14.8,14.6,-47.6,257.64,71.52,-54.06,,61.288,,,,NaN,,,,0 / 0,8,2014-12-14 04:49:44:413
0.9611,-9.2967,3.1087,2.5412,-9.2986,1.8026,-1.6096,-0.0766,1.2669,-0.4508,-0.0281,-0.5803,1771.0,14.8,15.0,-48.1,258.23,71.48,-54.65,,61.288,,,,NaN,,,,0 / 0,63,2014-12-14 04:49:44:468
0.912,-9.4242,2.991,2.5733,-9.2902,1.8002,-1.6613,-0.134,1.1909,-0.4655,0.0171,-0.5742,1771.0,14.4,15.0,-47.6,258.29,71.47,-54.71,,61.288,,,,NaN,,,,0 / 0,108,2014-12-14 04:49:44:513
0.8532,-9.3654,2.991,2.5933,-9.293,1.7565,-1.6715,-0.0527,1.2737,-0.4789,-0.011,-0.5693,1771.0,14.8,14.6,-47.6,259.47,71.37,-55.89,,61.288,,,,NaN,,,,0 / 0,158,2014-12-14 04:49:44:563
0.912,-9.4928,3.1381,2.5982,-9.2952,1.7376,-1.6862,-0.1977,1.4006,-0.474,-0.0171,-0.5852,1771.0,14.8,15.0,-48.1,259.79,71.41,-56.23,,61.288,,,,NaN,,,,0 / 0,208,2014-12-14 04:49:44:613
0.9316,-9.4046,2.9616,2.6036,-9.2952,1.7293,-1.672,-0.1094,1.2323,-0.4911,-0.0367,-0.5962,1771.0,14.4,15.0,-47.1,259.79,71.41,-56.23,,61.288,,,,NaN,,,,0 / 0,259,2014-12-14 04:49:44:664
0.9905,-9.4144,2.9812,2.634,-9.2959,1.6791,-1.6435,-0.1185,1.3021,-0.496,-0.0379,-0.5889,1771.0,14.8,15.5,-47.6,261.36,71.43,-57.48,,40.066,,,,NaN,,,,0 / 0,308,2014-12-14 04:49:44:713
0.9611,-8.7671,2.687,2.6621,-9.2967,1.6296,-1.6436,0.1165,1.2237,-0.551,0.0318,-0.5742,1771.0,14.4,15.5,-47.6,261.34,71.44,-58.53,,40.066,,,,NaN,,,,0 / 0,358,2014-12-14 04:49:44:763
1.0199,-8.8848,2.9616,2.6757,-9.2985,1.5967,-1.6558,0.4137,1.3649,-0.5644,-0.0684,-0.5852,1771.0,14.0,15.5,-47.1,261.34,71.44,-58.53,,40.066,,,,NaN,,,,0 / 0,408,2014-12-14 04:49:44:813
-0.4805,-7.404,4.5699,2.6663,-9.2673,1.7827,-2.8821,1.2847,3.2481,-0.6133,-0.3238,-0.4789,1771.0,13.5,15.9,-47.6,259.33,70.91,-56.23,,40.066,,,,NaN,,,,0 / 0,458,2014-12-14 04:49:44:863
0.4903,-9.7576,3.9619,2.351,-9.3146,1.97,-1.8606,-0.443,1.9918,-0.617,0.0745,-0.4643,1771.0,14.0,15.9,-46.6,259.33,70.91,-56.23,,40.066,,,,NaN,,,,0 / 0,508,2014-12-14 04:49:44:913
2.589,-9.6694,5.8644,2.3979,-9.2852,2.0507,0.1911,-0.3841,3.8137,-0.336,-0.9835,-0.4337,1771.0,14.4,15.9,-47.6,252.56,71.23,-49.46,,40.066,,,,NaN,,,,0 / 0,558,2014-12-14 04:49:44:963
2.8145,-8.8064,5.4917,2.688,-9.1253,2.382,0.1265,0.3189,3.1097,-0.2529,-0.4459,-0.3922,1771.0,14.4,15.5,-48.6,252.34,68.52,-48.45,,40.066,,,,NaN,,,,0 / 0,608,2014-12-14 04:49:45:013
2.9812,-8.7475,4.7955,3.0016,-8.9351,2.7064,-0.0204,0.1876,2.0891,-0.2382,-0.0599,-0.5168,1771.0,14.8,15.0,-49.6,252.34,68.52,-48.45,,40.066,,,,NaN,,,,0 / 0,658,2014-12-14 04:49:45:063
2.9224,-8.875,5.1681,3.0589,-8.9043,2.7436,-0.1365,0.0293,2.4245,-0.1845,-0.1014,-0.573,1771.0,14.0,15.0,-49.6,252.63,65.23,-48.11,,40.066,,,,NaN,,,,0 / 0,709,2014-12-14 04:49:45:114
2.0202,-8.267,5.3937,3.2721,-8.7207,3.0681,-1.2519,0.4537,2.3256,0.0794,0.0342,-0.5877,1771.0,14.8,15.0,-50.1,253.52,62.78,-46.84,,40.066,,,,NaN,,,,0 / 0,759,2014-12-14 04:49:45:164
1.8535,-6.7274,6.9529,3.5085,-7.7714,4.8441,-1.6551,1.0441,2.1088,1.6835,-0.055,-0.9859,1530.0,15.3,13.7,-53.0,246.83,52.42,-35.92,,57.157,,,,NaN,,,,0 / 0,808,2014-12-14 04:49:45:213
0.2256,-7.4236,8.5514,3.6331,-7.2929,5.4576,-3.4075,-0.1308,3.0938,1.7385,-0.0244,-1.1509,1530.0,15.3,12.9,-54.0,246.37,48.04,-33.65,,57.157,,,,NaN,,,,0 / 0,858,2014-12-14 04:49:45:263
0.2256,-7.4236,8.5514,3.6331,-7.2929,5.4576,-3.4075,-0.1308,3.0938,1.7385,-0.0244,-1.1509,1530.0,15.3,12.9,-54.0,246.37,48.04,-33.65,,57.157,,,,NaN,,,,0 / 0,909,2014-12-14 04:49:45:314
-1.8829,-9.483,7.2863,3.5184,-6.7907,6.1382,-5.4013,-2.6923,1.1482,1.2853,-1.4062,-0.931,1530.0,15.3,12.0,-57.4,243.72,43.83,-29.82,,57.157,,,,NaN,,,,0 / 0,958,2014-12-14 04:49:45:363
5.1387,2.4419,7.306,3.9659,-6.4225,6.2605,1.1728,8.8643,1.0454,-1.8473,-0.8638,-0.1234,1530.0,14.0,12.4,-60.8,246.03,40.91,-32.35,,57.157,,,,NaN,,,,0 / 0,1008,2014-12-14 04:49:45:413
6.6881,2.0594,-5.276,5.0296,-6.0599,5.8438,1.6585,8.1193,-11.1198,-3.2938,1.5345,0.6109,932.0,16.6,15.9,-56.4,262.17,38.17,-40.72,,57.157,,,,NaN,,,,0 / 0,1059,2014-12-14 04:49:45:464
5.2564,-15.3474,-5.325,5.4458,-6.454,4.9859,1.4973,-9.2268,-0.2198,-2.5155,3.4147,-0.1491,932.0,20.0,15.9,-51.5,262.17,38.17,-40.72,,57.157,,,,NaN,,,,0 / 0,1108,2014-12-14 04:49:45:513
2.1771,-6.9235,-4.0698,4.5975,-7.8355,3.693,-2.4204,0.912,-7.7628,-3.4147,4.5558,-0.5547,932.0,24.4,17.6,-36.9,279.4,53.03,-51.23,,57.157,,,,NaN,,,,0 / 0,1158,2014-12-14 04:49:45:563
-1.6671,-13.9058,-2.4909,4.1185,-8.7626,1.5574,-5.7856,-5.1432,-4.0483,-3.813,3.1741,-1.3659,2254.0,23.5,18.1,-17.9,311.56,63.32,-69.29,,57.157,,,,NaN,,,,0 / 0,1208,2014-12-14 04:49:45:613
-5.2564,-11.5915,-2.03,3.8477,-9.0115,-0.3985,-9.1041,-2.58,-1.6315,-4.0195,1.2804,-2.1979,2254.0,21.8,17.6,-8.6,311.56,63.32,-69.29,,57.157,,,,NaN,,,,0 / 0,1258,2014-12-14 04:49:45:663
-6.9823,-12.0328,-2.4909,3.8133,-8.9962,-0.8353,-10.7957,-3.0366,-1.6556,-4.3494,0.7123,-2.2309,2254.0,21.3,17.2,-5.7,357.07,66.54,-102.36,,67.62,,,,NaN,,,,0 / 0,1309,2014-12-14 04:49:45:714
-10.6304,-17.75,-4.3149,3.3792,-8.8996,-2.3555,-12.6269,-9.9782,-2.0575,-4.6279,-1.025,-1.7385,2254.0,21.8,15.0,-3.2,357.07,66.54,-102.36,,67.62,,,,NaN,,,,0 / 0,1358,2014-12-14 04:49:45:763
-4.3934,-19.7212,-1.5102,2.813,-8.8424,-3.1732,-7.2064,-10.8788,1.663,-3.8924,0.4814,-0.7123,2254.0,22.6,13.3,-0.3,41.61,64.38,-138.44,,67.62,,,,NaN,,,,0 / 0,1433,2014-12-14 04:49:45:838
-1.0591,-19.9271,6.3449,2.4056,-8.7913,-3.619,-3.4648,-11.1358,9.9639,-3.2645,1.1118,0.171,2254.0,23.1,11.6,1.2,50.95,63.7,-146.39,,67.62,,,,NaN,,,,0 / 0,1458,2014-12-14 04:49:45:863
0.5884,-12.2387,6.492,2.3233,-8.9559,-3.2504,-1.7349,-3.2828,9.7424,-1.9352,-0.2114,-0.4899,2254.0,25.7,9.0,3.1,56.34,65.96,-144.44,,67.62,,,,NaN,,,,0 / 0,1508,2014-12-14 04:49:45:913
-9.8851,-5.7369,8.6299,3.2845,-8.9255,-2.3911,-13.1696,3.1886,11.0209,0.0342,0.9627,-0.9102,2254.0,25.3,11.6,3.6,40.22,65.53,-126.05,,67.62,,,,NaN,,,,0 / 0,1558,2014-12-14 04:49:45:963
-4.3051,-6.139,6.7568,2.3801,-9.4562,-1.042,-6.6852,3.3172,7.7988,2.2394,-1.554,-0.3543,2254.0,24.4,15.0,-0.3,40.22,65.53,-126.05,,67.62,,,,NaN,,,,0 / 0,1609,2014-12-14 04:49:46:014
3.0695,-19.9663,-8.8554,0.8697,-9.5763,1.9257,2.1998,-10.39,-10.7811,4.0439,-2.6976,0.8332,876.0,22.2,20.7,-19.3,275.6,78.93,-38.43,,67.62,,,,NaN,,,,0 / 0,1658,2014-12-14 04:49:46:063
4.9524,-19.9958,-5.021,0.7301,-9.4939,2.3458,4.2222,-10.5018,-7.3668,4.9871,0.2932,1.0971,876.0,21.3,22.0,-30.5,240.82,75.49,-17.29,,67.62,,,,NaN,,,,0 / 0,1708,2014-12-14 04:49:46:113
-0.5099,-13.6116,-4.1776,0.5774,-9.2043,3.3344,-1.0874,-4.4074,-7.5121,1.7349,-2.7599,-0.044,2383.0,21.3,17.6,-46.6,220.27,69.81,-9.82,,67.62,,,,NaN,,,,0 / 0,1758,2014-12-14 04:49:46:163
4.0305,4.2365,-4.7072,0.8725,-9.3009,2.9838,3.158,13.5373,-7.691,1.7349,-2.7599,-0.044,2383.0,21.3,17.6,-46.6,220.27,69.81,-9.82,,67.62,,,,NaN,,,,0 / 0,1809,2014-12-14 04:49:46:214
3.5794,2.0986,-2.7753,3.1684,-9.2688,0.4708,0.4111,11.3674,-3.2461,-1.8839,1.3744,-0.6365,2383.0,16.1,21.1,-51.5,241.99,74.57,-38.98,,66.976,,,,NaN,,,,0 / 0,1858,2014-12-14 04:49:46:263
3.5794,2.0986,-2.7753,4.0904,-8.8718,0.8542,1.9799,10.7939,-8.1013,-1.8839,1.3744,-0.1857,2383.0,17.9,21.6,-44.7,289.6,64.78,-78.2,,66.976,,,,NaN,,,,0 / 0,1908,2014-12-14 04:49:46:313
2.2653,-18.4463,-9.9538,5.0681,-8.3829,0.46,1.9799,10.7939,-8.1013,-1.7104,4.7501,-0.1857,2383.0,17.9,21.6,-44.7,289.6,64.78,-78.2,,66.976,,,,NaN,,,,0 / 0,1958,2014-12-14 04:49:46:363
-0.9807,-3.6971,-9.2575,5.0097,-8.3633,-1.0617,-5.9904,4.6662,-8.1958,-3.7788,3.1692,-1.8986,2147.0,16.6,24.6,-27.1,324.43,58.52,-101.97,,66.976,,,,NaN,,,,0 / 0,2009,2014-12-14 04:49:46:414
-13.0625,-18.7797,-3.4814,5.1793,-6.3288,-5.4122,-18.2418,-12.4509,1.9308,-3.4135,-0.1784,-2.9676,2147.0,10.0,27.2,-14.9,354.4,40.19,-136.26,,66.976,,,,NaN,,,,0 / 0,2058,2014-12-14 04:49:46:463
-2.638,-19.0543,10.3068,4.4198,-6.8732,-5.4217,-7.0578,-12.1811,15.7285,-2.2773,0.6072,-0.4997,1438.0,7.4,24.6,-6.1,3.87,44.5,-140.81,,66.976,,,,NaN,,,,0 / 0,2108,2014-12-14 04:49:46:513
-2.589,-6.0115,6.6489,4.747,-7.3493,-4.4299,-7.3359,1.3379,11.0788,-0.7159,0.4569,-1.4441,1438.0,6.6,25.5,-6.1,3.87,44.5,-140.81,,66.976,,,,NaN,,,,0 / 0,2158,2014-12-14 04:49:46:563
-7.6198,-7.7571,9.4438,4.8726,-7.7954,-3.4147,-12.4923,0.0383,12.8585,-0.3946,0.9468,-1.5467,1438.0,5.7,25.5,-5.2,0.1,48.87,-130.11,,66.976,,,,NaN,,,,0 / 0,2208,2014-12-14 04:49:46:613
-3.4421,-6.1095,5.8546,4.4688,-8.2861,-2.7459,-7.911,2.1766,8.6005,2.0183,-1.8558,-0.1747,1438.0,5.7,28.5,-10.5,347.5,57.67,-121.57,,66.976,,,,NaN,,,,0 / 0,2258,2014-12-14 04:49:46:663
-0.8532,-5.5211,4.972,4.2607,-8.4947,-2.42,-5.1139,2.9736,7.392,2.2834,-2.0183,-0.0745,1108.0,6.1,29.4,-11.5,347.5,57.67,-121.57,,66.976,,,,NaN,,,,0 / 0,2308,2014-12-14 04:49:46:713
0.5394,-19.6427,-5.6094,2.8886,-9.3705,-0.1393,-2.3493,-10.2722,-5.4701,4.0977,-2.2895,1.3231,1108.0,11.3,29.8,-35.4,310.15,68.0,-96.83,,72.446,,,,NaN,,,,0 / 0,2358,2014-12-14 04:49:46:763
2.9322,-19.9075,-12.2387,1.9741,-9.5901,0.5506,1.2425,-10.386,-9.759,3.6029,-0.5608,1.5394,1108.0,14.4,23.3,-46.1,277.01,77.94,-74.42,,72.446,,,,NaN,,,,0 / 0,2409,2014-12-14 04:49:46:814
-2.079,-1.9319,-2.3634,1.3422,-9.6468,1.1434,-3.4212,7.7149,-3.5068,1.0849,-2.7391,0.1515,2806.0,15.3,18.1,-54.9,248.22,79.64,-49.57,,72.446,,,,NaN,,,,0 / 0,2458,2014-12-14 04:49:46:863
1.8535,3.4421,-2.128,1.4356,-9.6923,0.4103,1.732,13.8602,-2.6561,-2.3164,-1.6176,-1.1741,2806.0,13.5,17.2,-57.9,248.22,79.64,-49.57,,72.446,,,,NaN,,,,0 / 0,2508,2014-12-14 04:49:46:913
3.0106,-7.2765,0.2942,2.9959,-9.2285,-1.4247,0.7993,8.6107,-1.331,-1.7055,-1.0519,-1.2779,2806.0,10.0,19.4,-56.4,309.06,70.23,-115.43,,72.446,,,,NaN,,,,0 / 0,2558,2014-12-14 04:49:46:963
3.0106,-7.2765,0.2942,2.9959,-9.2285,-1.4247,0.7993,8.6107,-1.331,-1.7055,-1.0519,-1.2779,2806.0,10.0,19.4,-56.4,309.06,70.23,-115.43,,72.446,,,,NaN,,,,0 / 0,2608,2014-12-14 04:49:47:013
6.5508,4.5013,-8.5318,4.1463,-8.8671,-0.5945,2.4045,13.3683,-7.9373,-1.3268,2.788,-0.5327,2806.0,12.6,16.8,-54.0,296.59,64.71,-98.16,,72.446,,,,NaN,,,,0 / 0,2659,2014-12-14 04:49:47:064
6.5508,4.5013,-8.5318,4.1463,-8.8671,-0.5945,2.4045,13.3683,-7.9373,-1.3268,2.788,-0.5327,2806.0,12.6,16.8,-54.0,296.59,64.71,-98.16,,72.446,,,,NaN,,,,0 / 0,2708,2014-12-14 04:49:47:113
4.2757,-6.9627,-11.2776,5.4737,-7.9202,-1.8654,-1.198,0.9575,-9.4123,1.113,3.4184,-1.8326,2458.0,14.8,17.6,-42.2,313.4,53.87,-108.82,,72.446,,,,NaN,,,,0 / 0,2759,2014-12-14 04:49:47:164
4.2757,-6.9627,-11.2776,5.4737,-7.9202,-1.8654,-1.198,0.9575,-9.4123,1.113,3.4184,-1.8326,2458.0,14.8,17.6,-42.2,313.4,53.87,-108.82,,72.446,,,,NaN,,,,0 / 0,2808,2014-12-14 04:49:47:213
-13.7783,-7.6296,-15.5239,6.8236,-4.2356,-5.6275,-20.602,-3.394,-9.8965,-10.8734,-1.482,-3.2535,2458.0,9.6,22.4,-29.6,331.89,25.59,-129.51,,73.705,,,,NaN,,,,0 / 0,2860,2014-12-14 04:49:47:265
-13.7783,-7.6296,-15.5239,6.8236,-4.2356,-5.6275,-20.602,-3.394,-9.8965,-10.8734,-1.482,-3.2535,2458.0,9.6,22.4,-29.6,331.89,25.59,-129.51,,73.705,,,,NaN,,,,0 / 0,2908,2014-12-14 04:49:47:313
-0.9414,-4.3934,5.884,6.2868,-4.6115,-5.9481,-7.2283,0.2181,11.8321,-0.1698,1.4319,-1.504,1260.0,4.0,22.4,-17.4,339.93,28.05,-133.41,,73.705,,,,NaN,,,,0 / 0,2958,2014-12-14 04:49:47:363
-9.0712,-5.4427,6.1978,6.9412,-4.7826,-5.0117,-14.6982,0.5461,10.425,0.8112,0.5156,-0.7563,1260.0,0.9,23.3,-16.4,333.68,29.19,-125.83,,73.705,,,,NaN,,,,0 / 0,3008,2014-12-14 04:49:47:413
-0.6669,-4.3345,3.4912,5.5315,-6.7982,-4.3996,-6.1984,2.4637,7.8908,2.4056,-1.4258,0.0098,1391.0,0.5,22.4,-20.3,329.01,43.89,-128.5,,73.705,,,,NaN,,,,0 / 0,3058,2014-12-14 04:49:47:463
-3.0597,-16.0927,-3.599,4.9047,-7.7579,-3.4538,-7.9644,-8.3348,-0.1452,2.9493,-1.7654,1.0006,1391.0,2.2,22.9,-23.7,329.01,43.89,-128.5,,73.705,,,,NaN,,,,0 / 0,3108,2014-12-14 04:49:47:513
2.1771,-19.5152,-3.0204,3.3444,-8.6932,-3.0683,-1.1673,-10.8221,0.0478,3.35,-2.3298,1.5699,1391.0,4.8,22.9,-27.1,331.24,62.43,-132.53,,73.705,,,,NaN,,,,0 / 0,3158,2014-12-14 04:49:47:563
4.06,-13.8568,-3.5794,1.782,-9.5123,-1.5848,3.4645,-6.8648,-2.6517,2.744,-1.4575,1.4038,1391.0,13.1,19.4,-39.8,331.24,62.43,-132.53,,73.705,,,,NaN,,,,0 / 0,3208,2014-12-14 04:49:47:613
3.4225,2.6282,-1.4024,1.3292,-9.5577,-1.7473,2.0933,12.1859,0.345,-2.044,-1.372,-1.3219,3482.0,15.7,18.5,-46.6,332.77,79.51,-132.91,,73.705,,,,NaN,,,,0 / 0,3258,2014-12-14 04:49:47:663
5.2073,2.638,-3.6775,1.961,-9.2537,-2.5875,3.2464,11.8916,-1.09,-1.8326,-1.2095,-1.4795,3482.0,14.8,19.0,-45.7,342.24,70.67,-142.84,,73.705,,,,NaN,,,,0 / 0,3308,2014-12-14 04:49:47:713
5.8742,-4.5797,2.8537,3.0684,-8.5688,-3.6511,2.8058,3.9891,6.5048,0.639,3.1179,-0.0415,3482.0,15.3,20.3,-46.1,339.69,60.9,-139.96,,73.705,,,,NaN,,,,0 / 0,3358,2014-12-14 04:49:47:763
6.8647,-2.0594,3.3441,3.2766,-8.6201,-3.3359,3.5881,6.5607,6.6799,-1.0788,2.8698,-0.1112,3482.0,16.6,19.0,-43.2,339.69,60.9,-139.96,,69.868,,,,NaN,,,,0 / 0,3408,2014-12-14 04:49:47:813
-8.9339,-17.0538,-13.7587,5.2853,-7.3757,-3.7194,-14.2192,-9.678,-10.0393,0.3995,3.4807,-0.9383,2385.0,19.2,19.8,-35.4,327.24,56.24,-120.9,,69.868,,,,NaN,,,,0 / 0,3458,2014-12-14 04:49:47:863
5.3937,7.6492,-7.3942,4.9279,-7.4889,-3.9752,0.4658,15.1381,-3.419,-0.2786,3.8289,-1.7104,2385.0,17.9,20.3,-33.0,336.66,48.77,-125.13,,69.868,,,,NaN,,,,0 / 0,3509,2014-12-14 04:49:47:914
4.0109,5.9723,-8.2474,5.784,-6.4917,-4.5358,-1.7731,12.4639,-3.7116,-3.3842,0.044,-3.4477,2385.0,16.1,22.0,-29.1,340.55,41.45,-128.1,,69.868,,,,NaN,,,,0 / 0,3558,2014-12-14 04:49:47:963
-7.2079,-15.1611,-15.2101,5.8808,-2.8565,-7.3094,-13.0887,-12.3046,-7.9007,-6.4043,-0.0354,-2.937,2385.0,12.2,25.0,-22.7,340.55,41.45,-128.1,,69.868,,,,NaN,,,,0 / 0,3608,2014-12-14 04:49:48:013
2.1771,-16.5144,11.3659,5.1226,-3.1566,-7.7437,-2.6513,-16.643,20.0609,-1.1777,0.1625,-0.5315,2385.0,8.7,25.0,-14.0,356.69,14.36,-146.93,,69.868,,,,NaN,,,,0 / 0,3658,2014-12-14 04:49:48:063
2.1771,-16.5144,11.3659,5.1226,-3.1566,-7.7437,-2.6513,-16.643,20.0609,-1.1777,0.1625,-0.5315,2385.0,8.7,25.0,-14.0,356.69,14.36,-146.93,,69.868,,,,NaN,,,,0 / 0,3708,2014-12-14 04:49:48:113
-8.1003,-5.7761,5.6584,6.4567,-4.1484,-6.1051,-7.8296,0.6866,8.1939,-0.4887,1.8827,-1.5528,2385.0,6.1,25.0,-11.5,352.04,25.03,-133.4,,69.868,,,,NaN,,,,0 / 0,3759,2014-12-14 04:49:48:164
-1.9613,-6.1684,-0.1961,6.543,-4.8373,-5.4736,-11.2011,-0.5171,9.4551,1.7373,-0.8479,-0.0672,1752.0,4.0,26.3,-14.4,352.04,25.03,-133.4,,69.868,,,,NaN,,,,0 / 0,3808,2014-12-14 04:49:48:213
2.4615,-18.868,-2.3732,2.9809,-8.3217,-4.2466,-0.5195,-10.5463,1.8734,2.5351,-3.2351,1.719,1752.0,7.0,23.7,-30.5,340.76,54.6,-141.16,,69.868,,,,NaN,,,,0 / 0,3858,2014-12-14 04:49:48:263
0.7061,-6.5705,0.3236,1.1438,-9.4875,-2.2021,-0.4377,2.9171,2.5257,0.5803,-1.4746,0.8968,1752.0,11.3,18.5,-42.7,347.83,75.34,-152.55,,72.566,,,,NaN,,,,0 / 0,3908,2014-12-14 04:49:48:313
0.9709,-1.7848,-1.6279,0.9349,-9.5061,-2.2205,0.0359,7.7213,0.5926,-0.518,-1.8485,0.0782,2591.0,11.3,18.5,-44.7,351.5,75.78,-157.17,,72.566,,,,NaN,,,,0 / 0,3958,2014-12-14 04:49:48:363
3.9619,0.8532,-3.1087,1.2,-9.2858,-2.9163,2.7619,10.1389,-0.1924,-0.8919,-1.4563,-1.3793,2591.0,8.7,20.7,-47.6,351.5,75.78,-157.17,,72.566,,,,NaN,,,,0 / 0,4008,2014-12-14 04:49:48:413
0.5688,0.3236,0.9414,2.2737,-8.7028,-3.9067,-1.7049,9.0264,4.8482,-0.7135,-0.3738,-0.6353,2591.0,7.0,22.0,-48.1,340.13,62.55,-149.8,,72.566,,,,NaN,,,,0 / 0,4058,2014-12-14 04:49:48:463
8.2376,-2.5595,1.471,3.8705,-8.4914,-3.0144,4.3671,5.9318,4.4854,-2.0391,3.7813,0.1466,2591.0,7.9,22.4,-46.1,322.54,59.98,-127.91,,72.566,,,,NaN,,,,0 / 0,4108,2014-12-14 04:49:48:513
13.1605,11.7189,-8.5514,4.0195,-8.4744,-2.8633,10.0139,17.5554,-2.4225,0.3457,2.9065,-0.876,2591.0,7.9,25.0,-45.7,322.54,59.98,-127.91,,72.566,,,,NaN,,,,0 / 0,4158,2014-12-14 04:49:48:563
-10.3656,-15.8574,-2.2359,5.6784,-6.3865,-4.8102,-5.8157,13.3002,-5.732,-3.62,-1.4465,-2.573,2591.0,7.0,27.6,-45.2,325.68,40.64,-130.27,,72.566,,,,NaN,,,,0 / 0,4208,2014-12-14 04:49:48:613
-8.0218,-17.9266,0.7061,5.458,-4.3124,-6.9125,-13.4799,-13.6141,7.6186,-1.1716,-0.5131,-2.5791,2591.0,2.6,33.3,-36.9,334.55,26.09,-141.71,,72.566,,,,NaN,,,,0 / 0,4259,2014-12-14 04:49:48:664
1.4024,-12.4839,7.5217,5.6292,-4.8681,-6.3863,-4.2268,-7.6158,13.908,-2.9028,0.9872,-0.9859,2591.0,-2.1,38.1,-30.5,334.55,26.09,-141.71,,72.566,,,,NaN,,,,0 / 0,4308,2014-12-14 04:49:48:713
-1.2454,-10.3852,6.9333,6.2931,-5.4845,-5.1466,-9.1269,2.8384,3.9864,-0.7905,1.3573,-1.2364,2591.0,-3.9,38.9,-27.1,330.85,32.6,-131.69,,72.755,,,,NaN,,,,0 / 0,4358,2014-12-14 04:49:48:763
-3.2166,0.304,0.2942,6.6232,-5.8433,-4.2614,-9.8397,6.1473,4.5556,-0.27,2.1783,-1.3635,1744.0,-8.7,43.3,-26.1,325.16,36.57,-122.76,,72.755,,,,NaN,,,,0 / 0,4408,2014-12-14 04:49:48:813
-3.2166,0.304,0.2942,6.6232,-5.8433,-4.2614,-9.8397,6.1473,4.5556,-0.27,2.1783,-1.3635,1744.0,-8.7,43.3,-26.1,325.16,36.57,-122.76,,72.755,,,,NaN,,,,0 / 0,4458,2014-12-14 04:49:48:863
-0.3236,-5.2368,4.0894,6.766,-6.0702,-3.6803,-5.7025,-3.769,0.1819,1.3146,-0.43,-0.518,1744.0,-13.0,49.4,-31.0,321.65,38.24,-118.54,,72.755,,,,NaN,,,,0 / 0,4509,2014-12-14 04:49:48:914
1.0493,-18.5836,-1.3337,4.5375,-8.5231,-1.7142,-3.4882,-10.0605,0.3805,2.0427,0.1539,2.9138,1744.0,-8.2,49.4,-34.9,308.69,60.36,-110.7,,72.755,,,,NaN,,,,0 / 0,4558,2014-12-14 04:49:48:963
1.0493,-18.5836,-1.3337,4.5375,-8.5231,-1.7142,-3.4882,-10.0605,0.3805,2.0427,0.1539,2.9138,1744.0,-8.2,49.4,-34.9,308.69,60.36,-110.7,,72.755,,,,NaN,,,,0 / 0,4608,2014-12-14 04:49:49:013
3.0793,-14.151,-3.2754,2.1242,-9.5199,-1.0149,0.9551,-4.6311,-2.2605,2.2883,-1.2242,0.7245,6001.0,2.2,44.2,-43.2,308.62,76.11,-115.54,,72.755,,,,NaN,,,,0 / 0,4659,2014-12-14 04:49:49:064
0.0785,-3.1283,-2.4713,1.4552,-9.6542,-0.9211,-1.3768,6.5259,-1.5501,-0.8748,-2.055,-0.0305,6001.0,7.0,38.1,-49.1,315.48,79.89,-122.33,,72.755,,,,NaN,,,,0 / 0,4708,2014-12-14 04:49:49:113
4.7268,-2.6184,-0.3727,1.72,-9.3731,-2.3143,3.0068,6.7548,1.9417,-1.5834,-2.7709,-0.639,6001.0,7.0,37.2,-49.1,315.48,79.89,-122.33,,72.755,,,,NaN,,,,0 / 0,4758,2014-12-14 04:49:49:163
2.5399,-4.3934,1.0199,2.4332,-8.9675,-3.1359,0.1067,4.5741,4.1558,-1.9083,-1.934,-0.8418,4323.0,6.1,37.2,-48.6,334.79,66.12,-142.19,,72.755,,,,NaN,,,,0 / 0,4808,2014-12-14 04:49:49:213
0.9022,-10.1597,5.8153,2.6444,-8.8716,-3.2361,-1.7421,-1.2881,9.0514,-1.3231,-0.1466,-0.4191,4323.0,7.4,37.2,-47.6,334.95,64.78,-140.75,,69.548,,,,NaN,,,,0 / 0,4859,2014-12-14 04:49:49:264
1.2356,-6.0997,5.0897,2.686,-9.0925,-2.5065,-1.4504,2.9927,7.5962,-0.5351,-0.6903,-0.7294,4323.0,8.7,37.2,-46.1,330.74,68.0,-133.02,,69.548,,,,NaN,,,,0 / 0,4908,2014-12-14 04:49:49:313
-9.3457,-17.3676,-5.2368,2.5725,-9.343,-1.5034,-11.9182,-8.0245,-3.7333,0.0086,-4.0244,0.3054,4323.0,9.2,35.9,-50.1,330.74,68.0,-133.02,,69.548,,,,NaN,,,,0 / 0,4958,2014-12-14 04:49:49:363
1.6573,-8.3553,4.9426,1.0658,-9.1326,-3.4103,0.5916,0.7773,8.3528,-0.7807,-1.6102,-0.474,2517.0,10.9,35.0,-51.5,355.59,68.63,-162.65,,69.548,,,,NaN,,,,0 / 0,5234,2014-12-14 04:49:49:639
1.6573,-8.3553,4.9426,1.0658,-9.1326,-3.4103,0.5916,0.7773,8.3528,-0.7807,-1.6102,-0.474,2517.0,10.9,35.0,-51.5,355.59,68.63,-162.65,,69.548,,,,NaN,,,,0 / 0,5249,2014-12-14 04:49:49:654
1.6573,-8.3553,4.9426,1.0658,-9.1326,-3.4103,0.5916,0.7773,8.3528,-0.7807,-1.6102,-0.474,2517.0,10.9,35.0,-51.5,355.59,68.63,-162.65,,69.548,,,,NaN,,,,0 / 0,5251,2014-12-14 04:49:49:656
1.6573,-8.3553,4.9426,1.0658,-9.1326,-3.4103,0.5916,0.7773,8.3528,-0.7807,-1.6102,-0.474,2517.0,10.9,35.0,-51.5,355.59,68.63,-162.65,,69.548,,,,NaN,,,,0 / 0,5253,2014-12-14 04:49:49:658
1.6573,-8.3553,4.9426,1.0658,-9.1326,-3.4103,0.5916,0.7773,8.3528,-0.7807,-1.6102,-0.474,2517.0,10.9,35.0,-51.5,355.59,68.63,-162.65,,69.548,,,,NaN,,,,0 / 0,5257,2014-12-14 04:49:49:662
1.6573,-8.3553,4.9426,1.0658,-9.1326,-3.4103,0.5916,0.7773,8.3528,-0.7807,-1.6102,-0.474,2517.0,10.9,35.0,-51.5,355.59,68.63,-162.65,,69.548,,,,NaN,,,,0 / 0,5259,2014-12-14 04:49:49:664
-0.7061,-6.2566,3.3441,1.1773,-9.2323,-3.0901,-1.8834,2.9757,6.4342,-1.3598,-0.6829,-0.0843,2517.0,10.5,34.6,-50.1,354.13,69.93,-160.71,,69.548,,,,NaN,,,,0 / 0,5308,2014-12-14 04:49:49:713
1.5691,-10.5716,1.6377,1.1415,-9.2948,-2.9109,-0.5532,0.3771,4.8593,-1.1179,-0.6304,-0.4288,2517.0,10.5,34.6,-49.1,352.51,71.41,-158.59,,69.548,,,,NaN,,,,0 / 0,5359,2014-12-14 04:49:49:764
-1.422,-9.9636,0.2942,1.7308,-9.3868,-2.2502,-3.1528,-0.5768,2.5444,-0.9261,0.0977,-0.0305,1496.0,12.2,34.6,-47.1,340.07,73.17,-142.43,,69.548,,,,NaN,,,,0 / 0,5408,2014-12-14 04:49:49:813
-0.7551,-10.3656,0.7453,1.2998,-9.4607,-2.2307,-2.0549,-0.9049,2.976,-0.5718,-0.0623,-0.3922,1496.0,13.1,34.2,-47.1,340.07,73.17,-142.43,,68.408,,,,NaN,,,,0 / 0,5458,2014-12-14 04:49:49:863
-0.8826,-9.7674,1.5004,1.1447,-9.5305,-2.0076,-2.0273,-0.237,3.508,-0.6329,-0.5339,-0.474,1496.0,13.5,34.2,-47.1,348.45,76.37,-150.31,,68.408,,,,NaN,,,,0 / 0,5508,2014-12-14 04:49:49:913
-0.9709,-9.5811,1.5887,1.0717,-9.5656,-1.8767,-1.9739,0.0531,3.4163,-0.463,-0.4337,-0.4166,1496.0,13.1,33.7,-47.6,348.45,76.37,-150.31,,68.408,,,,NaN,,,,0 / 0,5558,2014-12-14 04:49:49:963
-0.8826,-10.0322,1.5298,0.8945,-9.6508,-1.4941,-1.7771,-0.3814,3.0239,-0.4508,-0.3934,-0.4252,1496.0,13.1,33.7,-48.6,345.45,79.77,-149.09,,68.408,,,,NaN,,,,0 / 0,5609,2014-12-14 04:49:50:014
-0.1177,-10.0224,1.0199,0.9107,-9.6871,-1.2256,-1.0283,-0.3353,2.2455,-0.3445,-0.3861,-0.5486,1496.0,13.1,33.3,-49.6,339.71,81.04,-143.39,,68.408,,,,NaN,,,,0 / 0,5659,2014-12-14 04:49:50:064
-0.2157,-10.042,1.3141,0.9719,-9.7018,-1.0497,-1.1876,-0.3403,2.3638,-0.3225,-0.3054,-0.5278,1193.0,12.6,33.3,-50.1,333.89,81.61,-137.2,,68.408,,,,NaN,,,,0 / 0,5708,2014-12-14 04:49:50:113
-0.3236,-9.8263,1.3043,1.0515,-9.7169,-0.804,-1.3751,-0.1094,2.1083,-0.2175,-0.1698,-0.6243,1193.0,12.2,33.3,-51.0,323.31,82.24,-127.4,,68.408,,,,NaN,,,,0 / 0,5758,2014-12-14 04:49:50:163
-0.2354,-10.1793,1.9025,1.2038,-9.7198,-0.497,-1.4392,-0.4595,2.3995,-0.2395,-0.5412,-0.788,1193.0,11.8,33.3,-53.0,323.31,82.24,-127.4,,68.408,,,,NaN,,,,0 / 0,5808,2014-12-14 04:49:50:213
-0.255,-10.2087,1.6966,1.237,-9.7191,-0.4237,-1.492,-0.4896,2.1203,-0.1564,-0.4459,-0.7563,1193.0,11.3,33.7,-52.5,304.66,82.34,-108.91,,68.408,,,,NaN,,,,0 / 0,5859,2014-12-14 04:49:50:264
-0.8924,-9.8949,1.2945,1.214,-9.7287,-0.2204,-2.1064,-0.1662,1.5148,-0.3897,-0.0061,-0.551,1193.0,11.3,33.7,-53.0,295.93,82.77,-100.29,,58.063,,,,NaN,,,,0 / 0,5908,2014-12-14 04:49:50:313
-0.4511,-9.6596,1.8535,1.1815,-9.7329,-0.2119,-0.9363,0.397,2.5753,-0.358,-0.2236,-0.5767,1193.0,10.5,33.3,-54.0,295.93,82.77,-100.29,,58.063,,,,NaN,,,,0 / 0,5958,2014-12-14 04:49:50:363