sep=;
ACCELEROMETER X (m/s²);ACCELEROMETER Y (m/s²);ACCELEROMETER Z (m/s²);GRAVITY X (m/s²);GRAVITY Y (m/s²);GRAVITY Z (m/s²);LINEAR ACCELERATION X (m/s²);LINEAR ACCELERATION Y (m/s²);LINEAR ACCELERATION Z (m/s²);GYROSCOPE X (rad/s);GYROSCOPE Y (rad/s);GYROSCOPE Z (rad/s);LIGHT (lux);MAGNETIC FIELD X (μT);MAGNETIC FIELD Y (μT);MAGNETIC FIELD Z (μT);ORIENTATION X (°);ORIENTATION Y (°);ORIENTATION Z (°);PROXIMITY (i);ATMOSPHERIC PRESSURE (hPa);SOUND LEVEL (dB);LOCATION Latitude : ;LOCATION Longitude : ;LOCATION Altitude ( m);LOCATION Speed ( Kmh);LOCATION Accuracy ( m);Satellites in range;Temperature (F);Level (%);Voltage (Volt);Time since start in ms ;YYYY-MO-DD HH-MI-SS_SSS
-2.145205;-12.708422;4.721366;-0.625323;-8.876482;4.121579;-1.519882;-3.83194;0.599787;2.795625;-0.203724;1.222647;17.0;7.74;41.04;31.26;351.2272;74.3147;2.863;0.0;1018.25;62.676;;;;;;0 / 0;81.3;40.0;3.671;21;2014-11-17 17:12:40:967
-1.024718;-8.437166;3.39019;-1.085075;-7.96588;5.615849;0.060357;-0.471287;-2.225659;2.87015;-1.013425;1.160339;0.0;15.9;46.02;19.98;338.6563;64.8434;8.6271;0.0;1018.39;62.676;;;;;;0 / 0;81.3;40.0;3.671;95;2014-11-17 17:12:41:041
0.814029;-2.346318;1.532289;-1.191933;-6.813473;6.951709;2.005961;4.467156;-5.41942;1.747685;-0.367741;0.812145;20.0;20.22;47.7;13.38;331.9256;44.0098;9.7293;0.0;1018.39;62.676;;;;;;0 / 0;81.3;40.0;3.671;168;2014-11-17 17:12:41:114
-0.105345;-2.566584;1.436521;-1.288569;-6.000728;7.648611;1.183224;3.434144;-6.21209;0.729984;0.03207;0.514654;20.0;26.46;48.18;1.32;324.3105;37.7273;9.5629;0.0;1018.39;62.676;;;;;;0 / 0;81.3;40.0;3.671;226;2014-11-17 17:12:41:172
-1.599327;-2.03986;2.509123;-1.406982;-5.833008;7.756726;-0.192345;3.793149;-5.247602;-1.34818;0.221439;-0.234878;13.0;28.26;47.7;-2.04;324.3105;37.7273;9.5629;0.0;1018.48;62.676;;;;;;0 / 0;81.3;40.0;3.671;277;2014-11-17 17:12:41:223
-2.327164;-7.891289;3.916914;-0.755383;-9.4117;2.649466;-1.57178;1.520413;1.267448;-1.349096;0.576351;-0.025045;20.0;29.88;46.74;-2.04;319.6421;36.4985;10.281;0.0;1018.48;62.676;;;;;;0 / 0;81.3;40.0;3.671;334;2014-11-17 17:12:41:280
-4.472368;-16.816874;6.234502;-0.855759;-9.611608;1.74787;-3.61661;-7.205264;4.486632;-2.335949;1.159728;-0.164017;17.0;30.6;46.14;0.3;261.3577;78.5538;26.0864;0.0;1018.48;65.33028;;;;;;0 / 0;81.3;40.0;3.671;399;2014-11-17 17:12:41:345
0.967258;-9.911994;3.045425;-0.839286;-9.420684;2.591663;1.806544;-0.491311;0.453761;-2.672841;0.317345;-0.404087;20.0;30.66;45.12;5.16;284.2742;73.8718;17.9441;0.0;1018.28;65.33028;;;;;;0 / 0;81.3;40.0;3.671;454;2014-11-17 17:12:41:400
-0.248997;-13.512874;0.201113;-0.60318;-9.528834;2.237831;0.354183;-3.98404;-2.036718;-2.324037;0.101404;-0.617279;23.0;29.46;43.14;11.34;284.2742;73.8718;17.9441;0.0;1018.28;65.33028;;;;;;0 / 0;81.3;40.0;3.671;506;2014-11-17 17:12:41:452
-1.915361;-9.423578;0.909797;-0.804133;-9.546232;2.096001;-1.111228;0.122654;-1.186204;-2.303573;0.356134;-0.552222;17.0;27.78;41.82;15.48;298.6714;76.3294;15.0849;0.0;1018.28;65.33028;;;;;;0 / 0;81.3;40.0;3.671;566;2014-11-17 17:12:41:512
-1.8579;-9.62469;-0.316035;-0.85209;-9.59884;1.81841;-1.00581;-0.02585;-2.134444;-2.299602;-0.175318;-0.739758;20.0;24.36;38.16;23.7;300.8791;78.1837;25.1074;0.0;1018.23;65.33028;;;;;;0 / 0;81.3;40.0;3.671;639;2014-11-17 17:12:41:585
-1.130063;-7.594407;2.011129;-0.927201;-9.572444;1.918074;-0.202862;1.978036;0.093055;-1.934305;-0.492357;-0.420886;17.0;23.28;35.88;26.94;300.8791;78.1837;25.1074;0.0;1018.23;65.33028;;;;;;0 / 0;81.3;40.0;3.671;689;2014-11-17 17:12:41:635
-0.248997;-9.758766;1.656788;-0.935173;-9.57372;1.907812;0.686176;-0.185046;-0.251024;-1.52869;0.465479;0.065973;16.0;22.14;30.84;31.56;306.3529;77.4529;25.7992;0.0;1018.23;69.60323;;;;;;0 / 0;81.3;40.0;3.671;745;2014-11-17 17:12:41:691
-0.354342;-11.434708;-1.235408;-0.926641;-9.633052;1.586203;0.572299;-1.801656;-2.821611;-1.081842;1.208291;-0.065057;15.0;20.94;28.38;33.78;308.4423;77.4872;26.1132;0.0;1018.23;69.60323;;;;;;0 / 0;81.3;40.0;3.671;805;2014-11-17 17:12:41:751
-0.105345;-16.031574;2.585738;-0.651471;-9.65663;1.57972;0.546126;-6.374944;1.006018;-0.397368;0.099266;-0.424246;0.0;18.48;24.66;36.96;315.4934;79.9651;22.4111;0.0;1018.23;69.60323;;;;;;0 / 0;81.3;40.0;3.671;870;2014-11-17 17:12:41:816
-3.811569;-14.87278;8.360553;-0.952248;-9.472588;2.352381;-2.859321;-5.400192;6.008172;2.392148;-0.458454;0.464258;17.0;17.34;23.64;38.1;315.4934;79.9651;22.4111;0.0;1018.23;69.60323;;;;;;0 / 0;81.3;40.0;3.671;934;2014-11-17 17:12:41:880
1.896208;-17.918205;-6.703765;-1.071383;-8.899454;3.977718;2.967591;-9.01875;-10.681482;4.31332;0.408363;0.362243;17.0;17.28;25.68;36.42;318.6217;75.0021;22.0382;0.0;1018.13;69.60323;;;;;;0 / 0;81.3;40.0;3.671;994;2014-11-17 17:12:41:940
-1.120486;-16.692373;-3.256114;-0.870943;-9.674396;1.348292;-0.249544;-7.017978;-4.604406;3.514919;0.311236;1.651474;20.0;17.7;29.82;32.04;324.8962;65.161;15.0747;0.0;1018.13;69.60323;;;;;;0 / 0;81.3;40.0;3.671;1055;2014-11-17 17:12:42:001
2.547431;-8.944736;-1.819593;-0.635504;-9.691696;1.35556;3.182935;0.74696;-3.175153;3.549738;-1.730887;1.572062;23.0;18.48;35.28;24.9;306.8432;81.2186;25.1178;0.0;1018.13;67.38846;;;;;;0 / 0;81.3;40.0;3.671;1125;2014-11-17 17:12:42:071
1.61848;-2.54743;-0.153229;-1.300139;-9.096166;3.426341;2.918619;6.548735;-3.57957;2.518292;-0.025962;0.813062;17.0;21.66;40.62;11.64;306.6759;68.0562;20.7795;0.0;1018.32;67.38846;;;;;;0 / 0;81.3;40.0;3.671;1179;2014-11-17 17:12:42:125
1.398214;-0.517148;-2.269703;-1.664649;-8.411528;4.758734;3.062863;7.89438;-7.028436;2.091603;-0.816421;0.448986;20.0;23.46;42.42;5.64;306.6759;68.0562;20.7795;0.0;1018.32;67.38846;;;;;;0 / 0;81.3;40.0;3.671;1235;2014-11-17 17:12:42:181
-1.417367;-2.183512;0.344765;-1.590903;-7.936051;5.537013;0.173536;5.75254;-5.192248;0.569632;-0.018937;0.100182;15.0;24.48;43.68;-1.74;311.6074;54.0229;16.0305;0.0;1018.32;67.38846;;;;;;0 / 0;81.3;40.0;3.671;1296;2014-11-17 17:12:42:242
-2.480393;-5.497087;3.543419;-0.530552;-9.763284;0.753108;-1.949841;4.266198;2.790311;-1.305113;0.412945;-0.037874;20.0;24.36;44.64;-4.38;233.5519;84.6097;35.164;0.0;1018.32;67.38846;;;;;;0 / 0;81.3;40.0;3.671;1358;2014-11-17 17:12:42:304
-2.413355;-14.077906;9.662998;-0.716773;-9.676102;1.424665;-1.696583;-4.401804;8.238334;-2.114815;0.492968;-0.435852;23.0;23.82;44.76;-1.32;258.6685;80.6407;26.7077;0.0;1018.32;67.38846;;;;;;0 / 0;81.3;40.0;3.671;1419;2014-11-17 17:12:42:365
-0.21069;-10.898406;3.696648;-0.541455;-9.671546;1.529194;0.330765;-1.226859;2.167453;-2.417499;0.11973;-0.934624;26.0;23.22;44.82;2.28;258.6685;80.6407;26.7077;0.0;1018.32;67.38846;;;;;;0 / 0;81.3;40.0;3.671;1483;2014-11-17 17:12:42:429
-0.794875;-11.951854;1.82917;-0.48358;-9.684854;1.462929;-0.311295;-2.267;0.366241;-2.279138;0.038179;-0.809702;23.0;22.26;44.46;6.3;284.1009;80.9604;18.2916;0.0;1018.31;65.02916;;;;;;0 / 0;81.3;40.0;3.671;1533;2014-11-17 17:12:42:479
-1.206678;-10.668562;0.679953;-0.552826;-9.698366;1.344044;-0.653851;-0.970197;-0.664091;-2.310903;0.306654;-0.853684;23.0;18.96;42.48;14.7;298.7976;81.4776;22.3581;0.0;1018.31;65.02916;;;;;;0 / 0;81.3;40.0;3.671;1606;2014-11-17 17:12:42:552
-1.40779;-9.80665;-0.258574;-0.638849;-9.718084;1.149392;-0.768941;-0.088566;-1.407966;-2.426967;0.573602;-0.781602;23.0;15.0;38.82;22.14;305.6407;82.2938;29.066;0.0;1018.31;65.02916;;;;;;0 / 0;81.3;40.0;3.671;1671;2014-11-17 17:12:42:617
-4.185065;-6.962338;3.045425;-1.011627;-9.663858;1.325443;-3.173437;2.701521;1.719981;-1.714393;-0.502742;0.162185;26.0;13.74;36.36;25.56;305.6407;82.2938;29.066;0.0;1017.99;65.02916;;;;;;0 / 0;81.3;40.0;3.671;1726;2014-11-17 17:12:42:672
0.440533;-7.374141;1.599327;-1.01163;-9.638844;1.496551;1.452164;2.264704;0.102776;-1.574811;-0.319788;0.275195;23.0;12.3;34.02;28.62;311.6321;79.3854;34.0577;0.0;1017.99;65.02916;;;;;;0 / 0;81.3;40.0;3.671;1776;2014-11-17 17:12:42:722
-1.905785;-12.794614;2.767697;-1.043591;-9.632728;1.513889;-0.862194;-3.161886;1.253809;-1.68049;0.898583;-0.093462;17.0;11.52;28.56;33.84;311.971;79.1931;34.5802;0.0;1017.99;65.02916;;;;;;0 / 0;81.3;40.0;3.671;1827;2014-11-17 17:12:42:773
-0.852336;-10.927136;-3.265691;-0.955727;-9.695468;1.120216;0.103391;-1.231668;-4.385907;-0.961196;0.020769;-0.442572;16.0;11.4;26.52;35.64;311.971;79.1931;34.5802;0.0;1017.98;66.82212;;;;;;0 / 0;81.3;40.0;3.671;1891;2014-11-17 17:12:42:837
-3.093309;-18.100164;7.067683;-0.692253;-9.757126;0.699783;-2.401056;-8.343037;6.367901;1.888184;-0.096822;0.04612;20.0;10.26;23.4;37.68;306.9679;81.3641;40.4696;0.0;1017.98;66.82212;;;;;;0 / 0;81.3;40.0;3.671;1968;2014-11-17 17:12:42:914
-3.083732;-17.0946;-6.761225;-1.468374;-8.711406;4.257427;-1.615358;-8.383195;-11.018652;3.453221;0.946536;0.371406;20.0;9.06;25.02;37.14;325.813;74.0969;23.8732;0.0;1018.22;66.82212;;;;;;0 / 0;81.3;40.0;3.671;2061;2014-11-17 17:12:43:007
3.131616;-14.489708;-0.191536;-0.95359;-9.628834;1.595813;4.085206;-4.860875;-1.787349;3.95016;0.234267;1.092533;23.0;7.26;30.42;33.42;334.5851;62.6624;19.0292;0.0;1018.22;66.82212;;;;;;0 / 0;81.3;40.0;3.671;2126;2014-11-17 17:12:43:072
-0.603339;-9.002198;-1.580173;-0.953421;-9.652764;1.444133;0.350083;0.650567;-3.024306;3.609603;-1.141096;1.441337;20.0;6.9;42.3;20.82;323.0852;79.0725;30.8607;0.0;1018.22;66.82212;;;;;;0 / 0;81.3;40.0;3.671;2186;2014-11-17 17:12:43:132
0.459687;-1.886631;-0.708684;-1.682674;-9.099078;3.247422;2.142361;7.212448;-3.956105;2.736371;-0.182343;1.234559;22.0;8.58;46.14;14.64;329.8823;68.1018;27.3912;0.0;1018.23;69.18686;;;;;;0 / 0;81.3;40.0;3.671;2247;2014-11-17 17:12:43:193
0.440533;-2.231396;-1.436521;-2.038801;-8.424872;4.586416;2.479334;6.193478;-6.022937;1.915368;-1.153008;0.661567;20.0;12.72;51.0;1.5;331.2522;59.2154;23.9666;0.0;1018.23;69.18686;;;;;;0 / 0;81.3;40.0;3.671;2313;2014-11-17 17:12:43:259
-0.277727;-2.288857;0.277727;-2.008531;-7.881693;5.478606;1.730804;5.592837;-5.200877;0.419054;-0.366825;0.251066;20.0;14.4;52.2;-4.08;331.2522;59.2154;23.9666;0.0;1018.23;69.18686;;;;;;0 / 0;81.3;40.0;3.671;2367;2014-11-17 17:12:43:313
-0.584185;-4.424484;3.438074;-1.967925;-7.811188;5.593121;1.38374;3.386704;-2.155047;-0.615141;-0.273668;0.169821;23.0;15.24;52.86;-10.2;332.0464;53.4858;20.1336;0.0;1018.36;69.18686;;;;;;0 / 0;81.3;40.0;3.671;2425;2014-11-17 17:12:43:371
-5.133168;-16.54872;9.605538;-2.139775;-8.344491;4.68628;-2.993393;-8.20423;4.919258;-2.073277;1.160339;-0.313068;19.0;15.54;53.22;-9.42;324.6019;58.3098;24.5416;0.0;1018.36;69.18686;;;;;;0 / 0;81.3;40.0;3.671;2500;2014-11-17 17:12:43:446
1.647211;-6.119579;0.172383;-0.752968;-9.67286;1.427995;2.400179;3.553282;-1.255612;-2.666427;0.54031;-0.64599;23.0;14.88;53.7;-1.5;274.9821;80.525;27.8023;0.0;1018.36;69.18686;;;;;;0 / 0;81.3;40.0;3.671;2575;2014-11-17 17:12:43:521
-3.734954;-14.33648;3.974375;-0.946821;-9.654828;1.434643;-2.788133;-4.681652;2.539732;-2.312125;0.401644;-0.888198;23.0;13.74;53.46;3.78;274.9821;80.525;27.8023;0.0;1018.23;65.48212;;;;;;0 / 0;81.3;40.0;3.671;2629;2014-11-17 17:12:43:575
-1.302446;-10.04607;1.149217;-1.017265;-9.644992;1.452473;-0.285181;-0.401077;-0.303256;-2.186287;-0.111788;-0.595899;31.0;8.88;50.58;16.14;308.2049;79.5823;35.0062;0.0;1018.23;65.48212;;;;;;0 / 0;81.3;40.0;3.671;2688;2014-11-17 17:12:43:634
0.373495;-9.797072;-0.191536;-0.855415;-9.687804;1.258997;1.228911;-0.109269;-1.450533;-2.317317;0.390954;-0.738536;22.0;7.2;48.66;20.88;319.8832;81.0709;34.1938;0.0;1018.23;65.48212;;;;;;0 / 0;81.3;40.0;3.671;2742;2014-11-17 17:12:43:688
-2.557007;-7.422025;0.593762;-1.026934;-9.683224;1.162316;-1.530073;2.261199;-0.568554;-2.084577;0.430355;-0.727235;24.0;5.58;46.14;25.08;319.8832;81.0709;34.1938;0.0;1017.98;65.48212;;;;;;0 / 0;81.3;40.0;3.671;2801;2014-11-17 17:12:43:747
-3.189077;-8.025364;1.819593;-1.320957;-9.637144;1.245356;-1.868119;1.61178;0.574238;-1.806023;0.462425;-0.066584;31.0;2.28;40.68;32.46;319.1195;80.9001;41.4614;0.0;1017.98;65.48212;;;;;;0 / 0;81.3;40.0;3.671;2854;2014-11-17 17:12:43:800
0.02873;-9.059658;0.919373;-1.232253;-9.642234;1.295862;1.260983;0.582576;-0.376489;-1.159728;0.674701;-0.206778;23.0;0.84;37.74;35.34;321.4622;79.4935;43.5587;0.0;1017.98;65.48212;;;;;;0 / 0;81.3;40.0;3.671;2921;2014-11-17 17:12:43:867
-0.708684;-16.184801;2.078167;-1.148833;-9.680816;1.064136;0.440149;-6.503987;1.014031;-1.010982;0.537867;-0.289245;26.0;-3.0;31.02;40.44;316.34;80.255;51.5011;0.0;1017.97;66.17534;;;;;;0 / 0;81.3;40.0;3.671;3003;2014-11-17 17:12:43:949
-1.838747;-16.060305;3.878607;-1.182862;-9.621058;1.485409;-0.655885;-6.439245;2.393198;0.227242;0.00672;0.038485;22.0;-5.1;28.14;42.48;322.9137;80.8115;47.1918;0.0;1017.97;66.17534;;;;;;0 / 0;81.3;40.0;3.671;3061;2014-11-17 17:12:44:007
-1.838747;-16.060305;3.878607;-1.182862;-9.621058;1.485409;-0.655885;-6.439245;2.393198;1.753183;0.01069;0.384845;22.0;-5.7;27.6;43.14;322.9137;80.8115;47.1918;0.0;1017.97;66.17534;;;;;;0 / 0;81.3;40.0;3.671;3111;2014-11-17 17:12:44:057
-0.411803;-16.424223;3.409343;-1.10968;-9.559964;1.883103;0.697877;-6.864259;1.526241;3.287372;0.984409;0.263894;24.0;-6.84;32.76;41.4;339.9073;77.1215;30.5101;0.0;1018.1;66.17534;;;;;;0 / 0;81.3;40.0;3.671;3172;2014-11-17 17:12:44:118
-1.963245;-16.567875;-4.194641;-1.17213;-9.641474;1.355915;-0.791115;-6.926401;-5.550556;3.971846;0.116064;1.22112;23.0;-7.14;37.74;37.86;333.7813;79.4691;40.842;0.0;1018.1;66.17534;;;;;;0 / 0;81.3;40.0;3.671;3226;2014-11-17 17:12:44:172
-0.785298;-14.480132;-0.842759;-1.191675;-9.638882;1.35729;0.406377;-4.841249;-2.200049;4.104098;-1.043358;1.574811;26.0;-7.14;43.56;31.92;333.7813;79.4691;40.842;0.0;1018.1;66.17534;;;;;;0 / 0;81.3;40.0;3.671;3276;2014-11-17 17:12:44:222
1.723825;-4.673482;-2.27928;-1.915499;-8.875354;3.705308;3.639325;4.201873;-5.984587;3.13099;-0.769385;1.405601;23.0;-5.46;48.96;24.06;338.0675;79.3867;41.2825;0.0;1018.26;66.17534;;;;;;0 / 0;81.3;40.0;3.671;3330;2014-11-17 17:12:44:276
0.296881;-1.896208;-0.919373;-2.363674;-7.947704;5.236167;2.660555;6.051496;-6.15554;2.342668;-0.416916;0.919658;24.0;3.6;55.98;6.6;349.902;54.139;24.295;0.0;1018.26;68.27106;;;;;;0 / 0;81.3;40.0;3.671;3388;2014-11-17 17:12:44:334
1.465252;-0.881066;-0.21069;-2.322637;-7.1914;6.24976;3.787889;6.310334;-6.460449;1.185995;-0.662483;0.485638;23.0;12.06;57.54;-7.56;344.6711;47.1653;20.3869;0.0;1018.26;68.27106;;;;;;0 / 0;81.3;40.0;3.671;3456;2014-11-17 17:12:44:402
-2.250549;-3.457227;2.087744;-2.293826;-6.843044;6.63939;0.043277;3.385817;-4.551646;-0.496939;0.189063;0.362854;20.0;14.04;57.36;-12.48;344.6711;47.1653;20.3869;0.0;1018.3;68.27106;;;;;;0 / 0;81.3;40.0;3.671;3510;2014-11-17 17:12:44:456
-3.112462;-8.025364;7.268797;-1.121175;-9.672334;1.165887;-1.991287;1.646971;6.10291;-1.735468;0.566883;-0.009468;19.0;15.78;56.88;-15.66;341.365;44.2505;19.0594;0.0;1018.3;68.27106;;;;;;0 / 0;81.3;40.0;3.671;3574;2014-11-17 17:12:44:520
-1.752556;-14.796166;6.473922;-1.120472;-9.626778;1.496694;-0.632084;-5.169389;4.977228;-1.893377;0.553444;0.051924;20.0;15.96;57.18;-14.04;204.8326;79.0093;36.8197;0.0;1018.3;68.27106;;;;;;0 / 0;81.3;40.0;3.671;3632;2014-11-17 17:12:44:578
-0.775721;-9.471462;3.438074;-1.006905;-9.62316;1.597282;0.231183;0.151698;1.840791;-2.532647;0.491136;-0.564439;26.0;15.48;57.66;-6.06;260.0612;78.899;32.2268;0.0;1018.1;68.27106;;;;;;0 / 0;81.3;40.0;3.671;3696;2014-11-17 17:12:44:642
-1.513135;-10.477026;2.547431;-0.974606;-9.61475;1.666459;-0.53853;-0.862276;0.880972;-2.182927;-0.481056;-0.509156;23.0;14.34;57.42;-1.02;260.0612;78.899;32.2268;0.0;1018.1;64.15489;;;;;;0 / 0;81.3;40.0;3.671;3751;2014-11-17 17:12:44:697
-1.963245;-8.580818;1.254562;-1.110079;-9.607638;1.622146;-0.853167;1.02682;-0.367584;-2.326786;-0.005803;-0.619417;28.0;13.32;57.0;4.26;301.6809;78.6466;30.3207;0.0;1018.1;64.15489;;;;;;0 / 0;81.3;40.0;3.671;3812;2014-11-17 17:12:44:758
-3.160346;-10.716446;0.727837;-1.266102;-9.618278;1.433907;-1.894245;-1.098167;-0.70607;-2.28036;-0.045815;-0.611782;31.0;10.86;54.6;14.34;308.4009;78.7518;41.4436;0.0;1018.05;64.15489;;;;;;0 / 0;81.3;40.0;3.671;3874;2014-11-17 17:12:44:820
-0.047884;-8.686164;0.47884;-1.17597;-9.62945;1.435685;1.128087;0.943286;-0.956845;-1.724473;-1.045801;-0.04215;28.0;9.54;50.64;23.88;313.3515;79.0915;39.3209;0.0;1018.05;64.15489;;;;;;0 / 0;81.3;40.0;3.671;3940;2014-11-17 17:12:44:886
0.114922;-9.35654;3.20823;-1.131534;-9.612566;1.577521;1.246456;0.256026;1.630709;-1.462411;0.700968;-0.11637;35.0;9.42;48.3;28.32;313.3515;79.0915;39.3209;0.0;1018.05;64.15489;;;;;;0 / 0;81.3;40.0;3.671;3993;2014-11-17 17:12:44:939
-3.916914;-9.500192;0.718261;-1.400362;-9.581524;1.550412;-2.516552;0.081331;-0.832152;-0.597426;0.263283;0.016188;23.0;8.58;44.04;35.04;318.6015;78.582;35.6514;0.0;1017.87;64.15489;;;;;;0 / 0;81.3;40.0;3.671;4072;2014-11-17 17:12:45:018
1.838747;-10.534488;-3.007117;-1.068367;-9.674066;1.200581;2.907114;-0.860421;-4.207699;-0.672257;-0.243735;-0.234267;26.0;7.62;41.64;37.74;313.4971;80.5678;41.6651;0.0;1017.87;68.01097;;;;;;0 / 0;81.3;40.0;3.671;4126;2014-11-17 17:12:45:072
-2.394202;-15.29416;-1.848324;-1.102458;-9.710166;0.817093;-1.291744;-5.583994;-2.665417;-0.027184;0.594677;0.078802;28.0;6.78;40.62;38.94;313.4971;80.5678;41.6651;0.0;1017.87;68.01097;;;;;;0 / 0;81.3;40.0;3.671;4190;2014-11-17 17:12:45:136
-6.033388;-12.363658;1.283292;-1.22012;-9.578428;1.7133;-4.813267;-2.785229;-0.430008;2.581211;-0.348499;-0.006109;27.0;5.28;39.96;39.84;304.3535;81.9562;53.4558;0.0;1018.02;68.01097;;;;;;0 / 0;81.3;40.0;3.671;4263;2014-11-17 17:12:45:209
1.254562;-12.47858;-3.572149;-1.056584;-9.671722;1.229538;2.311146;-2.806856;-4.801687;2.911995;0.551611;0.390343;28.0;5.28;43.5;35.22;324.1811;77.6149;35.4564;0.0;1018.02;68.01097;;;;;;0 / 0;81.3;40.0;3.671;4330;2014-11-17 17:12:45:276
-0.794875;-8.63828;-1.666364;-1.094344;-9.686104;1.073397;0.299469;1.047824;-2.739761;2.744007;-0.275195;0.785267;31.0;8.28;50.04;23.76;315.9614;80.4847;40.6736;0.0;1018.02;68.01097;;;;;;0 / 0;81.3;40.0;3.671;4404;2014-11-17 17:12:45:350
1.513135;-6.014234;-2.30801;-0.870403;-9.747852;0.626225;2.383538;3.733618;-2.934235;2.028683;-0.394619;0.76633;34.0;10.56;52.8;16.86;301.769;81.0071;45.5536;0.0;1018.02;66.99713;;;;;;0 / 0;81.3;40.0;3.671;4472;2014-11-17 17:12:45:418
1.216255;-4.462792;-0.90022;-0.931511;-9.702912;1.075265;2.147766;5.240121;-1.975485;-0.102625;0.227853;-0.054978;28.0;14.94;55.44;5.94;280.2045;81.6587;40.9027;0.0;1018.02;66.99713;;;;;;0 / 0;81.3;40.0;3.671;4534;2014-11-17 17:12:45:480
1.216255;-5.679046;-2.001553;-0.416884;-9.797398;-0.087357;1.633139;4.118351;-1.914196;-0.766941;-0.148135;-0.280693;31.0;16.32;55.68;3.24;280.2045;81.6587;40.9027;0.0;1018.16;66.99713;;;;;;0 / 0;81.3;40.0;3.671;4590;2014-11-17 17:12:45:536
0.076614;-5.96635;-1.177947;-0.287543;-9.796338;-0.345621;0.364157;3.829989;-0.832326;-1.763262;0.011912;-0.940427;34.0;14.88;55.44;3.66;178.5697;87.5106;101.8349;0.0;1018.16;66.99713;;;;;;0 / 0;81.3;40.0;3.671;4661;2014-11-17 17:12:45:607
-7.441179;-18.962078;17.879898;0.215542;-9.702578;-1.408507;-7.65672;-9.2595;19.288404;-0.346971;-0.2474;-0.065973;35.0;11.58;54.84;9.18;149.3564;87.3724;140.2409;0.0;1018.16;66.99713;;;;;;0 / 0;81.3;40.0;3.671;4722;2014-11-17 17:12:45:668
7.536947;-7.182605;-1.417367;-0.274246;-9.713458;1.320571;7.811193;2.530854;-2.737939;-0.385151;-0.025045;0.919963;42.0;11.22;54.42;11.64;321.9024;82.0948;11.732;0.0;1017.94;66.99713;;;;;;0 / 0;81.3;40.0;3.671;4781;2014-11-17 17:12:45:727
-1.599327;-9.86411;-0.785298;-0.297246;-9.735984;1.136955;-1.302081;-0.128127;-1.922253;-0.277333;0.168599;-0.456011;34.0;11.04;54.06;13.98;321.9024;82.0948;11.732;0.0;1017.94;64.56595;;;;;;0 / 0;81.3;40.0;3.671;4832;2014-11-17 17:12:45:778
-1.053449;-10.266336;3.122039;-0.480646;-9.709446;1.290745;-0.572802;-0.55689;1.831294;-0.562912;1.074817;0.127671;31.0;10.8;54.18;15.48;321.4498;83.1175;14.6515;0.0;1017.94;64.56595;;;;;;0 / 0;81.3;40.0;3.671;4895;2014-11-17 17:12:45:841
-0.842759;-9.500192;2.403779;-0.456364;-9.693964;1.410387;-0.386395;0.193771;0.993391;-0.194866;-0.182343;-0.037568;34.0;10.56;53.58;16.62;322.9602;81.3058;17.9302;0.0;1018.02;64.56595;;;;;;0 / 0;81.3;40.0;3.671;4965;2014-11-17 17:12:45:911
-0.507571;-9.56723;1.436521;-0.46442;-9.686906;1.455519;-0.043151;0.119676;-0.018998;-0.089186;-0.215941;0.036957;28.0;10.26;53.22;17.28;322.9602;81.3058;17.9302;0.0;1018.02;64.56595;;;;;;0 / 0;81.3;40.0;3.671;5019;2014-11-17 17:12:45:965
0.459687;-9.557652;0.383072;-0.384248;-9.705522;1.351139;0.843935;0.14787;-0.968067;-0.029627;-0.071166;0.039706;0.0;9.9;52.32;17.82;325.9489;81.0372;17.6966;0.0;1018.02;64.56595;;;;;;0 / 0;81.3;40.0;3.671;5080;2014-11-17 17:12:46:026
0.746991;-9.89284;0.746991;-0.274154;-9.717926;1.287297;1.021145;-0.174914;-0.540306;-0.152716;0.040623;0.021075;28.0;9.54;52.14;18.24;326.3858;81.7646;15.8751;0.0;1018.02;64.56595;;;;;;0 / 0;81.3;40.0;3.671;5155;2014-11-17 17:12:46:101
-0.23942;-9.59596;1.455675;-0.270633;-9.716876;1.295938;0.031213;0.120916;0.159736;-0.140804;0.117286;0.013439;31.0;10.08;52.26;18.78;329.7264;82.2414;11.7957;0.0;1018.02;51.5634;;;;;;0 / 0;81.3;40.0;3.671;5211;2014-11-17 17:12:46:157
-0.536301;-10.13226;1.101333;-0.291441;-9.717382;1.28761;-0.24486;-0.414878;-0.186277;6.11E-4;-0.033903;0.089492;31.0;10.08;52.2;18.96;329.7264;82.2414;11.7957;0.0;1018.02;51.5634;;;;;;0 / 0;81.3;40.0;3.671;5275;2014-11-17 17:12:46:221
0.517148;-8.810662;-2.853888;-0.224367;-9.763556;0.890511;0.741514;0.952894;-3.744399;-0.113926;-0.005498;0.069639;28.0;9.84;51.9;19.14;328.9591;82.2633;12.7536;0.0;1018.01;51.5634;;;;;;0 / 0;81.3;40.0;3.671;5331;2014-11-17 17:12:46:277
0.565032;-9.979032;0.641646;-0.131797;-9.770984;0.825184;0.696828;-0.208049;-0.183538;0.059865;0.091324;0.010385;26.0;9.66;51.78;19.02;329.1549;85.1118;9.0745;0.0;1018.01;51.5634;;;;;;0 / 0;81.3;40.0;3.671;5385;2014-11-17 17:12:46:331