sep=;
ACCELEROMETER X (m/s²);ACCELEROMETER Y (m/s²);ACCELEROMETER Z (m/s²);GRAVITY X (m/s²);GRAVITY Y (m/s²);GRAVITY Z (m/s²);LINEAR ACCELERATION X (m/s²);LINEAR ACCELERATION Y (m/s²);LINEAR ACCELERATION Z (m/s²);GYROSCOPE X (rad/s);GYROSCOPE Y (rad/s);GYROSCOPE Z (rad/s);LIGHT (lux);MAGNETIC FIELD X (μT);MAGNETIC FIELD Y (μT);MAGNETIC FIELD Z (μT);ORIENTATION X (°);ORIENTATION Y (°);ORIENTATION Z (°);PROXIMITY (i);ATMOSPHERIC PRESSURE (hPa);SOUND LEVEL (dB);LOCATION Latitude : ;LOCATION Longitude : ;LOCATION Altitude ( m);LOCATION Speed ( Kmh);LOCATION Accuracy ( m);Satellites in range;Temperature (F);Level (%);Voltage (Volt);Time since start in ms ;YYYY-MO-DD HH-MI-SS_SSS
-1.905785;-9.059658;3.361459;0.118013;-9.661412;1.677364;-2.023797;0.601754;1.684096;0.371406;0.614225;0.502437;147.0;45.66;68.64;5.82;298.8056;81.7686;-10.3812;0.0;1018.0;50.22551;;;;;;0 / 0;82.6;42.0;3.69;10;2014-11-17 17:05:30:279
-0.21069;-12.459426;6.722919;-0.219546;-9.577228;2.097354;0.008857;-2.882197;4.625565;1.540297;-0.889114;0.404087;147.0;48.9;67.62;1.56;283.3154;77.5822;5.9758;0.0;1018.03;50.22551;;;;;;0 / 0;82.6;42.0;3.69;77;2014-11-17 17:05:30:346
0.057461;-11.061212;4.874595;-0.348461;-9.342618;2.96048;0.405922;-1.718594;1.914115;1.462411;-0.493579;0.647517;146.0;50.28;66.24;-1.56;283.3154;77.5822;5.9758;0.0;1018.03;50.22551;;;;;;0 / 0;82.6;42.0;3.69;129;2014-11-17 17:05:30:398
-0.306458;-13.742718;5.516241;-0.663829;-9.019842;3.791064;0.357371;-4.722874;1.725177;1.499063;0.193339;0.745867;147.0;52.02;64.2;-5.76;282.8331;66.8922;9.932;0.0;1018.03;50.22551;;;;;;0 / 0;82.6;42.0;3.69;182;2014-11-17 17:05:30:451
-1.877054;-4.941632;3.361459;-1.08106;-8.542506;4.693322;-0.795994;3.600875;-1.331863;0.884533;-0.005803;0.803593;147.0;55.2;58.44;-14.58;275.6822;60.5859;12.9713;0.0;1018.03;50.22551;;;;;;0 / 0;82.6;42.0;3.69;242;2014-11-17 17:05:30:511
-5.832275;-6.83784;7.565677;-1.506234;-8.296374;5.007178;-4.326041;1.458534;2.558499;0.090103;-0.011606;0.686002;146.0;56.52;54.96;-17.34;275.6822;60.5859;12.9713;0.0;1018.03;50.22551;;;;;;0 / 0;82.6;42.0;3.69;312;2014-11-17 17:05:30:581
-0.612916;-3.821146;3.811569;-1.514617;-8.221733;5.126346;0.901702;4.400587;-1.314777;0.102015;-1.157895;0.646295;146.0;57.3;51.84;-19.26;268.1835;57.7787;16.7421;0.0;1018.03;59.85477;;;;;;0 / 0;82.6;42.0;3.69;363;2014-11-17 17:05:30:632
0.536301;-4.970362;8.475474;-0.966948;-8.908582;3.984039;1.503249;3.938219;4.491435;-1.184468;-1.284955;0.014661;147.0;55.14;46.44;-21.6;256.0639;65.2883;13.6422;0.0;1018.1;59.85477;;;;;;0 / 0;82.6;42.0;3.69;424;2014-11-17 17:05:30:693
8.149863;-5.0374;-2.480393;0.012563;-9.070282;3.728301;8.1373;4.032882;-6.208693;0.316734;0.08491;0.094073;162.0;52.8;45.24;-22.98;256.0639;65.2883;13.6422;0.0;1018.1;59.85477;;;;;;0 / 0;82.6;42.0;3.69;486;2014-11-17 17:05:30:755
-10.563218;-17.401058;13.781026;-0.143353;-9.262924;3.216843;-10.419864;-8.138134;10.564182;0.001222;2.119702;-0.956004;161.0;50.64;43.8;-22.26;265.0922;67.655;-0.1931;0.0;1018.1;59.85477;;;;;;0 / 0;82.6;42.0;3.69;558;2014-11-17 17:05:30:827
0.373495;6.981492;-13.579912;-1.169918;-9.12439;3.398115;1.543413;16.105885;-16.978027;-0.662483;1.726;0.273057;183.0;51.24;43.32;-20.04;247.4926;68.5018;18.9978;0.0;1017.98;59.85477;;;;;;0 / 0;82.6;42.0;3.69;611;2014-11-17 17:05:30:880
6.521806;-18.128895;2.997541;-1.204704;-9.437098;2.37912;7.726509;-8.691794;0.61842;-1.385748;-0.869261;-0.89339;222.0;53.28;43.98;-10.98;244.1301;74.2207;26.8561;0.0;1017.98;59.85477;;;;;;0 / 0;82.6;42.0;3.69;661;2014-11-17 17:05:30:930
-4.357447;-15.035586;-7.201759;-0.540325;-9.707958;1.278271;-3.817122;-5.327628;-8.480028;-2.981328;0.966083;-1.095892;211.0;52.74;44.82;-6.9;244.1301;74.2207;26.8561;0.0;1017.98;68.70633;;;;;;0 / 0;82.6;42.0;3.69;717;2014-11-17 17:05:30:986
-1.340753;-19.546263;5.43005;0.712429;-9.705424;-1.211425;-2.053182;-9.840836;6.641475;-3.723529;-0.400422;-1.617571;219.0;49.26;48.72;6.06;253.2447;81.8645;22.9138;0.0;1018.13;68.70633;;;;;;0 / 0;82.6;42.0;3.69;787;2014-11-17 17:05:31:056
-4.730942;-10.189722;7.49864;-0.929115;-9.576736;1.895586;-3.801827;-0.612986;5.603054;-2.637716;1.480127;-0.957531;147.0;46.5;49.62;13.98;273.3594;77.5688;26.1116;0.0;1018.13;68.70633;;;;;;0 / 0;82.6;42.0;3.69;844;2014-11-17 17:05:31:113
-7.613561;-3.323152;6.483498;-1.672182;-9.271868;2.721518;-5.941379;5.948716;3.76198;-0.597121;-0.019853;-0.075442;143.0;39.9;47.88;28.98;291.2905;70.991;31.5678;0.0;1018.13;68.70633;;;;;;0 / 0;82.6;42.0;3.69;911;2014-11-17 17:05:31:180
2.786851;-4.548983;10.122684;-1.416959;-8.977976;3.682196;4.20381;4.428993;6.440489;1.498758;0.53298;1.138958;136.0;37.08;43.68;36.66;291.2905;70.991;31.5678;0.0;1018.03;68.70633;;;;;;0 / 0;82.6;42.0;3.69;971;2014-11-17 17:05:31:240
-3.313575;-8.2169;-0.363919;-1.551321;-8.942124;3.715128;-1.762255;0.725225;-4.079046;2.702163;-0.710436;0.72693;146.0;36.48;40.62;38.94;307.483;65.7613;22.6639;0.0;1018.03;68.70633;;;;;;0 / 0;82.6;42.0;3.69;1036;2014-11-17 17:05:31:305
-2.509123;-19.546263;-3.830723;-1.740077;-8.079571;5.278545;-0.769046;-11.466692;-9.109268;4.722905;-2.5806;1.877494;153.0;37.38;35.88;39.42;311.1478;55.4758;18.2449;0.0;1018.03;66.70177;;;;;;0 / 0;82.6;42.0;3.69;1094;2014-11-17 17:05:31:363
-1.340753;-19.546263;-4.271256;-1.803987;-6.032943;7.517953;0.463234;-13.51332;-11.789208;2.771801;-0.501215;2.490192;125.0;38.46;38.7;35.22;315.6972;37.9657;13.4934;0.0;1018.1;66.70177;;;;;;0 / 0;82.6;42.0;3.69;1161;2014-11-17 17:05:31:430
3.371036;-3.744531;-5.257667;-1.240557;-9.624664;1.413247;4.611593;5.880133;-6.670913;-0.175929;-1.8778;0.457844;120.0;40.02;42.72;30.6;315.6972;37.9657;13.4934;0.0;1018.1;66.70177;;;;;;0 / 0;82.6;42.0;3.69;1214;2014-11-17 17:05:31:483
5.324705;4.797981;-5.583278;-0.47072;-9.78607;0.426209;5.795425;14.58405;-6.009487;-1.783116;-0.490525;-0.475864;147.0;43.98;51.0;23.22;257.3981;86.2873;47.841;0.0;1018.1;66.70177;;;;;;0 / 0;82.6;42.0;3.69;1282;2014-11-17 17:05:31:551
-0.852336;-1.561019;-0.708684;-0.124807;-9.79274;-0.506982;-0.727529;8.23172;-0.201702;-1.53541;-1.10475;-0.863763;144.0;44.82;54.48;21.78;127.2222;86.948;166.1701;0.0;1018.23;66.70177;;;;;;0 / 0;82.6;42.0;3.69;1340;2014-11-17 17:05:31:609
-2.116474;-11.798626;12.603078;-0.771981;-9.634068;1.661073;-1.344494;-2.164557;10.942006;0.401949;2.110234;0.562607;146.0;44.04;61.44;25.44;287.0289;79.235;24.9266;0.0;1018.23;66.70177;;;;;;0 / 0;82.6;42.0;3.69;1400;2014-11-17 17:05:31:669
2.480393;3.217807;3.457227;-1.302176;-9.552116;1.797714;3.782569;12.769924;1.659514;1.192714;1.153008;1.018618;150.0;44.64;65.16;26.76;287.0289;79.235;24.9266;0.0;1018.23;66.37839;;;;;;0 / 0;82.6;42.0;3.69;1454;2014-11-17 17:05:31:723
6.722919;-3.964798;-19.498379;-1.43762;-9.387374;2.445572;8.160539;5.422577;-21.94395;0.313068;-1.14751;-0.869872;158.0;46.86;69.3;26.1;289.1217;73.1854;30.449;0.0;1017.9;66.37839;;;;;;0 / 0;82.6;42.0;3.69;1509;2014-11-17 17:05:31:778
-1.244985;-19.536686;-9.662998;-1.148178;-9.695672;0.919803;-0.096807;-9.841014;-10.5828;-2.881451;1.149648;-1.82893;161.0;48.54;73.2;26.46;289.1217;73.1854;30.449;0.0;1017.9;66.37839;;;;;;0 / 0;82.6;42.0;3.69;1559;2014-11-17 17:05:31:828
-4.041412;-19.546263;4.127604;0.125933;-9.704444;-1.406515;-4.167345;-9.841818;5.534119;-5.443725;0.211665;-2.32251;136.0;45.42;78.42;35.04;261.8276;81.372;51.3019;0.0;1017.9;66.37839;;;;;;0 / 0;82.6;42.0;3.69;1619;2014-11-17 17:05:31:888
0.02873;-9.38527;9.193734;-0.135742;-9.799448;-0.350351;0.164472;0.414177;9.544086;-3.415347;1.769982;-0.065973;126.0;34.8;73.56;57.66;124.9582;81.7207;-174.8836;0.0;1018.21;66.37839;;;;;;0 / 0;82.6;42.0;3.69;1684;2014-11-17 17:05:31:953
-9.20331;-5.717354;7.536947;-1.102051;-9.711802;0.797978;-8.10126;3.994449;6.738969;-0.950506;1.04855;-0.016188;125.0;29.58;68.52;67.62;288.987;82.0248;54.0923;0.0;1018.21;66.37839;;;;;;0 / 0;82.6;42.0;3.69;1757;2014-11-17 17:05:32:026
-2.097321;-2.442086;5.027824;-1.240306;-9.706738;0.641307;-0.857015;7.264652;4.386516;1.457524;0.646906;0.484722;125.0;24.9;63.0;76.32;285.2528;81.8143;62.6585;0.0;1018.21;69.87013;;;;;;0 / 0;82.6;42.0;3.69;1819;2014-11-17 17:05:32:088
1.235408;-2.949656;2.27928;-1.558126;-9.559716;1.534425;2.793534;6.61006;0.744855;2.150551;-0.821003;0.695776;128.0;28.98;69.54;68.04;301.3905;77.115;45.4391;0.0;1018.01;69.87013;;;;;;0 / 0;82.6;42.0;3.69;1887;2014-11-17 17:05:32:156
-10.180144;-19.239805;-4.434061;-1.797925;-9.203288;2.870072;-8.38222;-10.036516;-7.304133;3.306919;-1.682628;1.301143;136.0;35.22;74.7;56.88;301.3905;77.115;45.4391;0.0;1018.01;69.87013;;;;;;0 / 0;82.6;42.0;3.69;1939;2014-11-17 17:05:32:208
0.47884;-17.142485;-3.275268;-1.141261;-9.732624;0.379358;1.620102;-7.409859;-3.654625;3.72078;0.910495;2.312736;131.0;51.36;76.8;20.28;314.5348;55.9667;18.9483;0.0;1018.17;69.87013;;;;;;0 / 0;82.6;42.0;3.69;2029;2014-11-17 17:05:32:298
1.369483;0.794875;-6.991069;-0.81027;-9.755962;-0.578825;2.179753;10.550838;-6.412244;0.249233;-1.418734;0.41325;131.0;56.76;70.38;1.74;204.0835;82.9557;71.6131;0.0;1018.17;69.87013;;;;;;0 / 0;82.6;42.0;3.69;2092;2014-11-17 17:05:32:361
8.255207;3.447651;-6.100425;0.244844;-9.659636;-1.673877;8.010364;13.107286;-4.426548;-0.485943;-0.496939;0.255342;133.0;54.6;47.34;-20.52;54.6733;80.0665;-171.6782;0.0;1018.17;69.87013;;;;;;0 / 0;82.6;42.0;3.69;2152;2014-11-17 17:05:32:421
-1.235408;-4.309563;5.928044;0.234355;-9.751886;-1.00806;-1.469763;5.442324;6.936104;-1.541213;-1.746464;-0.913244;143.0;50.28;42.78;-20.7;54.6733;80.0665;-171.6782;0.0;1018.14;67.50209;;;;;;0 / 0;82.6;42.0;3.69;2223;2014-11-17 17:05:32:492
-2.777274;-4.865018;10.007764;-0.371616;-9.7847;0.540313;-2.405658;4.919684;9.46745;2.038152;1.693013;1.205848;136.0;42.96;40.8;-12.3;222.324;86.1657;34.5194;0.0;1018.14;67.50209;;;;;;0 / 0;82.6;42.0;3.69;2303;2014-11-17 17:05:32:572
-8.858546;-14.63336;-2.250549;-1.376671;-9.70771;0.188372;-7.481875;-4.925649;-2.438922;2.499661;2.839913;0.034514;128.0;41.28;40.02;-6.18;222.324;86.1657;34.5194;0.0;1018.14;67.50209;;;;;;0 / 0;82.6;42.0;3.69;2373;2014-11-17 17:05:32:642
15.179238;-0.967257;-14.5759;-1.361845;-9.708914;0.22976;16.541082;8.741656;-14.80566;-3.378085;2.539672;-1.496314;128.0;40.86;40.44;1.56;186.41;81.904;80.4237;0.0;1017.98;67.50209;;;;;;0 / 0;82.6;42.0;3.69;2434;2014-11-17 17:05:32:703
-9.155426;-19.546263;-6.100425;-0.087926;-9.598448;-2.008098;-9.0675;-9.947814;-4.092327;-4.5146;-1.504256;-2.083356;129.0;38.7;42.06;6.78;89.8608;78.1725;177.4929;0.0;1017.98;67.50209;;;;;;0 / 0;82.6;42.0;3.69;2491;2014-11-17 17:05:32:760
0.871489;-15.351622;8.532936;-0.089533;-9.691866;-1.493345;0.961022;-5.659755;10.02628;-2.439185;2.357634;-0.219911;122.0;32.82;45.66;22.08;117.7495;81.2251;176.5689;0.0;1017.98;70.2137;;;;;;0 / 0;82.6;42.0;3.69;2546;2014-11-17 17:05:32:815
-4.481945;-5.430049;6.263232;-1.569003;-9.603636;1.216058;-2.912942;4.173587;5.047174;0.329562;2.390316;0.05284;122.0;30.18;46.44;29.46;117.7495;81.2251;176.5689;0.0;1018.04;70.2137;;;;;;0 / 0;82.6;42.0;3.69;2624;2014-11-17 17:05:32:893
-1.810016;-1.934515;1.762132;-1.989113;-9.443464;1.74207;0.179097;7.50895;0.020062;1.085202;2.955366;0.431576;139.0;26.52;47.82;38.52;281.1558;78.3214;52.2225;0.0;1018.04;70.2137;;;;;;0 / 0;82.6;42.0;3.69;2676;2014-11-17 17:05:32:945
-1.810016;-1.934515;1.762132;-1.989113;-9.443464;1.74207;0.179097;7.50895;0.020062;2.243708;-1.472185;0.476169;139.0;26.76;49.62;37.56;291.2463;74.358;48.788;0.0;1018.04;70.2137;;;;;;0 / 0;82.6;42.0;3.69;2732;2014-11-17 17:05:33:001
-10.199298;-19.029116;-4.807557;-2.207619;-9.027438;3.130841;-7.99168;-10.001678;-7.938398;3.71742;-4.014606;1.207986;142.0;28.38;51.36;33.72;291.2463;74.358;48.788;0.0;1018.0;70.2137;;;;;;0 / 0;82.6;42.0;3.69;2783;2014-11-17 17:05:33:052
9.212888;-19.546263;-6.186617;-2.15438;-8.019139;5.217513;11.367268;-11.527122;-11.40413;4.28858;-2.781269;1.402547;136.0;36.36;50.4;16.8;299.5536;67.0055;35.1884;0.0;1018.0;70.2137;;;;;;0 / 0;82.6;42.0;3.69;2835;2014-11-17 17:05:33:104
-1.359906;-18.981232;-1.580173;-2.99949;-6.296483;6.894037;1.639584;-12.684748;-8.47421;2.04701;-1.798693;1.827403;139.0;40.2;46.38;8.28;306.7104;39.9458;23.5131;0.0;1018.0;70.2137;;;;;;0 / 0;82.6;42.0;3.69;2901;2014-11-17 17:05:33:170
1.944092;-0.603339;-5.870582;-1.010395;-9.736704;-0.588252;2.954487;9.133366;-5.28233;0.274889;-1.973706;0.563829;142.0;42.12;36.18;-3.78;140.4236;83.1529;120.208;0.0;1018.14;68.48409;;;;;;0 / 0;82.6;42.0;3.69;2954;2014-11-17 17:05:33:223
6.617574;2.470816;-3.217807;-0.124567;-9.717572;-1.312883;6.74214;12.18839;-1.904924;-1.324356;-0.993267;-0.734871;128.0;38.58;31.02;-6.06;80.7189;82.2716;174.58;0.0;1018.14;68.48409;;;;;;0 / 0;82.6;42.0;3.69;3036;2014-11-17 17:05:33:305
-1.762132;-2.681506;2.652776;0.11522;-9.60437;-1.978176;-1.877353;6.922865;4.630952;-0.341779;0.960891;0.511905;125.0;35.28;31.14;-5.82;80.7189;82.2716;174.58;0.0;1018.14;68.48409;;;;;;0 / 0;82.6;42.0;3.69;3096;2014-11-17 17:05:33:365
-3.667917;-15.648502;1.599327;-1.198363;-9.715954;0.578392;-2.469554;-5.932548;1.020934;1.428814;1.128879;0.956615;128.0;31.32;31.74;-3.3;182.9659;84.5113;78.6954;0.0;1018.04;68.48409;;;;;;0 / 0;82.6;42.0;3.69;3158;2014-11-17 17:05:33:427
-3.667917;-15.648502;1.599327;-1.198363;-9.715954;0.578392;-2.469554;-5.932548;1.020934;0.284663;-0.764192;-0.689056;128.0;30.18;31.62;-2.76;203.552;82.2016;64.2356;0.0;1018.04;68.48409;;;;;;0 / 0;82.6;42.0;3.69;3213;2014-11-17 17:05:33:482
0.268151;-19.297266;-9.461884;-0.154569;-9.452358;-2.607563;0.42272;-9.844908;-6.854322;-2.447126;0.302989;-1.794417;133.0;29.28;31.44;-1.68;119.5898;81.5102;138.2582;0.0;1018.12;68.48409;;;;;;0 / 0;82.6;42.0;3.69;3286;2014-11-17 17:05:33:555
-5.72693;-19.239805;4.146757;1.020678;-8.525124;-4.73824;-6.747608;-10.714682;8.884998;-4.856378;0.448375;-2.190257;126.0;27.06;32.82;0.48;74.9443;74.552;176.6076;0.0;1018.12;68.88797;;;;;;0 / 0;82.6;42.0;3.69;3356;2014-11-17 17:05:33:625
-1.886631;-4.3766;10.88883;-1.275549;-9.705978;-0.580839;-0.611082;5.329378;11.469668;-2.455067;1.662775;-0.072693;126.0;24.9;34.5;4.56;74.9443;74.552;176.6076;0.0;1018.12;68.88797;;;;;;0 / 0;82.6;42.0;3.69;3420;2014-11-17 17:05:33:689
-5.238513;-4.491522;6.962339;-1.731258;-9.63922;0.50845;-3.507256;5.147699;6.453889;-0.718377;1.342376;-0.293826;125.0;21.06;36.72;19.8;190.1362;81.7831;114.4828;0.0;1018.12;68.88797;;;;;;0 / 0;82.6;42.0;3.69;3480;2014-11-17 17:05:33:749
-1.982399;-1.120486;4.204219;-1.883197;-9.607012;0.573838;-0.099202;8.486526;3.63038;1.653612;0.71624;0.556498;129.0;19.56;35.16;28.56;259.8305;79.3974;73.6331;0.0;1018.12;68.88797;;;;;;0 / 0;82.6;42.0;3.69;3558;2014-11-17 17:05:33:827
-1.599327;-5.027823;0.574608;-2.215917;-9.413154;1.62868;0.616591;4.385331;-1.054072;2.048842;-0.112705;0.683253;125.0;18.66;34.74;30.48;288.9651;73.7142;53.6844;0.0;1018.12;68.88797;;;;;;0 / 0;82.6;42.0;3.69;3612;2014-11-17 17:05:33:881
-7.163451;-19.52711;-6.83784;-2.775756;-8.96605;2.841744;-4.387696;-10.561058;-9.679584;3.757738;-3.648087;1.538464;133.0;18.18;35.94;31.56;288.9651;73.7142;53.6844;0.0;1018.07;67.48949;;;;;;0 / 0;82.6;42.0;3.69;3664;2014-11-17 17:05:33:933
7.469909;-19.546263;-3.457227;-2.671961;-7.750977;5.380834;10.14187;-11.795286;-8.83806;4.145026;-2.378709;1.545489;128.0;23.7;41.58;26.34;302.4735;66.1041;44.327;0.0;1018.07;67.48949;;;;;;0 / 0;82.6;42.0;3.69;3716;2014-11-17 17:05:33:985
4.29041;-11.45386;-3.380613;-0.930159;-9.76143;-0.140269;5.220569;-1.69243;-3.240344;1.950187;-1.262964;1.26388;125.0;30.24;43.56;19.38;310.2114;52.221;26.4076;0.0;1018.07;67.48949;;;;;;0 / 0;82.6;42.0;3.69;3773;2014-11-17 17:05:34:042
0.814029;1.177947;-5.142745;-1.337883;-9.690606;0.687447;2.151911;10.868554;-5.830192;-0.110567;-0.397673;0.259007;125.0;42.12;40.5;3.36;216.757;81.177;62.8045;0.0;1017.97;67.48949;;;;;;0 / 0;82.6;42.0;3.69;3850;2014-11-17 17:05:34:119
2.346318;1.331176;-1.388637;-1.255927;-9.71983;0.343476;3.602245;11.051006;-1.732113;-0.972803;0.312763;-0.286801;122.0;44.82;36.36;-0.48;216.757;81.177;62.8045;0.0;1017.97;67.48949;;;;;;0 / 0;82.6;42.0;3.69;3907;2014-11-17 17:05:34:176
-2.633622;-5.72693;9.011776;-0.612678;-9.786164;-0.161169;-2.020944;4.059235;9.172944;-0.858876;0.48014;0.218995;125.0;44.16;30.9;-1.62;194.2438;82.3702;74.7045;0.0;1017.97;67.48949;;;;;;0 / 0;82.6;42.0;3.69;3961;2014-11-17 17:05:34:230
-2.346318;-0.392649;0.612916;-0.732074;-9.769312;-0.441604;-1.614243;9.376664;1.05452;0.047647;1.305419;0.319177;118.0;43.26;29.28;-0.06;164.5667;86.296;104.7381;0.0;1018.02;66.66199;;;;;;0 / 0;82.6;42.0;3.69;4026;2014-11-17 17:05:34:295
2.30801;-19.28769;-8.781932;-1.134112;-9.739902;0.135863;3.442122;-9.547786;-8.917794;0.370184;-0.361938;-0.659429;120.0;42.06;25.44;3.6;193.2666;83.3114;83.1687;0.0;1018.02;66.66199;;;;;;0 / 0;82.6;42.0;3.69;4087;2014-11-17 17:05:34:356
0.354342;-16.76899;-6.751649;-1.048831;-9.745624;0.305136;1.403173;-7.023365;-7.056784;-2.33381;2.163074;-1.092227;125.0;40.86;22.32;6.54;207.6242;83.6048;73.7788;0.0;1018.02;66.66199;;;;;;0 / 0;82.6;42.0;3.69;4155;2014-11-17 17:05:34:424
-1.532289;-19.546263;-9.35654;-0.098244;-9.73705;-1.162129;-1.434045;-9.809212;-8.194411;-4.55736;0.102015;-1.93125;122.0;38.16;20.76;11.58;108.81;83.1698;175.1679;0.0;1018.12;66.66199;;;;;;0 / 0;82.6;42.0;3.69;4215;2014-11-17 17:05:34:484
-7.067683;-17.860744;7.575254;1.058082;-9.071162;-3.572797;-8.125765;-8.789582;11.148052;-4.306294;2.056172;-1.554957;128.0;36.0;21.6;15.24;108.81;83.1698;175.1679;0.0;1018.12;66.66199;;;;;;0 / 0;82.6;42.0;3.69;4270;2014-11-17 17:05:34:539
-4.472368;-3.610456;11.626244;-1.325321;-9.704654;-0.483341;-3.147047;6.094198;12.109584;-3.238807;2.882062;-0.172264;122.0;33.78;22.74;20.16;90.103;67.6685;-163.5034;0.0;1018.12;66.66199;;;;;;0 / 0;82.6;42.0;3.69;4329;2014-11-17 17:05:34:598
-5.027823;-1.781286;4.970363;-1.772975;-9.63223;0.497093;-3.254848;7.850945;4.47327;-0.258396;0.112399;0.152411;124.0;30.3;23.52;25.8;90.103;67.6685;-163.5034;0.0;1017.93;66.66199;;;;;;0 / 0;82.6;42.0;3.69;4391;2014-11-17 17:05:34:660
3.572149;-3.007117;3.754108;-1.803257;-9.623812;0.548569;5.375407;6.616695;3.205539;1.413848;0.578795;-0.081551;122.0;24.36;24.06;35.94;252.5511;79.1777;74.338;0.0;1017.93;69.30792;;;;;;0 / 0;82.6;42.0;3.69;4464;2014-11-17 17:05:34:733
-2.049437;-2.930503;0.708684;-1.814608;-9.54907;1.301096;-0.234829;6.618569;-0.592413;1.714088;0.136834;0.609033;125.0;22.08;24.84;39.06;261.8986;78.9187;73.0797;0.0;1017.93;69.30792;;;;;;0 / 0;82.6;42.0;3.69;4518;2014-11-17 17:05:34:787
-9.299078;-19.507956;-3.265691;-2.381371;-9.202492;2.411135;-6.917707;-10.305462;-5.676826;2.16002;-0.987464;1.758376;120.0;22.5;25.32;39.42;294.026;69.7834;44.6442;0.0;1017.97;69.30792;;;;;;0 / 0;82.6;42.0;3.69;4568;2014-11-17 17:05:34:837
4.204219;-19.546263;-2.96881;-2.659039;-8.269449;4.551496;6.863258;-11.276814;-7.520306;3.957491;-0.392786;2.320983;103.0;26.1;26.28;38.28;294.026;69.7834;44.6442;0.0;1017.97;69.30792;;;;;;0 / 0;82.6;42.0;3.69;4643;2014-11-17 17:05:34:912
1.905785;-18.109741;-4.309563;-3.314421;-6.594622;6.45724;5.220206;-11.51512;-10.766804;3.00393;-1.501812;2.311514;100.0;32.04;30.12;32.16;303.8064;57.4848;30.294;0.0;1017.97;69.30792;;;;;;0 / 0;82.6;42.0;3.69;4702;2014-11-17 17:05:34:971
2.920926;-4.070143;-4.903325;-1.005761;-9.748906;-0.342974;3.926687;5.678765;-4.560351;0.814894;-1.55679;1.147205;73.0;34.14;33.0;28.26;202.5477;83.7793;108.8298;0.0;1018.12;69.30792;;;;;;0 / 0;82.6;42.0;3.69;4765;2014-11-17 17:05:35:034
2.049437;0.737414;-3.552995;-1.627273;-9.66752;0.247905;3.67671;10.404934;-3.8009;-0.631635;-1.247387;0.088575;70.0;39.54;39.48;19.5;221.1995;80.3372;81.338;0.0;1018.12;67.90262;;;;;;0 / 0;82.6;42.0;3.69;4825;2014-11-17 17:05:35:094
2.365471;0.775721;-2.480393;-1.63835;-9.668618;0.063305;4.003821;10.444342;-2.543698;-0.572992;-2.537229;-0.503964;57.0;41.52;41.64;15.96;221.1995;80.3372;81.338;0.0;1018.12;67.90262;;;;;;0 / 0;82.6;42.0;3.69;4884;2014-11-17 17:05:35:153
-7.661445;-8.619126;10.180146;-0.980969;-9.755012;-0.218675;-6.680477;1.135887;10.398822;-0.04612;-1.769371;0.700357;51.0;43.02;45.84;11.16;203.0016;80.3755;87.7872;0.0;1017.99;67.90262;;;;;;0 / 0;82.6;42.0;3.69;4945;2014-11-17 17:05:35:214
-14.834474;-16.165648;17.401058;-1.257;-9.724778;-0.137927;-13.577474;-6.440871;17.538984;2.513405;-0.970054;1.749518;42.0;43.74;47.04;9.06;186.1823;82.5912;96.2619;0.0;1017.99;67.90262;;;;;;0 / 0;82.6;42.0;3.69;5007;2014-11-17 17:05:35:276
5.43005;5.870583;-9.83538;-2.146632;-9.460402;1.436365;7.576682;15.330984;-11.271746;4.990464;-1.942551;1.605354;51.0;45.3;46.98;4.68;186.1823;82.5912;96.2619;0.0;1017.99;67.90262;;;;;;0 / 0;82.6;42.0;3.69;5058;2014-11-17 17:05:35:327
1.043872;-10.812214;0.153229;-1.584261;-9.657344;0.629477;2.628133;-1.154871;-0.476248;0.682642;-1.216538;1.108415;49.0;49.86;44.22;-4.2;225.3502;74.7294;56.2125;0.0;1018.0;67.90262;;;;;;0 / 0;82.6;42.0;3.69;5116;2014-11-17 17:05:35:385
-4.405331;-10.831368;3.141193;-1.890296;-9.595236;0.727075;-2.515035;-1.236133;2.414118;-1.452637;-0.039095;0.102015;48.0;51.54;42.9;-8.04;195.1334;78.0813;68.9615;0.0;1018.0;67.3452;;;;;;0 / 0;82.6;42.0;3.69;5168;2014-11-17 17:05:35:437
-2.959233;-7.958326;3.936068;-2.015463;-9.542482;1.024354;-0.94377;1.584157;2.911714;-1.664913;-0.715629;0.113926;51.0;52.74;42.84;-8.94;195.1334;78.0813;68.9615;0.0;1018.0;67.3452;;;;;;0 / 0;82.6;42.0;3.69;5219;2014-11-17 17:05:35:488
-3.342306;-6.426037;3.342306;-2.18394;-9.47498;1.274969;-1.158365;3.048943;2.067337;-1.911397;-1.183551;-0.080634;37.0;52.92;44.1;-8.76;201.7748;76.671;63.0582;0.0;1018.08;67.3452;;;;;;0 / 0;82.6;42.0;3.69;5292;2014-11-17 17:05:35:561
-0.6608;-8.255207;3.811569;-2.03404;-9.448336;1.661923;1.37324;1.19313;2.149647;-1.280068;-1.632843;0.050091;37.0;51.18;46.2;-6.48;208.4186;75.0562;59.7239;0.0;1018.08;67.3452;;;;;;0 / 0;82.6;42.0;3.69;5353;2014-11-17 17:05:35:622
0.938527;-10.151414;3.438074;-1.699238;-9.47231;1.886349;2.637766;-0.679104;1.551724;-0.328951;-0.94287;0.030849;31.0;49.8;46.98;-5.52;233.5624;74.9958;42.0128;0.0;1018.08;67.3452;;;;;;0 / 0;82.6;42.0;3.69;5406;2014-11-17 17:05:35:675
-3.840299;-11.549628;0.555455;-1.876366;-9.462284;1.764898;-1.963933;-2.087345;-1.209443;-0.240681;-0.562301;-0.087048;31.0;48.96;47.4;-5.1;233.5624;74.9958;42.0128;0.0;1017.98;67.3452;;;;;;0 / 0;82.6;42.0;3.69;5460;2014-11-17 17:05:35:729
1.35033;-8.437166;1.120486;-1.613634;-9.515052;1.740794;2.963964;1.077885;-0.620308;-0.22938;-0.930653;0.128587;34.0;47.4;48.18;-4.98;230.1223;74.7711;46.7534;0.0;1017.98;62.19062;;;;;;0 / 0;82.6;42.0;3.69;5527;2014-11-17 17:05:35:796
-0.6608;-11.300632;4.213795;-1.44549;-9.506484;1.925534;0.784691;-1.794147;2.288261;-0.310625;0.321926;0.099571;31.0;46.74;48.6;-5.4;233.5593;75.9928;42.8291;0.0;1017.98;62.19062;;;;;;0 / 0;82.6;42.0;3.69;5591;2014-11-17 17:05:35:860
0.430956;-8.370129;1.254562;-1.27331;-9.535458;1.903708;1.704266;1.165329;-0.649146;-0.155465;-0.040928;0.064752;34.0;46.92;48.72;-5.22;243.6102;76.4942;33.7769;0.0;1017.94;62.19062;;;;;;0 / 0;82.6;42.0;3.69;5654;2014-11-17 17:05:35:923
-1.963245;-10.036492;3.246538;-1.339525;-9.50447;2.01025;-0.623721;-0.532022;1.236288;-0.334754;0.223882;0.004276;26.0;47.34;49.14;-4.68;244.6432;75.7396;33.6774;0.0;1017.94;62.19062;;;;;;0 / 0;82.6;42.0;3.69;5713;2014-11-17 17:05:35:982
-0.603339;-9.040504;2.691083;-1.250219;-9.49412;2.114005;0.64688;0.453615;0.577078;-0.062308;-0.225104;0.051924;34.0;47.46;49.26;-4.26;244.6432;75.7396;33.6774;0.0;1017.94;62.19062;;;;;;0 / 0;82.6;42.0;3.69;5766;2014-11-17 17:05:36:035
-0.220267;-9.394848;2.470816;-1.144872;-9.498522;2.15354;0.924606;0.103675;0.317276;-0.078191;-0.075136;0.012828;31.0;47.04;49.32;-3.84;249.6837;75.4962;30.6;0.0;1017.98;62.19062;;;;;;0 / 0;82.6;42.0;3.69;5831;2014-11-17 17:05:36:100
-0.440533;-9.634268;1.130063;-1.074515;-9.527084;2.061674;0.633982;-0.107183;-0.93161;-0.019853;0.152105;0.073609;34.0;46.98;49.56;-3.48;253.6322;76.2862;27.5279;0.0;1017.98;55.77048;;;;;;0 / 0;82.6;42.0;3.69;5896;2014-11-17 17:05:36:165
-1.283292;-9.471462;2.116475;-1.109501;-9.52452;2.054968;-0.173791;0.053059;0.061506;-0.077274;0.177456;0.036957;37.0;46.74;49.62;-3.48;252.8227;76.2232;28.3651;0.0;1017.98;55.77048;;;;;;0 / 0;82.6;42.0;3.69;5955;2014-11-17 17:05:36:224
-0.957681;-9.375694;2.126051;-1.08656;-9.521082;2.082969;0.12888;0.145388;0.043082;-0.002749;-0.09896;0.07086;31.0;46.8;49.74;-3.96;252.8227;76.2232;28.3651;0.0;1017.97;55.77048;;;;;;0 / 0;82.6;42.0;3.69;6009;2014-11-17 17:05:36:278
-0.325611;-9.318232;1.580173;-1.016832;-9.53808;2.039967;0.691221;0.219847;-0.459794;0.020769;-0.102014;0.092546;34.0;46.98;49.44;-3.78;252.1691;76.1391;27.5484;0.0;1017.97;55.77048;;;;;;0 / 0;82.6;42.0;3.69;6061;2014-11-17 17:05:36:330
-0.71826;-9.825804;1.637634;-0.982152;-9.553904;1.982093;0.263891;-0.271899;-0.344459;-0.178678;-0.218384;0.070555;31.0;46.68;49.56;-3.54;252.7778;76.5599;26.4942;0.0;1017.97;55.77048;;;;;;0 / 0;82.6;42.0;3.69;6127;2014-11-17 17:05:36:396
-0.316035;-9.854534;2.5187;-0.906288;-9.545504;2.057283;0.590253;-0.309031;0.461418;0.113926;-0.079718;0.047647;31.0;46.26;49.74;-3.78;255.9226;76.7478;23.7748;0.0;1018.04;55.77048;;;;;;0 / 0;82.6;42.0;3.69;6183;2014-11-17 17:05:36:452