sep=;
ACCELEROMETER X (m/s²);ACCELEROMETER Y (m/s²);ACCELEROMETER Z (m/s²);GRAVITY X (m/s²);GRAVITY Y (m/s²);GRAVITY Z (m/s²);LINEAR ACCELERATION X (m/s²);LINEAR ACCELERATION Y (m/s²);LINEAR ACCELERATION Z (m/s²);GYROSCOPE X (rad/s);GYROSCOPE Y (rad/s);GYROSCOPE Z (rad/s);LIGHT (lux);MAGNETIC FIELD X (μT);MAGNETIC FIELD Y (μT);MAGNETIC FIELD Z (μT);ORIENTATION X (°);ORIENTATION Y (°);ORIENTATION Z (°);PROXIMITY (i);ATMOSPHERIC PRESSURE (hPa);SOUND LEVEL (dB);LOCATION Latitude : ;LOCATION Longitude : ;LOCATION Altitude ( m);LOCATION Speed ( Kmh);LOCATION Accuracy ( m);Satellites in range;Temperature (F);Level (%);Voltage (Volt);Time since start in ms ;YYYY-MO-DD HH-MI-SS_SSS
0.019154;0.019154;10.160992;-0.146646;-0.039965;9.805472;0.1658;0.059119;0.35552;9.16E-4;0.022602;0.060476;307.0;-24.3;-11.28;-45.12;114.3825;0.2335;0.8568;3.15;1018.22;23.86357;;;;;;0 / 0;84.0;42.0;3.673;41;2014-11-17 18:13:52:233
-2.202665;-2.183512;10.390836;-0.172298;-0.110998;9.804508;-2.030368;-2.072514;0.586328;-0.013439;-0.027489;-0.069944;304.0;-24.72;-11.46;-44.94;113.5117;0.2309;0.8916;3.15;1018.22;23.86357;;;;;;0 / 0;84.0;42.0;3.673;150;2014-11-17 18:13:52:342
1.484405;1.580173;13.771448;0.005725;-0.083351;9.806294;1.47868;1.663525;3.965154;-0.3992;-2.525317;0.900721;304.0;-24.9;-11.7;-44.4;116.3564;0.487;-0.0335;3.15;1018.17;39.73668;;;;;;0 / 0;84.0;42.0;3.673;215;2014-11-17 18:13:52:407
2.710236;-1.340753;2.422932;1.425198;-0.315974;9.69739;1.285039;-1.024779;-7.274457;-0.004276;-2.985604;0.514654;260.0;-29.28;-10.8;-41.16;118.6859;1.8464;-8.3607;3.15;1018.17;39.73668;;;;;;0 / 0;84.0;42.0;3.673;284;2014-11-17 18:13:52:476
1.963245;-1.963245;10.43872;0.418681;-0.470588;9.786402;1.544565;-1.492657;0.652319;-1.075123;2.214387;-1.167363;182.0;-33.96;-9.36;-37.92;118.6859;1.8464;-8.3607;3.15;1018.17;39.73668;;;;;;0 / 0;84.0;42.0;3.673;338;2014-11-17 18:13:52:530
-0.124498;-1.8579;13.512876;-0.1875;-0.735966;9.777198;0.063002;-1.121934;3.735678;-1.320996;1.643533;-1.025643;233.0;-34.38;-8.52;-37.56;108.7357;4.304;1.0986;3.15;1018.13;39.73668;;;;;;0 / 0;84.0;42.0;3.673;395;2014-11-17 18:13:52:587
0.076614;-2.786851;11.31021;-0.193512;-0.571335;9.78808;0.270127;-2.215516;1.522129;1.262964;5.592471;0.16585;255.0;-27.24;-7.26;-42.3;108.6727;3.3399;1.1326;3.15;1018.13;39.73668;;;;;;0 / 0;84.0;42.0;3.673;461;2014-11-17 18:13:52:653
-3.198653;-2.001553;11.492168;-0.862332;-0.647584;9.747174;-2.336321;-1.353969;1.744994;0.947452;4.893947;0.304516;324.0;-19.98;-7.56;-45.66;108.6727;3.3399;1.1326;3.15;1018.13;39.73668;;;;;;0 / 0;84.0;42.0;3.673;525;2014-11-17 18:13:52:717
-6.876147;1.915361;8.686164;-1.476023;-0.221681;9.6924;-5.400123;2.137043;-1.006235;2.505769;3.984369;0.651182;335.0;-0.78;-10.5;-49.68;128.4844;3.7863;5.0558;3.15;1018.09;51.67597;;;;;;0 / 0;84.0;42.0;3.673;584;2014-11-17 18:13:52:776
-8.599972;2.202666;6.272809;-2.103872;0.07511;9.57802;-6.4961;2.127556;-3.305211;-1.09467;-3.584863;-0.53695;222.0;25.2;-29.64;-37.26;196.021;0.9258;11.0533;3.15;1018.11;51.67597;;;;;;0 / 0;84.0;42.0;3.673;798;2014-11-17 18:13:52:990
-3.974375;1.80044;7.891289;-2.978301;0.3744;9.335948;-0.996073;1.42604;-1.444659;-1.10475;-3.218649;-0.187841;387.0;23.7;-30.36;-37.44;207.5777;-0.4388;12.3886;3.15;1018.11;51.67597;;;;;;0 / 0;84.0;42.0;3.673;881;2014-11-17 18:13:53:073
-2.863465;0.047884;9.184158;-2.939418;0.216429;9.353254;0.075953;-0.168545;-0.169097;-0.694248;-3.349069;0.270919;390.0;12.54;-31.32;-40.2;180.445;-2.188;17.6934;3.15;1018.11;55.20511;;;;;;0 / 0;84.0;42.0;3.673;932;2014-11-17 18:13:53:124
-4.156334;-0.45011;11.980586;-3.194942;0.096845;9.271104;-0.961392;-0.546955;2.709482;-0.445015;-1.525025;-1.14018;390.0;1.68;-30.42;-43.2;180.445;-2.188;17.6934;3.15;1018.11;55.20511;;;;;;0 / 0;84.0;42.0;3.673;995;2014-11-17 18:13:53:187
0.861913;1.714248;12.325352;-2.78738;0.485855;9.389614;3.649293;1.228394;2.935737;1.873524;-0.500909;-1.640479;387.0;-7.26;-29.94;-43.5;147.2213;-0.5658;19.0146;3.15;1018.11;55.20511;;;;;;0 / 0;84.0;42.0;3.673;1063;2014-11-17 18:13:53:255
-2.317587;1.905785;11.750742;-2.643106;0.646086;9.421622;0.325519;1.259699;2.329121;1.326494;-1.755627;-1.223868;376.0;-8.1;-31.56;-42.3;147.0699;-3.7775;15.6707;3.15;1018.11;55.20511;;;;;;0 / 0;84.0;42.0;3.673;1120;2014-11-17 18:13:53:312
-1.896208;3.447651;10.62068;-2.556169;0.962586;9.41859;0.659961;2.485065;1.20209;1.870469;-0.886365;-0.618196;274.0;-8.76;-33.54;-40.56;147.0699;-3.7775;15.6707;3.15;1018.11;55.20511;;;;;;0 / 0;84.0;42.0;3.673;1172;2014-11-17 18:13:53:364
-0.737414;3.936068;10.170568;-2.542066;1.416648;9.364902;1.804652;2.519419;0.805666;2.558915;0.325897;-1.0345;149.0;-9.48;-39.3;-35.34;150.1335;-5.633;15.1841;3.15;1018.11;55.20511;;;;;;0 / 0;84.0;42.0;3.673;1225;2014-11-17 18:13:53:417
-2.614468;5.889736;3.8403;-2.482991;2.074148;9.257594;-0.131477;3.815588;-5.417294;2.956588;-0.968832;-1.915062;31.0;-9.66;-42.6;-31.56;154.8819;-8.3059;15.1868;3.15;1018.13;55.20511;;;;;;0 / 0;84.0;42.0;3.673;1284;2014-11-17 18:13:53:476
-0.248997;6.952762;4.606444;-2.544167;2.556494;9.119318;2.295171;4.396268;-4.512873;2.244319;0.274279;-0.890031;28.0;-6.9;-49.32;-22.02;163.3345;-15.111;15.5884;3.15;1018.13;67.76029;;;;;;0 / 0;84.0;42.0;3.673;1341;2014-11-17 18:13:53:533
-3.955221;6.732496;4.338294;-2.653574;2.97996;8.958168;-1.301647;3.752535;-4.619873;1.665524;-1.109637;-2.002416;20.0;-4.98;-51.54;-17.4;163.3345;-15.111;15.5884;3.15;1018.13;67.76029;;;;;;0 / 0;84.0;42.0;3.673;1398;2014-11-17 18:13:53:590
-3.706224;5.90889;4.242526;-2.889044;3.402665;8.731878;-0.81718;2.506225;-4.489351;1.356732;-0.696692;-1.911092;20.0;1.44;-53.04;-10.02;173.176;-17.6903;16.5003;3.15;1018.15;67.76029;;;;;;0 / 0;81.9;41.0;3.676;1473;2014-11-17 18:13:53:665
-6.062118;5.793968;3.447651;-3.46687;3.820115;8.34014;-2.595249;1.973853;-4.892489;2.024102;-0.013439;-1.629788;15.0;5.04;-52.86;-6.66;182.4265;-22.9261;22.5719;3.15;1018.15;67.76029;;;;;;0 / 0;81.9;41.0;3.676;1528;2014-11-17 18:13:53:720
-7.10599;5.90889;2.097321;-4.005201;4.210832;7.899218;-3.100789;1.698058;-5.801897;1.90987;-0.389427;-1.720502;0.0;12.78;-51.6;0.06;194.6236;-25.4286;26.8867;0.0;1018.15;67.76029;;;;;;0 / 0;81.9;41.0;3.676;1600;2014-11-17 18:13:53:792
-6.789956;6.713342;0.622492;-4.496031;4.652005;7.369868;-2.293925;2.061337;-6.747375;0.807258;0.313068;-0.650877;0.0;16.5;-50.58;3.36;194.6236;-25.4286;26.8867;0.0;1018.15;67.76029;;;;;;0 / 0;81.9;41.0;3.676;1658;2014-11-17 18:13:53:850
-5.995081;7.105991;1.541866;-4.815953;5.03181;6.903469;-1.179128;2.074181;-5.361603;0.346361;0.402866;-0.145386;0.0;21.66;-48.06;8.82;205.7005;-28.3185;31.3855;0.0;1018.15;39.11296;;;;;;0 / 0;81.9;41.0;3.676;1715;2014-11-17 18:13:53:907
-6.828263;6.675035;2.384625;-5.189362;5.116483;6.562204;-1.638901;1.558552;-4.177579;0.167377;0.391259;0.015882;0.0;23.1;-47.28;10.74;213.7906;-31.4488;38.3368;0.0;1018.15;39.11296;;;;;;0 / 0;81.9;41.0;3.676;1771;2014-11-17 18:13:53:963
-5.305551;7.211336;2.06859;-5.373656;5.274541;6.282789;0.068105;1.936795;-4.214199;0.191506;0.295048;-0.329867;0.0;23.88;-46.8;12.36;215.7744;-32.5376;40.5403;0.0;1018.09;39.11296;;;;;;0 / 0;81.9;41.0;3.676;1845;2014-11-17 18:13:54:037
-6.684611;7.297527;0.440533;-5.732617;5.461298;5.786339;-0.951994;1.836229;-5.345805;0.16249;0.193644;0.047037;0.0;24.12;-46.44;13.68;217.5304;-32.9207;43.0277;0.0;1018.09;39.11296;;;;;;0 / 0;81.9;41.0;3.676;1940;2014-11-17 18:13:54:132
-6.272808;7.28795;1.695095;-5.80963;5.516111;5.65607;-0.463179;1.771839;-3.960975;-0.166461;0.368046;0.193644;0.0;24.72;-45.54;14.4;217.5304;-32.9207;43.0277;0.0;1018.17;39.11296;;;;;;0 / 0;81.9;41.0;3.676;2010;2014-11-17 18:13:54:202
-6.234501;7.316681;1.656788;-5.835922;5.605703;5.539722;-0.39858;1.710978;-3.882934;0.091019;0.03879;0.062308;0.0;24.3;-45.6;14.82;218.7542;-34.2279;45.7673;0.0;1018.17;18.25505;;;;;;0 / 0;81.9;41.0;3.676;2077;2014-11-17 18:13:54:269
-5.899313;7.211336;2.001553;-5.833316;5.709754;5.435213;-0.065997;1.501582;-3.43366;-0.015577;0.117592;0.170737;0.0;23.88;-45.78;15.06;219.1179;-34.8634;46.4915;0.0;1018.17;18.25505;;;;;;0 / 0;81.9;41.0;3.676;2134;2014-11-17 18:13:54:326
-6.205771;7.211336;1.532289;-5.846122;5.804911;5.319424;-0.359649;1.406425;-3.787135;0.03207;0.008858;0.045204;0.0;23.94;-45.84;15.42;219.9376;-36.2945;47.7007;0.0;1018.17;18.25505;;;;;;0 / 0;81.9;41.0;3.676;2190;2014-11-17 18:13:54:382
-6.042965;7.096414;1.302446;-5.856543;5.875532;5.229667;-0.186422;1.220882;-3.927221;-0.01405;0.052534;0.042761;0.0;23.64;-45.84;15.42;220.2579;-36.8081;48.2364;0.0;1018.17;18.25505;;;;;;0 / 0;81.9;41.0;3.676;2257;2014-11-17 18:13:54:449
-8.044517;6.406884;-0.45011;-5.957869;5.906395;5.078257;-2.086648;0.500489;-5.528367;-0.360105;0.279471;0.380569;0.0;23.46;-45.96;15.66;220.2579;-36.8081;48.2364;0.0;1018.17;18.25505;;;;;;0 / 0;81.9;41.0;3.676;2316;2014-11-17 18:13:54:508
-9.193734;5.295975;-1.666364;-5.984383;5.939186;5.008353;-3.20935;-0.643212;-6.674718;-2.046399;1.158201;2.168266;0.0;22.08;-46.56;15.3;219.8806;-37.0337;49.557;0.0;1018.17;18.25505;;;;;;0 / 0;81.9;41.0;3.676;2379;2014-11-17 18:13:54:571
-7.881712;4.865018;-0.766144;-5.681806;6.048536;5.225197;-2.199905;-1.183517;-5.991341;-2.907107;1.368644;2.833499;0.0;19.98;-47.76;14.4;214.6114;-38.0813;47.3972;3.15;1018.17;20.86537;;;;;;0 / 0;81.9;41.0;3.676;2437;2014-11-17 18:13:54:629
-3.562572;5.075708;2.767697;-5.047871;5.958243;5.932009;1.485299;-0.882535;-3.164312;-3.768427;0.898277;3.028975;0.0;11.28;-51.18;8.64;199.4048;-37.4141;40.3963;3.15;1018.17;20.86537;;;;;;0 / 0;81.9;41.0;3.676;2500;2014-11-17 18:13:54:692
-0.622492;4.826711;7.144298;-4.313164;5.333591;7.008554;3.690672;-0.50688;0.135744;-4.056451;1.403158;2.607784;15.0;5.28;-52.62;3.42;199.4048;-37.4141;40.3963;3.15;1018.17;20.86537;;;;;;0 / 0;81.9;41.0;3.676;2559;2014-11-17 18:13:54:751
-0.124498;4.280833;11.21444;-4.128306;4.193693;7.84477;4.003808;0.08714;3.369671;-2.53784;1.240362;1.494176;30.0;-5.28;-51.54;-10.98;177.91;-32.9478;31.6087;3.15;1018.17;20.86537;;;;;;0 / 0;81.9;41.0;3.676;2632;2014-11-17 18:13:54:824
-0.565032;4.577714;11.28148;-4.24571;2.990134;8.318859;3.680679;1.58758;2.96262;-1.251663;0.808175;1.026254;34.0;-11.1;-46.26;-24.0;158.8394;-20.0831;27.2009;3.15;1018.22;20.86537;;;;;;0 / 0;81.9;41.0;3.676;2714;2014-11-17 18:13:54:906
-1.206678;4.587291;10.25676;-4.268135;2.767618;8.384134;3.061458;1.819673;1.872626;-0.812756;0.410501;0.690889;84.0;-12.9;-43.74;-28.14;146.0478;-17.7527;27.0385;3.15;1018.22;20.86537;;;;;;0 / 0;81.9;41.0;3.676;2766;2014-11-17 18:13:54:958
-1.206678;4.587291;10.25676;-4.268135;2.767618;8.384134;3.061458;1.819673;1.872626;-0.744645;0.489303;0.396146;84.0;-14.04;-40.02;-32.58;139.2611;-16.3927;26.9794;3.15;1018.22;21.02417;;;;;;0 / 0;81.9;41.0;3.676;2816;2014-11-17 18:13:55:008
-2.001553;4.663905;9.136274;-4.175372;2.655215;8.466788;2.17382;2.00869;0.669486;-0.002443;-0.06689;0.082467;146.0;-14.4;-38.82;-33.9;139.2611;-16.3927;26.9794;3.15;1018.21;21.02417;;;;;;0 / 0;81.9;41.0;3.676;2887;2014-11-17 18:13:55:079
-2.001553;4.663905;9.136274;-4.175372;2.655215;8.466788;2.17382;2.00869;0.669486;0.069639;0.028711;0.195171;146.0;-14.52;-37.56;-35.04;136.7063;-15.7093;26.2501;3.15;1018.21;21.02417;;;;;;0 / 0;81.9;41.0;3.676;2937;2014-11-17 18:13:55:129
-1.656788;4.654328;9.318234;-4.099648;2.790098;8.460416;2.442861;1.86423;0.857819;0.013439;-0.062919;0.117592;153.0;-14.76;-37.5;-35.34;134.6084;-16.5296;25.8534;3.15;1018.21;21.02417;;;;;;0 / 0;81.9;41.0;3.676;2990;2014-11-17 18:13:55:182
-1.541866;4.759673;9.14585;-3.955838;2.920468;8.484846;2.413973;1.839205;0.661005;0.535423;-0.207694;0.274279;133.0;-14.58;-37.68;-35.16;135.3331;-17.3258;24.9961;3.15;1018.21;21.02417;;;;;;0 / 0;81.9;41.0;3.676;3060;2014-11-17 18:13:55:252
-1.130063;4.941633;8.810662;-3.629652;3.345317;8.473776;2.499589;1.596315;0.336886;-0.044899;-0.0562;0.159741;92.0;-15.24;-38.04;-34.44;135.0646;-19.3066;24.0591;3.15;1018.16;21.02417;;;;;;0 / 0;81.9;41.0;3.676;3178;2014-11-17 18:13:55:370
-1.130063;4.941633;8.810662;-3.629652;3.345317;8.473776;2.499589;1.596315;0.336886;0.105985;0.024129;0.118202;92.0;-16.32;-38.22;-33.66;135.0646;-19.3066;24.0591;3.15;1018.16;35.84821;;;;;;0 / 0;81.9;41.0;3.676;3231;2014-11-17 18:13:55:423
-1.043872;4.989517;8.513782;-3.44838;3.545813;8.467956;2.404508;1.443703;0.045826;-0.136223;0.164934;0.0956;86.0;-16.5;-37.92;-33.6;133.3013;-19.9456;23.1874;3.15;1018.16;35.84821;;;;;;0 / 0;81.9;41.0;3.676;3289;2014-11-17 18:13:55:481
-1.570596;4.797981;8.60955;-3.44193;3.555978;8.466318;1.871334;1.242002;0.143232;0.110567;-0.015882;0.053756;89.0;-16.08;-38.16;-33.78;133.4575;-21.2605;22.1239;3.15;1018.16;35.84821;;;;;;0 / 0;81.9;41.0;3.676;3348;2014-11-17 18:13:55:540
-1.331176;4.884172;8.39886;-3.358756;3.654639;8.457706;2.02758;1.229533;-0.058845;-0.044899;0.040012;0.195477;95.0;-16.26;-38.16;-33.9;133.1321;-21.8803;21.6592;3.15;1018.16;35.84821;;;;;;0 / 0;81.9;41.0;3.676;3411;2014-11-17 18:13:55:603
-1.426944;4.941633;8.37013;-3.27718;3.723182;8.45981;1.850236;1.21845;-0.089681;-0.005803;0.045509;0.270308;89.0;-16.56;-38.16;-33.9;133.1321;-21.8803;21.6592;3.15;1018.14;35.84821;;;;;;0 / 0;81.9;41.0;3.676;3471;2014-11-17 18:13:55:663
-1.225831;4.845865;8.916008;-3.173925;3.7941;8.467668;1.948093;1.051765;0.448339;0.043371;-0.085521;0.177456;92.0;-17.28;-37.44;-33.18;132.8951;-22.3126;21.1755;3.15;1018.14;17.64813;;;;;;0 / 0;81.9;41.0;3.676;3522;2014-11-17 18:13:55:714
-1.16837;5.027824;8.79151;-3.032788;3.887928;8.476828;1.864418;1.139896;0.314681;0.047037;-0.126449;0.263588;86.0;-17.4;-37.44;-33.6;130.6129;-23.357;19.6859;3.15;1018.14;17.64813;;;;;;0 / 0;81.9;41.0;3.676;3587;2014-11-17 18:13:55:779
-0.699107;5.133168;8.561666;-2.842618;4.021763;8.48029;2.143511;1.111405;0.081375;-0.004887;-0.048258;0.240986;80.0;-18.12;-37.32;-33.3;130.1686;-24.2115;18.5313;3.15;1018.12;17.64813;;;;;;0 / 0;81.9;41.0;3.676;3657;2014-11-17 18:13:55:849
-0.737414;5.085284;8.753202;-2.553621;4.175336;8.497998;1.816207;0.909949;0.255203;0.039095;-0.080023;0.194561;69.0;-19.08;-36.66;-32.58;128.9069;-25.1991;16.7254;3.15;1018.12;17.64813;;;;;;0 / 0;81.9;41.0;3.676;3727;2014-11-17 18:13:55:919
-0.699107;5.152323;8.8777;-2.446144;4.247688;8.493758;1.747037;0.904635;0.383942;0.021075;0.021075;0.214719;63.0;-19.38;-36.72;-32.46;128.9069;-25.1991;16.7254;3.15;1018.16;17.64813;;;;;;0 / 0;81.9;41.0;3.676;3783;2014-11-17 18:13:55:975
-0.699107;5.717354;7.163452;-2.342036;4.32336;8.484918;1.64293;1.393994;-1.321465;0.038485;-0.022602;0.204334;62.0;-20.1;-37.02;-32.64;128.6192;-25.6672;16.066;3.15;1018.16;17.64813;;;;;;0 / 0;81.9;41.0;3.676;3854;2014-11-17 18:13:56:046
-0.421379;4.989517;9.385272;-2.14466;4.262831;8.567328;1.72328;0.726685;0.817945;-0.047342;-0.054672;0.191201;64.0;-20.7;-36.9;-33.24;127.502;-26.1588;15.4308;3.15;1018.16;20.14488;;;;;;0 / 0;81.9;41.0;3.676;3929;2014-11-17 18:13:56:121