sep=;
ACCELEROMETER X (m/s²);ACCELEROMETER Y (m/s²);ACCELEROMETER Z (m/s²);GRAVITY X (m/s²);GRAVITY Y (m/s²);GRAVITY Z (m/s²);LINEAR ACCELERATION X (m/s²);LINEAR ACCELERATION Y (m/s²);LINEAR ACCELERATION Z (m/s²);GYROSCOPE X (rad/s);GYROSCOPE Y (rad/s);GYROSCOPE Z (rad/s);LIGHT (lux);MAGNETIC FIELD X (μT);MAGNETIC FIELD Y (μT);MAGNETIC FIELD Z (μT);ORIENTATION X (°);ORIENTATION Y (°);ORIENTATION Z (°);PROXIMITY (i);ATMOSPHERIC PRESSURE (hPa);SOUND LEVEL (dB);LOCATION Latitude : ;LOCATION Longitude : ;LOCATION Altitude ( m);LOCATION Speed ( Kmh);LOCATION Accuracy ( m);Satellites in range;Temperature (F);Level (%);Voltage (Volt);Time since start in ms ;YYYY-MO-DD HH-MI-SS_SSS
-0.153229;-0.162806;10.247184;-0.082672;0.038715;9.806226;-0.070557;-0.201521;0.440958;-0.019548;-0.008858;-0.108734;310.0;-20.34;-13.86;-47.46;123.7568;-0.2897;0.7007;3.15;1018.21;30.95206;;;;;;0 / 0;81.9;41.0;3.676;19;2014-11-17 18:14:24:171
0.603339;-0.6608;11.21444;-0.038151;0.006998;9.806574;0.64149;-0.667798;1.407867;-0.111483;-0.271224;-0.122173;307.0;-20.28;-14.16;-47.28;124.0934;-0.2262;0.483;3.15;1018.21;30.95206;;;;;;0 / 0;81.9;41.0;3.676;86;2014-11-17 18:14:24:238
1.934515;1.158794;11.18571;0.475394;-0.057533;9.794952;1.459121;1.216327;1.390759;-0.344833;-3.398243;0.742201;280.0;-21.06;-13.74;-46.86;127.3735;0.3361;-2.7786;3.15;1018.21;30.95206;;;;;;0 / 0;81.9;41.0;3.676;147;2014-11-17 18:14:24:299
1.043872;-3.562572;7.115568;2.286223;-0.35486;9.52983;-1.242351;-3.207712;-2.414261;-0.673479;-1.097419;-0.011606;224.0;-26.94;-12.6;-43.26;132.2417;2.0737;-13.4904;3.15;1018.21;36.62802;;;;;;0 / 0;81.9;41.0;3.676;209;2014-11-17 18:14:24:361
2.528277;-0.536301;12.02847;1.963176;-0.794495;9.575234;0.565101;0.258194;2.453235;-0.671952;1.766928;0.172569;208.0;-29.04;-11.52;-42.3;132.2417;2.0737;-13.4904;3.15;1018.21;36.62802;;;;;;0 / 0;81.9;41.0;3.676;268;2014-11-17 18:14:24:420
1.493982;-0.823605;13.61822;0.995921;-1.164586;9.68619;0.498061;0.340981;3.93203;0.856128;0.09896;-0.197004;253.0;-28.38;-10.2;-43.26;125.2084;4.647;-11.5866;3.15;1018.21;36.62802;;;;;;0 / 0;81.9;41.0;3.676;330;2014-11-17 18:14:24:482
-2.786851;-2.394202;9.45231;0.586199;-0.452685;9.778642;-3.373049;-1.941517;-0.326333;1.479821;3.417486;9.16E-4;264.0;-25.68;-10.5;-44.76;117.5503;2.6458;-3.4306;3.15;1018.21;36.62802;;;;;;0 / 0;81.9;41.0;3.676;389;2014-11-17 18:14:24:541
-2.422932;-1.11091;12.603078;-1.30353;0.303721;9.714884;-1.119402;-1.414631;2.888195;1.290758;2.071444;0.713491;340.0;-18.36;-12.72;-48.06;115.578;-1.7748;7.6422;3.15;1018.21;36.62802;;;;;;0 / 0;81.9;41.0;3.676;468;2014-11-17 18:14:24:620
-4.367024;-1.35033;11.78905;-2.726115;0.924555;9.37464;-1.640908;-2.274885;2.41441;2.42147;1.650558;0.525344;356.0;-13.8;-14.4;-49.32;115.578;-1.7748;7.6422;3.15;1018.16;36.62802;;;;;;0 / 0;81.9;41.0;3.676;522;2014-11-17 18:14:24:674
-3.744531;-0.325611;6.78038;-3.614575;2.22093;8.841534;-0.129956;-2.546542;-2.061154;1.900402;2.764165;0.510378;379.0;-3.84;-18.9;-50.4;116.7797;-5.4098;16.2143;3.15;1018.16;44.56702;;;;;;0 / 0;81.9;41.0;3.676;576;2014-11-17 18:14:24:728
-4.855441;2.566584;6.655881;-5.179475;3.12982;7.716713;0.324034;-0.563236;-1.060831;1.80022;3.3958;0.331394;376.0;0.84;-21.66;-49.5;106.1888;-18.6117;33.8696;3.15;1018.16;44.56702;;;;;;0 / 0;81.9;41.0;3.676;630;2014-11-17 18:14:24:782
-2.738967;5.248091;4.711789;-6.522076;4.003512;6.132274;3.78311;1.244579;-1.420484;0.824057;2.595567;-0.450513;277.0;12.36;-27.36;-45.0;109.0753;-24.0946;46.7644;3.15;1018.17;44.56702;;;;;;0 / 0;81.9;41.0;3.676;689;2014-11-17 18:14:24:841
-6.244078;5.468357;3.974375;-7.480673;4.13318;4.80903;1.236595;1.335177;-0.834655;0.648433;1.934916;-1.022283;205.0;18.42;-29.1;-42.42;109.0753;-24.0946;46.7644;3.15;1018.17;44.56702;;;;;;0 / 0;81.9;41.0;3.676;742;2014-11-17 18:14:24:894
-10.352528;5.410896;5.755661;-8.210623;3.77105;3.812509;-2.141905;1.639846;1.943152;1.106582;0.161268;-0.204029;157.0;26.22;-30.72;-38.52;114.868;-24.9272;57.2646;3.15;1018.17;44.56702;;;;;;0 / 0;81.9;41.0;3.676;820;2014-11-17 18:14:24:972
-5.171476;4.395755;3.102886;-8.297261;3.746933;3.645041;3.125785;0.648821;-0.542156;-1.213789;-5.725029;-0.953866;117.0;30.48;-30.72;-36.24;121.6173;-22.6152;65.0927;3.15;1018.09;44.56702;;;;;;0 / 0;81.9;41.0;3.676;877;2014-11-17 18:14:25:029
-5.602432;4.185065;10.065224;-6.723555;2.953315;6.499395;1.121123;1.23175;3.565829;-2.290134;-6.142555;-0.846048;117.0;27.12;-29.58;-37.86;149.9794;-17.5269;45.9712;3.15;1018.09;53.06954;;;;;;0 / 0;81.9;41.0;3.676;927;2014-11-17 18:14:25:079
-6.885724;2.020706;11.013328;-5.279696;1.574545;8.112706;-1.606028;0.446161;2.900622;-2.279138;-0.883617;-1.176221;393.0;21.48;-27.36;-40.74;149.9794;-17.5269;45.9712;3.15;1018.09;53.06954;;;;;;0 / 0;81.9;41.0;3.676;979;2014-11-17 18:14:25:131
-6.464344;1.417368;6.617574;-5.427368;0.872467;8.121137;-1.036976;0.5449;-1.503563;-0.643241;1.026865;-0.884533;393.0;13.68;-21.54;-46.5;149.0765;-9.2393;33.0558;3.15;1018.09;53.06954;;;;;;0 / 0;81.9;41.0;3.676;1041;2014-11-17 18:14:25:193
-5.93762;0.679953;10.170568;-5.923348;0.132735;7.81452;-0.014272;0.547218;2.356049;-0.812145;-2.198198;-1.017091;385.0;14.04;-17.28;-48.0;134.3275;-5.1042;33.7549;3.15;1018.09;53.06954;;;;;;0 / 0;81.9;41.0;3.676;1113;2014-11-17 18:14:25:265
-3.821146;-1.16837;13.666104;-4.852566;-0.428965;8.511108;1.031421;-0.739405;5.154995;0.178067;-2.094351;-0.503964;393.0;12.96;-16.26;-48.42;145.3974;2.507;29.6894;3.15;1018.09;53.06954;;;;;;0 / 0;81.9;41.0;3.676;1165;2014-11-17 18:14:25:317
-2.604891;-0.469264;12.641386;-4.139099;0.407871;8.880984;1.534208;-0.877134;3.760401;3.097392;-0.430355;-0.043982;420.0;10.86;-16.2;-48.78;145.3974;2.507;29.6894;3.15;1018.22;53.06954;;;;;;0 / 0;81.9;41.0;3.676;1221;2014-11-17 18:14:25:373
-3.62961;0.248997;12.26789;-3.23395;2.050551;9.028134;-0.395659;-1.801554;3.239757;3.117551;-2.324953;-1.455386;409.0;4.62;-21.12;-46.68;140.9107;-2.3837;24.9885;3.15;1018.22;37.64461;;;;;;0 / 0;81.9;41.0;3.676;1279;2014-11-17 18:14:25:431
-0.363919;1.819593;11.511322;-2.229236;3.618425;8.837868;1.865318;-1.798832;2.673455;3.77026;-0.813062;-1.970651;255.0;-0.36;-32.04;-40.38;142.0688;-12.0695;19.7079;3.15;1018.22;37.64461;;;;;;0 / 0;81.9;41.0;3.676;1352;2014-11-17 18:14:25:504
-1.187524;2.825158;9.346964;-2.186729;5.274784;7.972782;0.999205;-2.449625;1.374182;4.13739;-0.574213;-2.115732;53.0;-1.02;-37.32;-36.12;140.3645;-32.5393;15.3376;3.15;1018.21;37.64461;;;;;;0 / 0;81.9;41.0;3.676;1408;2014-11-17 18:14:25:560
-3.543418;3.926491;5.315128;-2.847714;6.72874;6.541023;-0.695704;-2.802249;-1.225894;3.699705;-0.227547;-2.266921;31.0;-0.06;-42.54;-30.42;140.3645;-32.5393;15.3376;3.15;1018.21;37.64461;;;;;;0 / 0;81.9;41.0;3.676;1461;2014-11-17 18:14:25:613
-4.788403;4.52983;3.543419;-3.784429;7.535029;5.007179;-1.003974;-3.005199;-1.46376;3.512781;-0.19395;-2.271808;13.0;7.38;-48.96;-16.74;160.5136;-43.3254;23.5265;3.15;1018.21;37.64461;;;;;;0 / 0;81.9;41.0;3.676;1521;2014-11-17 18:14:25:673
-5.889736;4.127604;2.595315;-4.804532;7.738662;3.633173;-1.085204;-3.611058;-1.037858;2.71438;-0.588263;-1.974927;13.0;14.58;-51.0;-7.2;190.576;-52.1037;52.9035;3.15;1018.17;37.64461;;;;;;0 / 0;81.9;41.0;3.676;1591;2014-11-17 18:14:25:743
-7.852981;4.424485;0.584185;-5.699835;7.557813;2.561588;-2.153147;-3.133328;-1.977403;2.298686;-0.182343;-1.90254;0.0;22.86;-48.84;2.94;217.2391;-50.4152;65.8002;3.15;1018.17;37.64461;;;;;;0 / 0;81.9;41.0;3.676;1654;2014-11-17 18:14:25:806
-9.155426;4.299987;0.325611;-6.449304;7.158592;1.825224;-2.706123;-2.858605;-1.499613;1.28862;-0.240681;-1.240667;0.0;26.34;-46.62;6.24;217.2391;-50.4152;65.8002;3.15;1018.17;32.40412;;;;;;0 / 0;81.9;41.0;3.676;1704;2014-11-17 18:14:25:856
-8.743624;4.989517;0.268151;-6.833616;6.897342;1.377954;-1.910009;-1.907826;-1.109803;0.442572;0.152716;-0.06689;0.0;31.38;-42.66;11.4;235.2342;-46.8841;74.1979;3.15;1018.21;32.40412;;;;;;0 / 0;81.9;41.0;3.676;1788;2014-11-17 18:14:25:940
-6.751649;6.607997;0.814029;-6.835808;6.954533;1.037598;0.084159;-0.346536;-0.22357;0.534813;-0.217163;0.101709;0.0;32.58;-41.04;13.02;241.4684;-44.4095;80.5411;3.15;1018.21;32.40412;;;;;;0 / 0;81.9;41.0;3.676;1866;2014-11-17 18:14:26:018
-7.010222;6.675035;0.976834;-6.828544;6.978274;0.919274;-0.181678;-0.303239;0.057561;0.137139;0.042761;0.131336;0.0;33.12;-40.44;13.5;250.774;-45.167;81.369;3.15;1018.07;32.40412;;;;;;0 / 0;81.9;41.0;3.676;1930;2014-11-17 18:14:26:082
-7.240066;6.454768;1.082179;-6.817076;6.994301;0.881823;-0.422989;-0.539533;0.200356;0.024129;0.034514;-0.037874;0.0;33.3;-39.96;14.52;252.3827;-45.4975;82.6294;3.15;1018.07;32.40412;;;;;;0 / 0;81.9;41.0;3.676;1997;2014-11-17 18:14:26:149
-6.924031;6.023812;1.292869;-6.8303;6.981352;0.88211;-0.093731;-0.95754;0.410759;0.015577;-0.050396;0.043677;0.0;33.18;-40.14;14.58;252.3827;-45.4975;82.6294;3.15;1018.07;21.58428;;;;;;0 / 0;81.9;41.0;3.676;2051;2014-11-17 18:14:26:203
-7.603985;6.205771;1.331176;-6.831802;6.976453;0.908817;-0.772183;-0.770682;0.422359;0.021991;-0.053451;0.016493;0.0;33.18;-40.02;14.82;252.1282;-45.3897;82.6412;3.15;1018.21;21.58428;;;;;;0 / 0;81.9;41.0;3.676;2120;2014-11-17 18:14:26:272
-7.508216;5.612009;0.814029;-6.787075;7.01587;0.939977;-0.721141;-1.403861;-0.125949;-0.178067;0.134085;0.225715;0.0;33.3;-40.2;14.4;252.1145;-45.6776;82.115;3.15;1018.21;21.58428;;;;;;0 / 0;81.9;41.0;3.676;2182;2014-11-17 18:14:26:334
-9.136272;4.788404;-1.426944;-6.71553;7.084012;0.942776;-2.420743;-2.295608;-2.36972;-0.546114;0.343917;0.512516;0.0;32.88;-40.68;14.28;251.5635;-46.2503;82.0086;3.15;1018.21;21.58428;;;;;;0 / 0;81.9;41.0;3.676;2247;2014-11-17 18:14:26:399
-8.96389;4.232949;-0.296881;-6.276315;7.44187;1.18188;-2.687575;-3.20892;-1.478761;-2.710409;1.877494;2.197588;0.0;30.12;-42.72;13.74;251.5635;-46.2503;82.0086;3.15;1018.15;21.58428;;;;;;0 / 0;81.9;41.0;3.676;2304;2014-11-17 18:14:26:456
-7.067683;5.152323;2.652776;-5.38883;7.96752;1.910377;-1.678853;-2.815197;0.742398;-3.328605;2.039985;2.657875;0.0;26.94;-45.0;12.48;246.5543;-54.3371;70.4802;3.15;1018.15;21.58428;;;;;;0 / 0;81.9;41.0;3.676;2362;2014-11-17 18:14:26:514
-3.639186;6.282386;4.012682;-4.368404;8.26216;2.970547;0.729218;-1.979774;1.042135;-3.011566;1.244943;2.241876;0.0;17.52;-50.28;6.6;221.9352;-57.4057;55.784;3.15;1018.15;35.68381;;;;;;0 / 0;81.9;41.0;3.676;2432;2014-11-17 18:14:26:584
-3.016694;7.07726;5.612009;-3.507292;8.135836;4.204458;0.490598;-1.058576;1.40755;-2.824946;1.288315;1.89185;9.0;7.44;-52.86;-3.42;188.2022;-56.0602;39.8343;3.15;1018.1;35.68381;;;;;;0 / 0;81.9;41.0;3.676;2499;2014-11-17 18:14:26:651
-2.001553;6.952762;7.575254;-2.96006;7.67752;5.335181;0.958508;-0.724758;2.240074;-2.541199;1.351539;1.473713;26.0;3.54;-52.8;-8.94;188.2022;-56.0602;39.8343;3.15;1018.1;35.68381;;;;;;0 / 0;81.9;41.0;3.676;2551;2014-11-17 18:14:26:703
-1.522712;6.349423;9.557654;-2.738873;7.055605;6.235977;1.216161;-0.706182;3.321677;-1.632537;0.817643;1.010677;28.0;0.3;-51.84;-14.28;168.1764;-46.0109;23.7113;3.15;1018.1;35.68381;;;;;;0 / 0;81.9;41.0;3.676;2604;2014-11-17 18:14:26:756
-1.991976;6.473922;8.312668;-2.606677;6.633261;6.736132;0.614701;-0.159339;1.576536;-0.934013;0.495106;0.793514;31.0;-3.66;-49.14;-23.04;151.9271;-42.5633;21.1549;3.15;1018.1;35.68381;;;;;;0 / 0;81.9;41.0;3.676;2663;2014-11-17 18:14:26:815
-2.078167;6.263232;8.169016;-2.486473;6.398809;7.003078;0.408307;-0.135577;1.165938;-0.679588;0.164323;0.43402;37.0;-4.92;-47.88;-25.56;151.9271;-42.5633;21.1549;3.15;1018.1;35.68381;;;;;;0 / 0;81.9;41.0;3.676;2723;2014-11-17 18:14:26:875
-1.426944;6.464345;7.603985;-2.352787;6.208739;7.217088;0.925843;0.255606;0.386898;-0.435547;0.005803;0.328035;37.0;-6.12;-46.98;-27.3;144.1446;-40.7301;19.5476;3.15;1018.1;22.44789;;;;;;0 / 0;81.9;41.0;3.676;2777;2014-11-17 18:14:26:929
-2.231396;6.052542;7.536947;-2.274165;6.027989;7.39337;0.042769;0.024553;0.143577;-0.512821;0.051618;-0.015577;37.0;-6.96;-45.42;-29.4;142.3475;-37.9289;17.0976;3.15;1018.22;22.44789;;;;;;0 / 0;81.9;41.0;3.676;2858;2014-11-17 18:14:27:010
-2.863465;5.525818;8.561666;-2.270331;5.78819;7.583723;-0.593135;-0.262372;0.977943;-0.14508;-0.105374;0.023518;41.0;-6.6;-43.92;-31.2;140.8754;-36.1734;16.6661;3.15;1018.22;22.44789;;;;;;0 / 0;81.9;41.0;3.676;2913;2014-11-17 18:14:27:065
-2.710236;6.004658;7.814675;-2.187731;5.76538;7.625262;-0.522506;0.239278;0.189413;-0.012217;-0.124617;0.086437;45.0;-6.78;-43.62;-31.74;140.8754;-36.1734;16.6661;3.15;1018.22;22.44789;;;;;;0 / 0;81.9;41.0;3.676;2976;2014-11-17 18:14:27:128
-1.953669;5.90889;7.73806;-2.070491;5.779708;7.64712;0.116822;0.129182;0.09094;0.078191;-0.31765;0.1237;42.0;-6.9;-43.14;-32.16;138.9099;-36.0085;16.0085;3.15;1018.13;22.44789;;;;;;0 / 0;81.9;41.0;3.676;3032;2014-11-17 18:14:27:184
-2.700659;5.650316;7.718907;-1.949948;5.758033;7.695009;-0.750712;-0.107716;0.023898;-0.415083;0.089186;0.187841;38.0;-7.44;-43.2;-32.04;140.24;-35.9554;14.2197;3.15;1018.13;22.44789;;;;;;0 / 0;81.9;41.0;3.676;3099;2014-11-17 18:14:27:251