sep=;
ACCELEROMETER X (m/s²);ACCELEROMETER Y (m/s²);ACCELEROMETER Z (m/s²);GRAVITY X (m/s²);GRAVITY Y (m/s²);GRAVITY Z (m/s²);LINEAR ACCELERATION X (m/s²);LINEAR ACCELERATION Y (m/s²);LINEAR ACCELERATION Z (m/s²);GYROSCOPE X (rad/s);GYROSCOPE Y (rad/s);GYROSCOPE Z (rad/s);LIGHT (lux);MAGNETIC FIELD X (μT);MAGNETIC FIELD Y (μT);MAGNETIC FIELD Z (μT);ORIENTATION X (°);ORIENTATION Y (°);ORIENTATION Z (°);PROXIMITY (i);ATMOSPHERIC PRESSURE (hPa);SOUND LEVEL (dB);LOCATION Latitude : ;LOCATION Longitude : ;LOCATION Altitude ( m);LOCATION Speed ( Kmh);LOCATION Accuracy ( m);Satellites in range;Temperature (F);Level (%);Voltage (Volt);Time since start in ms ;YYYY-MO-DD HH-MI-SS_SSS
0.277727;-9.65342;0.622492;-0.091625;-9.772176;0.816443;0.369353;0.118755;-0.193951;0.025045;0.069639;0.016493;106.0;7.74;48.66;-19.8;199.0229;85.1944;6.4032;0.0;1018.0;66.41745;;;;;;0 / 0;83.1;40.0;3.748;7;2014-11-17 17:11:25:653
0.277727;-9.65342;0.622492;-0.091625;-9.772176;0.816443;0.369353;0.118755;-0.193951;0.025045;0.069639;0.016493;106.0;7.68;48.54;-19.68;199.0229;85.1944;6.4032;0.0;1018.0;66.41745;;;;;;0 / 0;83.1;40.0;3.748;57;2014-11-17 17:11:25:703
0.277727;-9.65342;0.622492;-0.091625;-9.772176;0.816443;0.369353;0.118755;-0.193951;0.025045;0.069639;0.016493;106.0;7.5;48.48;-19.5;199.0229;85.1944;6.4032;0.0;1018.0;66.41745;;;;;;0 / 0;83.1;40.0;3.748;107;2014-11-17 17:11:25:753
0.277727;-9.65342;0.622492;-0.091625;-9.772176;0.816443;0.369353;0.118755;-0.193951;0.025045;0.069639;0.016493;106.0;7.5;48.48;-19.5;199.0229;85.1944;6.4032;0.0;1018.0;66.41745;;;;;;0 / 0;83.1;40.0;3.748;157;2014-11-17 17:11:25:803
0.277727;-9.65342;0.622492;-0.091625;-9.772176;0.816443;0.369353;0.118755;-0.193951;0.025045;0.069639;0.016493;106.0;7.5;48.48;-19.5;199.0229;85.1944;6.4032;0.0;1018.0;66.41745;;;;;;0 / 0;83.1;40.0;3.748;208;2014-11-17 17:11:25:854
0.277727;-9.65342;0.622492;-0.091625;-9.772176;0.816443;0.369353;0.118755;-0.193951;0.025045;0.069639;0.016493;106.0;7.5;48.48;-19.5;199.0229;85.1944;6.4032;0.0;1018.0;50.06679;;;;;;0 / 0;83.1;40.0;3.748;258;2014-11-17 17:11:25:904
0.277727;-9.65342;0.622492;-0.091625;-9.772176;0.816443;0.369353;0.118755;-0.193951;0.025045;0.069639;0.016493;106.0;7.5;48.48;-19.5;199.0229;85.1944;6.4032;0.0;1018.0;50.06679;;;;;;0 / 0;83.1;40.0;3.748;308;2014-11-17 17:11:25:954
0.277727;-9.65342;0.622492;-0.091625;-9.772176;0.816443;0.369353;0.118755;-0.193951;0.025045;0.069639;0.016493;106.0;7.5;48.48;-19.5;199.0229;85.1944;6.4032;0.0;1018.0;50.06679;;;;;;0 / 0;83.1;40.0;3.748;359;2014-11-17 17:11:26:005
0.277727;-9.65342;0.622492;-0.091625;-9.772176;0.816443;0.369353;0.118755;-0.193951;0.025045;0.069639;0.016493;106.0;7.5;48.48;-19.5;199.0229;85.1944;6.4032;0.0;1018.0;50.06679;;;;;;0 / 0;83.1;40.0;3.748;409;2014-11-17 17:11:26:055
0.277727;-9.65342;0.622492;-0.091625;-9.772176;0.816443;0.369353;0.118755;-0.193951;0.025045;0.069639;0.016493;106.0;7.5;48.48;-19.5;199.0229;85.1944;6.4032;0.0;1018.0;50.06679;;;;;;0 / 0;83.1;40.0;3.748;459;2014-11-17 17:11:26:105
0.277727;-9.65342;0.622492;-0.091625;-9.772176;0.816443;0.369353;0.118755;-0.193951;0.025045;0.069639;0.016493;106.0;7.5;48.48;-19.5;199.0229;85.1944;6.4032;0.0;1018.0;50.06679;;;;;;0 / 0;83.1;40.0;3.748;509;2014-11-17 17:11:26:155
0.277727;-9.65342;0.622492;-0.091625;-9.772176;0.816443;0.369353;0.118755;-0.193951;0.025045;0.069639;0.016493;106.0;7.5;48.48;-19.5;199.0229;85.1944;6.4032;0.0;1018.0;50.06679;;;;;;0 / 0;83.1;40.0;3.748;559;2014-11-17 17:11:26:205
0.277727;-9.65342;0.622492;-0.091625;-9.772176;0.816443;0.369353;0.118755;-0.193951;0.025045;0.069639;0.016493;106.0;7.5;48.48;-19.5;199.0229;85.1944;6.4032;0.0;1018.0;50.06679;;;;;;0 / 0;83.1;40.0;3.748;609;2014-11-17 17:11:26:255
0.277727;-9.65342;0.622492;-0.091625;-9.772176;0.816443;0.369353;0.118755;-0.193951;0.025045;0.069639;0.016493;106.0;7.5;48.48;-19.5;199.0229;85.1944;6.4032;0.0;1018.0;52.82093;;;;;;0 / 0;83.1;40.0;3.748;659;2014-11-17 17:11:26:305
0.277727;-9.65342;0.622492;-0.091625;-9.772176;0.816443;0.369353;0.118755;-0.193951;0.025045;0.069639;0.016493;106.0;7.5;48.48;-19.5;199.0229;85.1944;6.4032;0.0;1018.0;52.82093;;;;;;0 / 0;83.1;40.0;3.748;710;2014-11-17 17:11:26:356
0.277727;-9.65342;0.622492;-0.091625;-9.772176;0.816443;0.369353;0.118755;-0.193951;0.025045;0.069639;0.016493;106.0;7.5;48.48;-19.5;199.0229;85.1944;6.4032;0.0;1018.0;52.82093;;;;;;0 / 0;83.1;40.0;3.748;760;2014-11-17 17:11:26:406
0.277727;-9.65342;0.622492;-0.091625;-9.772176;0.816443;0.369353;0.118755;-0.193951;0.025045;0.069639;0.016493;106.0;7.5;48.48;-19.5;199.0229;85.1944;6.4032;0.0;1018.0;52.82093;;;;;;0 / 0;83.1;40.0;3.748;810;2014-11-17 17:11:26:456
0.277727;-9.65342;0.622492;-0.091625;-9.772176;0.816443;0.369353;0.118755;-0.193951;0.025045;0.069639;0.016493;106.0;7.5;48.48;-19.5;199.0229;85.1944;6.4032;0.0;1018.0;52.82093;;;;;;0 / 0;83.1;40.0;3.748;860;2014-11-17 17:11:26:506
0.277727;-9.65342;0.622492;-0.091625;-9.772176;0.816443;0.369353;0.118755;-0.193951;0.025045;0.069639;0.016493;106.0;7.5;48.48;-19.5;199.0229;85.1944;6.4032;0.0;1018.0;52.82093;;;;;;0 / 0;83.1;40.0;3.748;910;2014-11-17 17:11:26:556
0.277727;-9.65342;0.622492;-0.091625;-9.772176;0.816443;0.369353;0.118755;-0.193951;0.025045;0.069639;0.016493;106.0;7.5;48.48;-19.5;199.0229;85.1944;6.4032;0.0;1018.0;52.82093;;;;;;0 / 0;83.1;40.0;3.748;960;2014-11-17 17:11:26:606
0.277727;-9.65342;0.622492;-0.091625;-9.772176;0.816443;0.369353;0.118755;-0.193951;0.025045;0.069639;0.016493;106.0;7.5;48.48;-19.5;199.0229;85.1944;6.4032;0.0;1018.0;56.7439;;;;;;0 / 0;83.1;40.0;3.748;1010;2014-11-17 17:11:26:656
0.277727;-9.65342;0.622492;-0.091625;-9.772176;0.816443;0.369353;0.118755;-0.193951;0.025045;0.069639;0.016493;106.0;7.5;48.48;-19.5;199.0229;85.1944;6.4032;0.0;1018.0;56.7439;;;;;;0 / 0;83.1;40.0;3.748;1060;2014-11-17 17:11:26:706
0.277727;-9.65342;0.622492;-0.091625;-9.772176;0.816443;0.369353;0.118755;-0.193951;0.025045;0.069639;0.016493;106.0;7.5;48.48;-19.5;199.0229;85.1944;6.4032;0.0;1018.0;56.7439;;;;;;0 / 0;83.1;40.0;3.748;1110;2014-11-17 17:11:26:756
0.277727;-9.65342;0.622492;-0.091625;-9.772176;0.816443;0.369353;0.118755;-0.193951;0.025045;0.069639;0.016493;106.0;7.5;48.48;-19.5;199.0229;85.1944;6.4032;0.0;1018.0;56.7439;;;;;;0 / 0;83.1;40.0;3.748;1160;2014-11-17 17:11:26:806
0.277727;-9.65342;0.622492;-0.091625;-9.772176;0.816443;0.369353;0.118755;-0.193951;0.025045;0.069639;0.016493;106.0;7.5;48.48;-19.5;199.0229;85.1944;6.4032;0.0;1018.0;56.7439;;;;;;0 / 0;83.1;40.0;3.748;1210;2014-11-17 17:11:26:856
0.277727;-9.65342;0.622492;-0.091625;-9.772176;0.816443;0.369353;0.118755;-0.193951;0.025045;0.069639;0.016493;106.0;7.5;48.48;-19.5;199.0229;85.1944;6.4032;0.0;1018.0;56.7439;;;;;;0 / 0;83.1;40.0;3.748;1260;2014-11-17 17:11:26:906
0.277727;-9.65342;0.622492;-0.091625;-9.772176;0.816443;0.369353;0.118755;-0.193951;0.025045;0.069639;0.016493;106.0;7.5;48.48;-19.5;199.0229;85.1944;6.4032;0.0;1018.0;56.7439;;;;;;0 / 0;83.1;40.0;3.748;1310;2014-11-17 17:11:26:956
1.886631;-5.592855;0.794875;3.181373;-8.330009;-4.081694;-1.294741;2.737155;4.876569;0.126449;0.156382;0.028711;100.0;7.8;48.48;-19.5;353.8239;57.4869;-144.2017;0.0;1018.0;69.65659;;;;;;0 / 0;83.1;40.0;3.748;1404;2014-11-17 17:11:27:050
-4.280833;-7.393295;-0.804452;0.167063;-9.687176;1.516941;-4.447895;2.293882;-2.321393;0.221439;1.722946;-0.423024;92.0;10.38;48.72;-18.54;353.8239;57.4869;-144.2017;0.0;1018.0;69.65659;;;;;;0 / 0;83.1;40.0;3.748;1459;2014-11-17 17:11:27:105
-1.120486;-5.803545;-0.919373;0.191065;-9.653854;1.713769;-1.311551;3.850309;-2.633142;0.15913;1.062295;-0.163712;73.0;12.3;48.78;-17.88;237.8042;81.0473;-6.2847;0.0;1018.02;69.65659;;;;;;0 / 0;83.1;40.0;3.748;1514;2014-11-17 17:11:27:160
-3.696647;-17.046717;8.149863;0.341626;-9.576872;2.082601;-4.038274;-7.469845;6.067261;0.560774;-0.567799;-0.248317;71.0;15.36;48.12;-17.46;237.8042;81.0473;-6.2847;0.0;1018.02;69.65659;;;;;;0 / 0;83.1;40.0;3.748;1576;2014-11-17 17:11:27:222
-3.696647;-17.046717;8.149863;0.341626;-9.576872;2.082601;-4.038274;-7.469845;6.067261;1.658194;-0.184176;-0.071471;92.0;15.66;45.42;-19.92;255.8865;77.5725;-9.3157;0.0;1018.02;69.65659;;;;;;0 / 0;83.1;40.0;3.748;1628;2014-11-17 17:11:27:274
4.146757;-19.31642;-1.628057;0.152558;-9.211474;3.360932;3.994199;-10.104944;-4.988988;2.326481;0.441961;1.579698;103.0;15.72;42.78;-22.02;252.9436;69.9358;-2.599;0.0;1018.12;69.65659;;;;;;0 / 0;83.1;40.0;3.748;1688;2014-11-17 17:11:27:334
1.503559;-6.502651;-1.484405;0.080919;-9.739062;1.146526;1.42264;3.236411;-2.630931;1.169196;-0.642936;0.69883;115.0;17.1;37.86;-25.8;252.9436;69.9358;-2.599;0.0;1018.12;65.16193;;;;;;0 / 0;83.1;40.0;3.748;1750;2014-11-17 17:11:27:396
1.503559;-6.502651;-1.484405;0.080919;-9.739062;1.146526;1.42264;3.236411;-2.630931;0.773966;-1.166142;0.404393;131.0;19.56;31.5;-29.52;223.0175;83.2692;-4.0371;0.0;1018.12;65.16193;;;;;;0 / 0;83.1;40.0;3.748;1804;2014-11-17 17:11:27:450
-0.411803;-1.848324;-0.047884;-0.16789;-9.72756;1.231584;-0.243913;7.879236;-1.279468;-0.258396;-0.234878;0.313374;147.0;19.38;29.46;-30.48;215.6348;81.115;1.2711;0.0;1018.11;65.16193;;;;;;0 / 0;83.1;40.0;3.748;1875;2014-11-17 17:11:27:521
0.909797;-6.655881;0.976834;0.48331;-9.779212;0.55119;0.426486;3.123332;0.425645;-1.527468;-0.154243;-0.374766;139.0;17.94;28.92;-30.66;205.0479;82.7182;7.7627;0.0;1018.11;65.16193;;;;;;0 / 0;83.1;40.0;3.748;1941;2014-11-17 17:11:27:587
-0.833182;-9.481038;3.964798;0.338433;-9.756372;0.932218;-1.171615;0.275334;3.03258;-1.473407;-0.802371;-0.465174;136.0;17.34;29.94;-29.52;205.0479;82.7182;7.7627;0.0;1018.11;65.16193;;;;;;0 / 0;83.1;40.0;3.748;1993;2014-11-17 17:11:27:639
-0.833182;-9.481038;3.964798;0.338433;-9.756372;0.932218;-1.171615;0.275334;3.03258;-0.717156;0.378736;0.090713;128.0;15.78;33.3;-26.7;236.0719;84.1957;-19.953;0.0;1017.95;65.16193;;;;;;0 / 0;83.1;40.0;3.748;2048;2014-11-17 17:11:27:694
0.354342;-6.607996;0.90022;0.301749;-9.746108;1.045337;0.052593;3.138112;-0.145117;-0.929126;-0.321621;0.051313;114.0;14.34;34.44;-25.44;231.4558;83.6301;-16.1014;0.0;1017.95;65.16193;;;;;;0 / 0;83.1;40.0;3.748;2108;2014-11-17 17:11:27:754
-2.394202;-12.62223;-10.630256;-0.383927;-9.74578;1.021167;-2.010275;-2.876451;-11.651422;0.908357;-0.229074;0.712269;97.0;13.02;35.58;-24.0;240.4771;86.4255;-27.8771;0.0;1017.95;65.90421;;;;;;0 / 0;83.1;40.0;3.748;2180;2014-11-17 17:11:27:826
-2.231396;-13.417106;-2.164358;-0.543593;-9.779466;0.486747;-1.687802;-3.63764;-2.651105;-0.929431;-0.746783;-0.231823;97.0;11.28;35.46;-23.1;240.4771;86.4255;-27.8771;0.0;1017.98;65.90421;;;;;;0 / 0;83.1;40.0;3.748;2238;2014-11-17 17:11:27:884
-2.231396;-13.417106;-2.164358;-0.543593;-9.779466;0.486747;-1.687802;-3.63764;-2.651105;-1.479821;-0.947757;0.482278;114.0;7.62;36.0;-21.12;153.3733;85.7329;48.158;0.0;1017.98;65.90421;;;;;;0 / 0;83.1;40.0;3.748;2289;2014-11-17 17:11:27:935
-3.342306;-7.536947;1.810017;-0.329894;-9.777228;0.683628;-3.012411;2.240283;1.126389;-1.401936;0.46609;-0.173486;106.0;6.06;37.08;-20.04;191.8062;86.9419;6.0177;0.0;1017.98;65.90421;;;;;;0 / 0;83.1;40.0;3.748;2351;2014-11-17 17:11:27:997
3.284845;-5.592855;4.673482;-0.016446;-9.732968;1.199773;3.301291;4.140114;3.473709;-0.690278;1.097419;0.008858;62.0;5.52;39.9;-16.68;172.3463;85.5607;25.7603;0.0;1018.14;65.90421;;;;;;0 / 0;83.1;40.0;3.748;2412;2014-11-17 17:11:28:058
-5.813122;-10.323798;4.616021;-0.550477;-9.663538;1.575879;-5.262645;-0.660259;3.040142;0.359494;1.154841;0.180511;51.0;6.6;40.8;-15.36;172.3463;85.5607;25.7603;0.0;1018.14;65.90421;;;;;;0 / 0;83.1;40.0;3.748;2474;2014-11-17 17:11:28:120
-5.813122;-10.323798;4.616021;-0.550477;-9.663538;1.575879;-5.262645;-0.660259;3.040142;1.555874;0.844521;-0.117592;48.0;8.1;41.04;-14.34;198.7568;80.1996;19.255;0.0;1018.14;62.77365;;;;;;0 / 0;83.1;40.0;3.748;2525;2014-11-17 17:11:28:171
-0.363919;-2.097321;-3.773262;-0.483832;-9.557316;2.14337;0.119913;7.459996;-5.916631;0.551917;0.671035;-0.303295;51.0;8.64;39.42;-15.0;216.308;77.0523;12.7204;0.0;1018.28;62.77365;;;;;;0 / 0;83.1;40.0;3.748;2585;2014-11-17 17:11:28:231
-3.055001;-19.546263;-1.541866;-1.088668;-9.058276;3.596219;-1.966333;-10.487986;-5.138085;3.305086;0.218079;0.967305;51.0;8.16;35.64;-17.22;193.4332;77.291;17.7128;0.0;1018.28;62.77365;;;;;;0 / 0;83.1;40.0;3.748;2655;2014-11-17 17:11:28:301
0.047884;-12.62223;-2.499546;-0.920207;-9.674492;1.314459;0.968091;-2.947739;-3.814005;3.274238;0.866207;2.019826;78.0;8.46;32.1;-19.14;193.4332;77.291;17.7128;0.0;1018.28;62.77365;;;;;;0 / 0;83.1;40.0;3.748;2714;2014-11-17 17:11:28:360
0.488417;-5.96635;-3.20823;-0.673902;-9.759828;0.679706;1.162319;3.793478;-3.887936;0.799012;-1.188744;0.870483;92.0;11.1;24.6;-23.58;166.7936;80.583;34.9945;0.0;1018.32;62.77365;;;;;;0 / 0;83.1;40.0;3.748;2770;2014-11-17 17:11:28:416
6.033388;-0.909797;-3.428497;0.044069;-9.804736;0.188698;5.98932;8.89494;-3.617195;-0.987158;-1.871386;-0.064446;117.0;10.92;21.12;-25.74;159.2208;84.3989;44.7543;0.0;1018.32;62.77365;;;;;;0 / 0;83.1;40.0;3.748;2843;2014-11-17 17:11:28:489
2.202666;-4.951209;3.035848;0.328188;-9.792738;0.406139;1.874478;4.84153;2.629709;-1.841453;-1.420873;-0.39859;128.0;8.64;21.84;-25.32;213.4663;88.8677;-13.1453;0.0;1018.32;67.96996;;;;;;0 / 0;83.1;40.0;3.748;2901;2014-11-17 17:11:28:547
0.220267;-11.69328;5.707777;0.323201;-9.754024;0.961733;-0.102934;-1.939257;4.746045;-2.04365;-0.067806;-0.538783;117.0;5.58;23.4;-24.42;213.4663;88.8677;-13.1453;0.0;1018.0;67.96996;;;;;;0 / 0;83.1;40.0;3.748;2959;2014-11-17 17:11:28:605
-5.679046;-8.24563;6.215348;-0.333295;-9.670674;1.592904;-5.345752;1.425044;4.622444;-1.179581;0.217163;-0.473421;100.0;1.5;27.24;-21.9;209.4072;84.0616;-18.5755;0.0;1018.0;67.96996;;;;;;0 / 0;83.1;40.0;3.748;3013;2014-11-17 17:11:28:659
4.577714;-7.862558;1.331176;0.12779;-9.663536;1.664368;4.449924;1.800978;-0.333191;-0.396146;0.079718;0.331089;73.0;0.6;28.5;-20.82;168.0226;80.4477;11.8179;0.0;1018.0;67.96996;;;;;;0 / 0;83.1;40.0;3.748;3077;2014-11-17 17:11:28:723
4.577714;-7.862558;1.331176;0.12779;-9.663536;1.664368;4.449924;1.800978;-0.333191;-0.689361;-0.036041;0.025351;70.0;-0.3;29.46;-19.56;185.9406;80.1995;-4.3906;0.0;1018.0;67.96996;;;;;;0 / 0;83.1;40.0;3.748;3127;2014-11-17 17:11:28:773
2.25055;-15.648502;2.96881;0.366113;-9.663394;1.629477;1.884437;-5.985108;1.339333;-0.762971;-0.436158;0.109345;51.0;-1.02;29.52;-18.36;185.9406;80.1995;-4.3906;0.0;1018.0;67.96996;;;;;;0 / 0;83.1;40.0;3.748;3182;2014-11-17 17:11:28:828
0.565032;-19.546263;7.508217;0.422516;-9.706438;1.333007;0.142516;-9.839824;6.17521;0.968832;-0.14508;0.749226;38.0;-1.8;29.34;-17.4;194.4854;81.8021;-17.5868;0.0;1018.0;66.12064;;;;;;0 / 0;83.1;40.0;3.748;3235;2014-11-17 17:11:28:881
4.414908;-8.322244;-12.899958;0.745627;-9.748776;0.758806;3.669281;1.426532;-13.658764;-2.081829;1.188133;-0.210443;51.0;-3.06;28.74;-16.74;194.4854;81.8021;-17.5868;0.0;1018.26;66.12064;;;;;;0 / 0;83.1;40.0;3.748;3286;2014-11-17 17:11:28:932
-0.565032;-10.448296;2.413355;0.60974;-9.764812;0.668609;-1.174771;-0.683485;1.744747;-1.518611;0.510378;0.315817;51.0;-4.26;29.28;-15.54;217.2734;83.7723;-44.4981;0.0;1018.26;66.12064;;;;;;0 / 0;83.1;40.0;3.748;3341;2014-11-17 17:11:28:987
0.306458;-7.230489;0.23942;0.606215;-9.757946;0.765084;-0.299757;2.527458;-0.525664;-0.856128;0.704633;-0.062308;28.0;-3.48;31.68;-13.8;213.1463;84.7056;-42.3633;0.0;1018.26;66.12064;;;;;;0 / 0;83.1;40.0;3.748;3412;2014-11-17 17:11:29:058
-1.015141;-5.181052;1.340753;0.645742;-9.779352;0.343076;-1.660884;4.5983;0.997677;-0.035736;-0.049175;-0.135001;23.0;-2.82;32.82;-12.78;238.1248;85.7239;-62.0188;0.0;1018.31;66.12064;;;;;;0 / 0;83.1;40.0;3.748;3475;2014-11-17 17:11:29:121
-2.451662;-10.362104;4.299987;0.168043;-9.728574;1.223513;-2.619706;-0.633531;3.076474;0.798706;1.025337;-0.111177;0.0;-1.62;33.36;-11.52;177.476;82.7652;-7.8204;0.0;1018.31;66.12064;;;;;;0 / 0;83.1;40.0;3.748;3542;2014-11-17 17:11:29:188
-3.706224;-9.730036;4.778827;-0.210181;-9.702096;1.412639;-3.496043;-0.02794;3.366188;0.217468;0.36377;-0.379653;23.0;-1.26;32.7;-11.52;189.4672;82.1048;-10.5919;0.0;1018.31;66.12064;;;;;;0 / 0;83.1;40.0;3.748;3627;2014-11-17 17:11:29:273
-0.134075;-15.255854;1.771709;-0.221914;-9.68116;1.547992;0.087839;-5.574693;0.223718;2.32251;-0.107207;0.19395;17.0;-1.8;30.84;-12.6;152.9198;80.8241;8.1581;0.0;1018.23;62.90116;;;;;;0 / 0;83.1;40.0;3.748;3706;2014-11-17 17:11:29:352
-0.124498;-19.546263;-0.45011;-0.433224;-9.320448;3.018603;0.308725;-10.225814;-3.468713;2.296548;0.348499;1.240667;28.0;-2.04;29.7;-13.74;152.9198;80.8241;8.1581;0.0;1018.23;62.90116;;;;;;0 / 0;83.1;40.0;3.748;3764;2014-11-17 17:11:29:410
-0.775721;-12.574346;-1.101333;-0.33084;-9.745264;1.044392;-0.444881;-2.829083;-2.145725;1.293202;-0.756862;0.527482;33.0;0.36;26.22;-18.0;152.2834;71.8826;8.1672;0.0;1018.37;62.90116;;;;;;0 / 0;83.1;40.0;3.748;3838;2014-11-17 17:11:29:484
2.03986;-6.646304;-3.246537;-0.051675;-9.788938;0.586879;2.091535;3.142634;-3.833416;0.118202;-1.155757;0.451124;33.0;3.3;22.92;-21.96;166.2306;83.5859;17.5771;0.0;1018.37;62.90116;;;;;;0 / 0;83.1;40.0;3.748;3903;2014-11-17 17:11:29:549
3.552995;0.967258;-5.851429;0.301196;-9.801356;-0.11422;3.2518;10.768616;-5.737209;-0.81917;-0.018326;0.265421;59.0;3.72;22.14;-22.8;302.1226;88.1176;-110.7679;0.0;1018.37;62.90116;;;;;;0 / 0;83.1;40.0;3.748;3961;2014-11-17 17:11:29:607
1.225831;-3.083732;-0.105345;0.241029;-9.782966;-0.637113;0.984802;6.699234;0.531768;-1.716226;-1.218065;-0.725708;45.0;2.46;22.62;-22.86;345.2247;86.017;-159.2777;0.0;1018.37;65.92574;;;;;;0 / 0;83.1;40.0;3.748;4023;2014-11-17 17:11:29:669
0.45011;-7.671022;2.557007;0.521539;-9.792756;0.017508;-0.071429;2.121735;2.5395;-1.610241;-0.545197;-0.164934;34.0;1.02;23.7;-21.9;345.2247;86.017;-159.2777;0.0;1018.37;65.92574;;;;;;0 / 0;83.1;40.0;3.748;4082;2014-11-17 17:11:29:728
4.807557;-3.342306;-7.163451;0.804774;-9.773442;0.050443;4.002783;6.431138;-7.213895;0.136834;-0.01741;0.277333;19.0;-2.52;26.88;-19.14;198.1298;85.0393;-19.0029;0.0;1018.37;65.92574;;;;;;0 / 0;83.1;40.0;3.748;4163;2014-11-17 17:11:29:809
-14.84405;-19.52711;15.313314;0.906246;-9.743916;-0.636549;-15.750296;-9.783192;15.949864;-0.810618;0.190895;-0.401338;20.0;-3.78;28.68;-17.52;261.2822;85.2835;-86.4134;0.0;1017.96;65.92574;;;;;;0 / 0;83.1;40.0;3.748;4221;2014-11-17 17:11:29:867
12.26789;0.708684;-19.52711;0.39598;-9.77335;0.703712;11.87191;10.482036;-20.230822;3.94619;-2.41811;0.717461;12.0;-4.2;29.94;-17.16;261.2822;85.2835;-86.4134;0.0;1017.96;65.92574;;;;;;0 / 0;83.1;40.0;3.748;4283;2014-11-17 17:11:29:929
-6.129156;-17.985243;5.899313;0.86657;-9.76404;-0.288035;-6.995726;-8.221202;6.187348;-1.338406;1.278846;-1.03053;26.0;-3.24;29.64;-18.48;199.4575;85.277;-29.3665;0.0;1017.96;67.50429;;;;;;0 / 0;83.1;40.0;3.748;4334;2014-11-17 17:11:29:980
-6.129156;-17.985243;5.899313;0.86657;-9.76404;-0.288035;-6.995726;-8.221202;6.187348;-0.913244;-2.327397;-0.40256;15.0;-2.58;30.12;-18.9;287.3427;84.6569;-108.386;0.0;1018.83;67.50429;;;;;;0 / 0;83.1;40.0;3.748;4388;2014-11-17 17:11:30:034
1.915361;-7.661445;0.957681;0.0555;-9.805906;0.107232;1.859862;2.144461;0.850449;-1.252885;-1.014342;-0.077274;16.0;-2.7;31.14;-18.54;287.3427;84.6569;-108.386;0.0;1018.83;67.50429;;;;;;0 / 0;83.1;40.0;3.748;4441;2014-11-17 17:11:30:087
0.086191;-5.975927;4.462792;0.044057;-9.788706;0.591337;0.042134;3.81278;3.871455;-0.440128;0.679282;-0.263588;0.0;-3.12;32.76;-16.8;173.4903;86.5334;-4.2609;0.0;1018.83;67.50429;;;;;;0 / 0;83.1;40.0;3.748;4492;2014-11-17 17:11:30:138
-1.244985;-6.722918;1.972822;-0.098051;-9.772062;0.817047;-1.146934;3.049145;1.155775;-0.373239;1.265102;-0.375988;0.0;-4.02;34.98;-14.94;153.2571;85.1865;6.8431;0.0;1018.22;67.50429;;;;;;0 / 0;83.1;40.0;3.748;4547;2014-11-17 17:11:30:193
-2.901772;-4.999093;0.593762;0.125482;-9.777276;0.748;-3.027254;4.778184;-0.154238;0.160658;0.163712;-0.259923;0.0;-3.42;35.28;-14.94;153.2571;85.1865;6.8431;0.0;1018.22;67.50429;;;;;;0 / 0;83.1;40.0;3.748;4598;2014-11-17 17:11:30:244
0.976834;-8.791508;4.376601;-0.22146;-9.70683;1.377967;1.198294;0.915322;2.998634;1.445918;-1.154841;-0.500604;0.0;-2.28;35.28;-16.5;178.6724;85.5643;-9.523;0.0;1018.22;67.50429;;;;;;0 / 0;83.1;40.0;3.748;4666;2014-11-17 17:11:30:312
-4.089296;-19.488802;-4.951209;0.11696;-9.546274;2.241729;-4.206256;-9.942526;-7.192938;1.932472;0.069944;0.165544;0.0;-2.76;34.38;-17.4;166.6552;76.7675;-2.9866;0.0;1018.22;66.34871;;;;;;0 / 0;83.1;40.0;3.748;4724;2014-11-17 17:11:30:370
-1.647211;-18.569427;-4.951209;-0.278189;-9.176794;3.446657;-1.369022;-9.392632;-8.397864;2.439796;-1.844202;1.249219;17.0;-3.24;30.6;-20.76;150.9668;69.3533;4.6145;0.0;1018.26;66.34871;;;;;;0 / 0;83.1;40.0;3.748;4782;2014-11-17 17:11:30:428
1.331176;-11.741164;-3.198653;-0.564425;-9.788108;-0.21151;1.895601;-1.953056;-2.987143;0.966083;-2.183538;0.491441;20.0;-3.78;28.5;-22.26;150.9668;69.3533;4.6145;0.0;1018.26;66.34871;;;;;;0 / 0;83.1;40.0;3.748;4844;2014-11-17 17:11:30:490
2.499547;-3.303998;-3.696647;-0.820297;-9.762724;0.432121;3.319844;6.458727;-4.128768;0.558636;-3.221703;0.71624;23.0;-7.38;25.5;-24.36;54.5741;86.4761;110.5428;0.0;1018.12;66.34871;;;;;;0 / 0;83.1;40.0;3.748;4913;2014-11-17 17:11:30:559
1.302446;-5.947197;0.555455;-0.118519;-9.784686;-0.645174;1.420965;3.837489;1.200629;-0.501826;-2.469117;0.082772;26.0;-14.34;25.26;-23.1;346.5981;86.1646;169.5908;0.0;1018.12;66.34871;;;;;;0 / 0;83.1;40.0;3.748;4978;2014-11-17 17:11:30:624
1.101333;-7.910442;-0.363919;0.035438;-9.788484;-0.595586;1.065894;1.878041;0.231667;-0.091935;-2.459649;0.020769;30.0;-18.3;25.62;-21.24;318.1302;86.512;-176.5948;0.0;1018.12;66.34871;;;;;;0 / 0;83.1;40.0;3.748;5033;2014-11-17 17:11:30:679
0.890643;-9.500192;1.417368;0.147666;-9.79694;-0.410518;0.742977;0.296748;1.827886;-0.175624;-2.463925;-0.345444;38.0;-22.2;25.98;-19.26;318.1302;86.512;-176.5948;0.0;1018.12;64.67095;;;;;;0 / 0;83.1;40.0;3.748;5094;2014-11-17 17:11:30:740
-0.143652;-10.79306;1.733402;0.133607;-9.804402;-0.162002;-0.277259;-0.988659;1.895404;0.110567;-3.289204;-0.152716;41.0;-30.18;26.28;-13.32;285.4387;87.4502;-160.216;0.0;1018.12;64.67095;;;;;;0 / 0;83.1;40.0;3.748;5148;2014-11-17 17:11:30:794
0.057461;-8.925584;0.47884;0.09354;-9.805628;-0.106282;-0.036079;0.880044;0.585123;-0.273973;-2.61939;0.132863;41.0;-33.24;26.28;-9.42;244.4738;89.1727;-138.6489;0.0;1018.12;64.67095;;;;;;0 / 0;83.1;40.0;3.748;5201;2014-11-17 17:11:30:847
3.878607;-9.097966;-1.58975;0.447839;-9.793262;-0.248699;3.430768;0.695295;-1.341051;0.010996;-1.420873;0.502437;45.0;-39.12;26.52;-1.02;211.6354;87.0057;-119.0448;0.0;1018.12;64.67095;;;;;;0 / 0;83.1;40.0;3.748;5257;2014-11-17 17:11:30:903
0.009577;-11.587936;-1.225831;0.423173;-9.78982;-0.388245;-0.413597;-1.798117;-0.837586;-0.637438;-1.856419;0.13378;42.0;-40.62;27.0;2.88;211.6354;87.0057;-119.0448;0.0;1018.13;64.67095;;;;;;0 / 0;83.1;40.0;3.748;5336;2014-11-17 17:11:30:982
4.347871;-10.572794;-0.440533;0.788213;-9.767614;-0.377922;3.559658;-0.80518;-0.062611;0.083078;-1.773953;-0.110261;42.0;-41.64;28.32;9.48;215.7462;86.6427;-132.5351;0.0;1018.13;64.67095;;;;;;0 / 0;83.1;40.0;3.748;5407;2014-11-17 17:11:31:053
-4.625597;-9.461884;-1.11091;0.292577;-9.792034;-0.448146;-4.918174;0.33015;-0.662763;-0.223271;-1.603827;0.186619;40.0;-41.64;28.62;16.26;221.0606;86.8715;-146.861;0.0;1018.17;61.36362;;;;;;0 / 0;83.1;40.0;3.748;5461;2014-11-17 17:11:31:107
2.585738;-10.266336;-1.072602;0.484481;-9.781116;-0.515161;2.101257;-0.485219;-0.557442;-0.085827;-1.767538;0.133474;42.0;-41.58;28.86;19.86;202.3259;85.8646;-136.7579;0.0;1018.17;61.36362;;;;;;0 / 0;83.1;40.0;3.748;5524;2014-11-17 17:11:31:170
-0.153229;-9.318232;-1.312023;0.452504;-9.775912;-0.630179;-0.605733;0.45768;-0.681844;-0.819476;-0.459676;-0.278555;34.0;-41.34;28.5;22.86;202.3259;85.8646;-136.7579;0.0;1018.17;61.36362;;;;;;0 / 0;83.1;40.0;3.748;5575;2014-11-17 17:11:31:221
-1.158794;-9.701304;-0.651223;0.312816;-9.780124;-0.649389;-1.47161;0.078818;-0.001834;-0.530842;-1.491427;-0.289245;34.0;-40.62;28.32;28.38;203.0266;85.4625;-144.3195;0.0;1018.24;61.36362;;;;;;0 / 0;83.1;40.0;3.748;5629;2014-11-17 17:11:31:275
-0.191536;-9.126696;-1.493982;0.246686;-9.776964;-0.72148;-0.438222;0.650268;-0.772502;-0.331089;-1.842064;-0.186925;26.0;-40.14;27.66;31.02;214.8389;85.5407;-161.1236;0.0;1018.24;61.36362;;;;;;0 / 0;83.1;40.0;3.748;5694;2014-11-17 17:11:31:340
-0.134075;-10.151414;0.220267;0.21845;-9.785348;-0.607963;-0.352525;-0.366066;0.82823;-0.138361;-1.752267;-0.259007;26.0;-38.28;26.34;37.8;206.0885;86.2229;-160.2359;0.0;1018.24;61.36362;;;;;;0 / 0;83.1;40.0;3.748;5750;2014-11-17 17:11:31:396
-0.21069;-10.25676;-0.746991;0.162916;-9.789526;-0.555898;-0.373605;-0.467233;-0.191093;0.239459;-1.504561;-0.152105;28.0;-37.74;26.04;39.54;204.5536;86.2229;-160.2359;0.0;1018.25;53.61228;;;;;;0 / 0;83.1;40.0;3.748;5877;2014-11-17 17:11:31:523
-0.392649;-11.616666;-0.067038;-0.214887;-9.803458;-0.127935;-0.177762;-1.813208;0.060897;2.017994;-1.445918;0.65271;31.0;-30.36;26.76;47.52;271.9338;88.5388;120.7678;0.0;1018.25;53.61228;;;;;;0 / 0;83.1;40.0;3.748;5940;2014-11-17 17:11:31:586
2.624045;-12.334928;-3.256114;0.022034;-9.799902;-0.363079;2.602011;-2.535025;-2.893035;2.260202;-1.54946;0.828944;0.0;-27.84;28.8;48.48;271.9338;88.5388;120.7678;0.0;1018.25;53.61228;;;;;;0 / 0;83.1;40.0;3.748;5995;2014-11-17 17:11:31:641
-0.957681;-9.471462;-4.501099;-0.099017;-9.771024;-0.829246;-0.858663;0.299562;-3.671853;1.125214;-1.163698;0.936762;31.0;-21.9;34.74;48.06;204.5767;87.8743;-176.5271;0.0;1018.25;53.61228;;;;;;0 / 0;83.1;40.0;3.748;6047;2014-11-17 17:11:31:693
-0.047884;-6.435614;-1.417367;-0.065531;-9.752162;-1.030282;0.017647;3.316548;-0.387086;0.083383;-1.533883;0.371101;31.0;-18.96;37.44;47.16;207.8411;83.9572;176.3606;0.0;1018.25;53.61228;;;;;;0 / 0;83.1;40.0;3.748;6102;2014-11-17 17:11:31:748
4.903325;-8.044517;1.982399;0.479154;-9.762034;-0.802168;4.424171;1.717517;2.784567;-0.597732;-1.834734;-0.24679;23.0;-12.36;40.62;47.4;161.9658;84.5325;-149.1491;0.0;1018.3;53.61228;;;;;;0 / 0;83.1;40.0;3.748;6177;2014-11-17 17:11:31:823
-2.020706;-11.990162;8.801086;0.281429;-9.801556;0.143763;-2.302135;-2.188605;8.657324;0.807258;-0.945925;0.319177;22.0;-9.54;40.68;48.6;161.9658;84.5325;-149.1491;0.0;1018.3;60.65146;;;;;;0 / 0;83.1;40.0;3.748;6238;2014-11-17 17:11:31:884
-1.216254;-7.575254;-0.296881;0.045142;-9.805106;0.16807;-1.261396;2.229853;-0.464951;-0.416916;0.38454;0.346361;22.0;-5.16;40.38;50.34;69.5146;88.1533;-62.9406;0.0;1018.3;60.65146;;;;;;0 / 0;83.1;40.0;3.748;6291;2014-11-17 17:11:31:937
1.063026;-11.195286;3.198654;0.155485;-9.79466;0.459193;0.90754;-1.400627;2.739461;0.305127;-0.426384;0.285885;23.0;-3.9;40.56;50.94;22.3521;87.1663;-18.7064;0.0;1018.3;60.65146;;;;;;0 / 0;83.1;40.0;3.748;6353;2014-11-17 17:11:31:999
-2.145205;-7.651869;0.517148;-0.083436;-9.785572;0.637186;-2.061769;2.133704;-0.120039;-0.195171;-0.198837;0.25748;20.0;-1.92;41.1;51.36;355.036;86.2428;7.4601;0.0;1018.3;60.65146;;;;;;0 / 0;83.1;40.0;3.748;6408;2014-11-17 17:11:32:054
-1.063026;-10.544064;2.327164;-0.25083;-9.782832;0.63535;-0.812196;-0.761231;1.691814;-0.029932;-0.033903;0.253509;20.0;-0.72;41.22;51.48;355.036;86.2428;7.4601;0.0;1018.3;60.65146;;;;;;0 / 0;83.1;40.0;3.748;6464;2014-11-17 17:11:32:110
0.699107;-9.38527;1.321599;-0.247545;-9.778108;0.70548;0.946652;0.392837;0.616119;-0.029322;-0.167988;0.144775;22.0;0.6;41.28;51.72;339.5331;86.0059;21.5436;0.0;1018.27;60.65146;;;;;;0 / 0;83.1;40.0;3.748;6533;2014-11-17 17:11:32:179
-1.40779;-9.605536;1.838747;-0.354511;-9.7767;0.678834;-1.05328;0.171164;1.159913;-0.043677;0.153938;0.022297;23.0;1.38;41.16;51.78;332.8622;85.521;27.5751;0.0;1018.27;57.33727;;;;;;0 / 0;83.1;40.0;3.748;6590;2014-11-17 17:11:32:236
-1.244985;-9.662998;2.346318;-0.397253;-9.774156;0.691722;-0.847732;0.111158;1.654595;-0.065057;0.040623;0.083689;23.0;1.32;40.92;52.02;330.7459;85.3344;29.8685;0.0;1018.27;57.33727;;;;;;0 / 0;83.1;40.0;3.748;6647;2014-11-17 17:11:32:293
-0.392649;-9.787496;1.426944;-0.417022;-9.774086;0.680979;0.024373;-0.01341;0.745966;-0.103236;-0.018021;0.08491;15.0;0.9;40.8;52.38;329.2161;85.3295;31.4828;0.0;1018.14;57.33727;;;;;;0 / 0;83.1;40.0;3.748;6712;2014-11-17 17:11:32:358
-0.469264;-9.844956;2.106898;-0.422767;-9.775206;0.661051;-0.046496;-0.069751;1.445847;-0.132863;0.045204;-0.007025;15.0;0.84;40.74;52.62;329.2161;85.3295;31.4828;0.0;1018.14;57.33727;;;;;;0 / 0;83.1;40.0;3.748;6765;2014-11-17 17:11:32:411
-1.091756;-9.040504;1.599327;-0.425436;-9.77671;0.636649;-0.66632;0.736205;0.962678;-0.051313;-0.057727;0.019548;16.0;1.32;40.98;52.92;328.1113;85.4106;32.6005;0.0;1018.14;57.33727;;;;;;0 / 0;83.1;40.0;3.748;6820;2014-11-17 17:11:32:466
-0.555455;-9.490616;1.675941;-0.41467;-9.777776;0.627313;-0.140785;0.287161;1.048628;-0.064752;-0.032376;0.047037;0.0;1.74;40.98;53.4;326.1872;85.6022;33.4657;0.0;1018.14;57.33727;;;;;;0 / 0;83.1;40.0;3.748;6875;2014-11-17 17:11:32:521
-0.181959;-9.5385;1.37906;-0.399223;-9.778356;0.628312;0.217263;0.239857;0.750748;-0.025351;-0.046731;0.054672;15.0;1.62;40.86;53.4;326.1872;85.6022;33.4657;0.0;1018.26;57.33727;;;;;;0 / 0;83.1;40.0;3.748;6941;2014-11-17 17:11:32:587
-0.804452;-9.672574;1.37906;-0.405529;-9.778262;0.625725;-0.398923;0.105687;0.753335;-0.012523;0.022602;0.016188;17.0;1.56;40.5;53.28;328.1885;85.6466;32.4314;0.0;1018.26;42.31055;;;;;;0 / 0;83.1;40.0;3.748;6993;2014-11-17 17:11:32:639
-0.641646;-9.65342;1.417368;-0.410434;-9.7769;0.643531;-0.231212;0.12348;0.773836;-0.083078;-0.024435;0.043982;0.0;1.92;40.2;53.28;326.625;85.6394;32.947;0.0;1018.26;42.31055;;;;;;0 / 0;83.1;40.0;3.748;7066;2014-11-17 17:11:32:712
-0.287304;-9.682152;1.915361;-0.391968;-9.780374;0.600837;0.104664;0.098224;1.314524;-0.090103;-0.155465;0.047647;0.0;2.04;40.08;53.34;326.3999;85.8049;33.1192;0.0;1018.25;42.31055;;;;;;0 / 0;83.1;40.0;3.748;7124;2014-11-17 17:11:32:770
-0.584185;-9.615114;1.771709;-0.381162;-9.777666;0.649917;-0.203023;0.162552;1.121792;0.01405;0.080634;0.03207;15.0;2.4;40.14;53.52;329.089;85.5936;30.3907;0.0;1018.25;42.31055;;;;;;0 / 0;83.1;40.0;3.748;7192;2014-11-17 17:11:32:838