sep=;
ACCELEROMETER X (m/s²);ACCELEROMETER Y (m/s²);ACCELEROMETER Z (m/s²);GRAVITY X (m/s²);GRAVITY Y (m/s²);GRAVITY Z (m/s²);LINEAR ACCELERATION X (m/s²);LINEAR ACCELERATION Y (m/s²);LINEAR ACCELERATION Z (m/s²);GYROSCOPE X (rad/s);GYROSCOPE Y (rad/s);GYROSCOPE Z (rad/s);LIGHT (lux);MAGNETIC FIELD X (μT);MAGNETIC FIELD Y (μT);MAGNETIC FIELD Z (μT);ORIENTATION X (°);ORIENTATION Y (°);ORIENTATION Z (°);PROXIMITY (i);ATMOSPHERIC PRESSURE (hPa);SOUND LEVEL (dB);LOCATION Latitude : ;LOCATION Longitude : ;LOCATION Altitude ( m);LOCATION Speed ( Kmh);LOCATION Accuracy ( m);Satellites in range;Temperature (F);Level (%);Voltage (Volt);Time since start in ms ;YYYY-MO-DD HH-MI-SS_SSS
-0.373495;-3.380613;-0.191536;-0.69398;-9.353904;2.862384;0.320484;5.973292;-3.05392;0.764803;0.344223;0.509156;81.0;4.44;31.98;-53.34;167.9871;72.5221;13.6283;0.0;1018.1;67.55219;;;;;;0 / 0;81.9;39.0;3.665;26;2014-11-17 17:13:58:924
-0.009577;-2.624045;0.574608;-0.879914;-9.322814;2.912264;0.870338;6.69877;-2.337656;-1.296867;0.492968;0.002443;78.0;6.06;30.0;-54.72;167.9871;72.5221;13.6283;0.0;1018.1;65.47699;;;;;;0 / 0;81.9;39.0;3.665;84;2014-11-17 17:13:58:982
-0.881066;-4.692635;2.537854;-0.912696;-9.507078;2.2255;0.03163;4.814443;0.312354;-1.620931;0.588874;-0.217773;81.0;8.16;30.06;-54.54;167.9094;71.9271;16.8117;0.0;1018.02;65.47699;;;;;;0 / 0;81.9;39.0;3.665;154;2014-11-17 17:13:59:052
-1.886631;-8.408436;3.86903;-0.504793;-9.590714;1.983381;-1.381838;1.182277;1.885649;-1.694235;0.471588;-0.566272;81.0;9.3;31.98;-53.22;174.565;77.954;14.2793;0.0;1018.02;65.47699;;;;;;0 / 0;81.9;39.0;3.665;204;2014-11-17 17:13:59:102
-0.632069;-11.36767;3.447651;-0.484774;-9.563098;2.117196;-0.147295;-1.804571;1.330455;-1.185995;-0.021075;-0.463341;75.0;11.04;36.48;-49.56;179.4029;77.204;12.8967;0.0;1018.02;65.47699;;;;;;0 / 0;81.9;39.0;3.665;255;2014-11-17 17:13:59:153
-0.842759;-8.858546;4.367024;-0.560585;-9.479966;2.446709;-0.282174;0.621421;1.920315;-0.577879;0.16585;0.063835;78.0;11.52;38.34;-48.3;179.4029;77.204;12.8967;0.0;1017.91;65.47699;;;;;;0 / 0;81.9;39.0;3.665;312;2014-11-17 17:13:59:210
-12.794614;-19.450495;17.03714;-0.589946;-9.618578;1.818042;-12.204668;-9.831916;15.219098;2.659097;-1.926364;1.160033;73.0;12.18;41.16;-45.36;181.8764;75.1696;12.9048;0.0;1017.91;65.47699;;;;;;0 / 0;81.9;39.0;3.665;381;2014-11-17 17:13:59:279
11.530476;-0.421379;-13.359646;-0.508799;-9.461402;2.52852;12.039276;9.040024;-15.888164;-0.769996;1.357343;-0.327118;89.0;12.3;40.86;-45.18;184.8445;74.7515;11.3774;0.0;1017.91;65.97614;;;;;;0 / 0;81.9;39.0;3.665;444;2014-11-17 17:13:59:342
-10.534488;-18.44493;7.766791;-0.612603;-9.490494;2.392824;-9.921884;-8.954434;5.373966;-0.54703;2.818227;-0.163101;70.0;13.02;40.26;-45.54;184.8445;74.7515;11.3774;0.0;1017.91;65.97614;;;;;;0 / 0;81.9;39.0;3.665;495;2014-11-17 17:13:59:393
0.727837;-4.568136;-0.536301;-0.622463;-9.510146;2.31085;1.350301;4.942011;-2.84715;-0.543059;-0.813672;-0.286496;80.0;15.48;38.82;-46.5;183.3851;75.4118;14.3602;0.0;1017.91;65.97614;;;;;;0 / 0;81.9;39.0;3.665;557;2014-11-17 17:13:59:455
0.057461;-8.015787;5.6982;-1.060576;-9.378186;2.663679;1.118037;1.3624;3.034521;0.037263;-0.076969;-0.148135;75.0;16.2;39.78;-45.66;185.2965;75.8749;15.0757;0.0;1017.91;65.97614;;;;;;0 / 0;81.9;39.0;3.665;620;2014-11-17 17:13:59:518
0.47884;-6.090849;2.853889;-0.964208;-9.330554;2.860322;1.443049;3.239706;-0.006434;0.088881;1.307863;-0.20861;73.0;14.88;39.66;-45.3;179.7198;72.0734;18.6289;0.0;1017.95;65.97614;;;;;;0 / 0;81.9;39.0;3.665;689;2014-11-17 17:13:59:587
-3.581726;-6.464344;1.321599;-1.311;-9.31624;2.767556;-2.270726;2.851896;-1.445957;0.315206;1.021367;-0.357967;70.0;14.58;39.36;-45.0;170.0545;71.8036;25.3471;0.0;1017.95;65.97614;;;;;;0 / 0;81.9;39.0;3.665;745;2014-11-17 17:13:59:643
-4.050989;-9.500192;2.815581;-1.555847;-9.285912;2.742545;-2.495141;-0.21428;0.073036;0.325591;-0.217773;-0.21533;63.0;15.18;38.82;-45.12;170.0545;71.8036;25.3471;0.0;1017.95;65.97614;;;;;;0 / 0;81.9;39.0;3.665;804;2014-11-17 17:13:59:702
-3.323152;-10.151414;7.125145;-1.703677;-9.098856;3.237084;-1.619475;-1.052559;3.888061;1.202183;-0.093157;0.108734;67.0;15.72;38.16;-45.48;165.6174;71.2445;29.5663;0.0;1018.07;64.79764;;;;;;0 / 0;81.9;39.0;3.665;857;2014-11-17 17:13:59:755
-1.16837;-19.546263;5.45878;-1.936787;-8.730818;4.023936;0.768417;-10.815444;1.434844;2.708271;0.050396;1.480127;70.0;16.02;35.16;-47.28;167.9467;62.9104;25.7023;0.0;1018.07;64.79764;;;;;;0 / 0;81.9;39.0;3.665;912;2014-11-17 17:13:59:810
0.47884;-14.709974;0.92895;-1.435317;-9.198648;3.081417;1.914157;-5.511327;-2.152466;2.91902;-0.111483;1.513113;73.0;16.2;31.8;-48.54;167.9467;62.9104;25.7023;0.0;1018.07;64.79764;;;;;;0 / 0;81.9;39.0;3.665;978;2014-11-17 17:13:59:876
2.030283;-8.389282;-0.584185;-1.058769;-9.372324;2.684952;3.089052;0.983041;-3.269137;0.766941;-0.269697;0.539089;67.0;17.1;23.4;-51.54;171.7948;69.7185;24.976;0.0;1018.07;64.79764;;;;;;0 / 0;81.9;39.0;3.665;1046;2014-11-17 17:13:59:944
2.384625;1.58975;-3.974375;-1.284768;-9.203938;3.131656;3.669393;10.79369;-7.10603;-0.299935;0.634384;0.361327;64.0;18.18;16.98;-52.92;175.6827;69.8079;22.306;0.0;1018.07;64.79764;;;;;;0 / 0;81.9;39.0;3.665;1116;2014-11-17 17:14:00:014
0.6608;0.02873;-1.848324;-1.391963;-9.373166;2.525189;2.052763;9.401896;-4.373512;-2.45018;-0.406836;-1.06596;64.0;19.08;16.92;-52.5;169.8544;72.9008;28.8649;0.0;1018.07;64.79764;;;;;;0 / 0;81.9;39.0;3.665;1173;2014-11-17 17:14:00:071
-0.459687;-8.255207;1.35033;-0.511661;-9.67627;1.509426;0.051975;1.421064;-0.159096;-3.359148;-0.112094;-1.160644;66.0;19.32;21.66;-49.56;182.2626;80.6467;18.7255;0.0;1017.99;68.27919;;;;;;0 / 0;81.9;39.0;3.665;1239;2014-11-17 17:14:00:137
-3.236961;-13.196838;7.939173;-0.754825;-9.53899;2.146687;-2.482136;-3.657848;5.792486;-0.91416;-0.471283;-0.498771;66.0;18.12;25.44;-47.58;182.2626;80.6467;18.7255;0.0;1017.99;68.27919;;;;;;0 / 0;81.9;39.0;3.665;1290;2014-11-17 17:14:00:188
4.328717;-5.640739;0.718261;-0.352676;-9.52437;2.309191;4.681393;3.883632;-1.590931;-0.433409;-0.687223;-0.58246;53.0;14.34;30.18;-44.82;192.5539;76.2195;8.6835;0.0;1017.99;68.27919;;;;;;0 / 0;81.9;39.0;3.665;1359;2014-11-17 17:14:00:257
-7.07726;-19.52711;8.389284;-0.129068;-9.62212;1.88906;-6.948191;-9.904988;6.500223;0.291688;-0.103542;0.89675;51.0;12.36;31.08;-44.1;193.3234;78.8674;3.9086;0.0;1017.99;68.27919;;;;;;0 / 0;81.9;39.0;3.665;1419;2014-11-17 17:14:00:317
12.382812;-2.710236;-11.63582;0.26075;-9.660398;1.667069;12.122062;6.950162;-13.30289;-0.221439;0.415083;-0.174097;62.0;10.38;29.64;-44.58;204.3987;80.0924;-8.8897;0.0;1017.99;68.27919;;;;;;0 / 0;81.9;39.0;3.665;1481;2014-11-17 17:14:00:379
-17.075447;-19.144037;10.630256;0.292537;-9.672972;1.586961;-17.367985;-9.471064;9.043296;-0.142637;-0.979522;0.273057;53.0;10.38;29.1;-44.58;204.3987;80.0924;-8.8897;0.0;1017.99;68.27919;;;;;;0 / 0;81.9;39.0;3.665;1532;2014-11-17 17:14:00:430
4.730943;-4.855441;-0.220267;-0.796434;-9.560764;2.031713;5.527377;4.705324;-2.251979;0.029322;-1.096808;0.176845;51.0;10.08;29.34;-43.26;169.6756;77.1426;21.4053;0.0;1018.0;68.24895;;;;;;0 / 0;81.9;39.0;3.665;1590;2014-11-17 17:14:00:488
-4.865018;-9.078812;3.562572;-1.172137;-9.512088;2.07766;-3.692881;0.433276;1.484912;-0.394008;0.901026;-0.016493;48.0;9.96;30.06;-42.36;160.1001;75.9214;29.43;0.0;1018.0;68.24895;;;;;;0 / 0;81.9;39.0;3.665;1645;2014-11-17 17:14:00:543
1.867477;-5.48751;3.8403;-0.953576;-9.44998;2.441103;2.821053;3.96247;1.399197;0.227242;-0.065057;0.117592;44.0;9.24;30.12;-41.16;160.1001;75.9214;29.43;0.0;1018.0;68.24895;;;;;;0 / 0;81.9;39.0;3.665;1702;2014-11-17 17:14:00:600
-3.610456;-6.933608;0.565032;-1.247274;-9.451848;2.297224;-2.363182;2.518241;-1.732193;0.022297;1.192409;-0.305433;42.0;9.3;29.64;-40.38;168.4363;74.4998;21.3373;0.0;1018.0;68.24895;;;;;;0 / 0;81.9;39.0;3.665;1756;2014-11-17 17:14:00:654
-2.595315;-8.657434;3.275268;-1.350155;-9.414102;2.392103;-1.24516;0.756669;0.883165;0.006109;-0.063835;-0.317039;37.0;9.12;29.34;-40.32;158.2019;73.7339;29.4413;0.0;1018.0;68.24895;;;;;;0 / 0;81.9;39.0;3.665;1813;2014-11-17 17:14:00:711
-4.089296;-15.571888;7.929596;-1.524269;-9.25351;2.866975;-2.565027;-6.318377;5.062621;1.087035;-0.035125;-0.248622;40.0;7.8;27.9;-40.02;157.0023;70.6644;27.998;0.0;1018.0;68.24895;;;;;;0 / 0;81.9;39.0;3.665;1880;2014-11-17 17:14:00:778
2.183512;-19.546263;-0.354342;-1.6243;-8.863288;3.869649;3.807812;-10.682974;-4.223991;2.731484;-0.40592;0.998459;49.0;6.72;26.58;-40.26;157.0023;70.6644;27.998;0.0;1018.15;66.42179;;;;;;0 / 0;81.9;39.0;3.665;1932;2014-11-17 17:14:00:830
-0.421379;-12.813766;1.752556;-1.173618;-9.422202;2.452575;0.752239;-3.391565;-0.700019;1.890323;0.308487;1.063822;67.0;5.94;21.36;-42.24;158.3168;64.6626;22.7704;0.0;1018.15;66.42179;;;;;;0 / 0;81.9;39.0;3.665;1986;2014-11-17 17:14:00:884
0.344765;-5.956774;-1.541866;-0.981021;-9.531654;2.086996;1.325786;3.574881;-3.628862;1.185079;-0.945619;0.443488;70.0;6.18;18.6;-43.2;160.2559;76.3993;25.1765;0.0;1018.15;66.42179;;;;;;0 / 0;81.9;39.0;3.665;2053;2014-11-17 17:14:00:951
0.766145;-1.723825;-1.867477;-1.026962;-9.385326;2.651674;1.793106;7.661502;-4.51915;0.191201;-0.316428;0.295659;78.0;6.78;16.38;-43.68;160.2559;76.3993;25.1765;0.0;1018.17;66.42179;;;;;;0 / 0;81.9;39.0;3.665;2105;2014-11-17 17:14:01:003
1.158794;-1.40779;-0.143652;-1.136285;-9.432652;2.429884;2.295079;8.024863;-2.573536;-1.107499;0.443488;0.11973;78.0;7.26;14.64;-44.04;165.9224;73.1441;21.1708;0.0;1018.17;66.42179;;;;;;0 / 0;81.9;39.0;3.665;2178;2014-11-17 17:14:01:076
0.076614;-4.548983;0.038307;-1.048818;-9.606214;1.670636;1.125432;5.057232;-1.632329;-1.933083;0.231823;-0.492968;64.0;6.96;15.42;-43.62;161.655;74.1254;25.0622;0.0;1018.17;66.42179;;;;;;0 / 0;81.9;39.0;3.665;2234;2014-11-17 17:14:01:132
-1.13964;-12.009314;3.20823;-0.566439;-9.684128;1.437777;-0.573201;-2.325188;1.770453;-1.866193;0.440434;-0.890641;53.0;6.36;16.86;-42.6;165.372;80.9335;21.5029;0.0;1018.07;66.42179;;;;;;0 / 0;81.9;39.0;3.665;2292;2014-11-17 17:14:01:190
-2.221819;-9.854534;6.607997;-0.785809;-9.562056;2.029776;-1.43601;-0.292478;4.578221;-1.025032;0.312458;-0.136223;51.0;4.32;20.58;-40.32;162.0783;77.1765;21.1635;0.0;1018.07;64.18248;;;;;;0 / 0;81.9;39.0;3.665;2349;2014-11-17 17:14:01:247
-0.067038;-14.489708;-15.993266;-0.843387;-9.633944;1.62671;0.776349;-4.855764;-17.619976;-2.07236;-0.005192;-0.494801;31.0;3.6;22.02;-38.52;155.5779;79.2311;27.405;0.0;1018.07;64.18248;;;;;;0 / 0;81.9;39.0;3.665;2427;2014-11-17 17:14:01:325
9.730036;-9.32781;-13.809754;-0.96484;-9.660416;1.384123;10.694876;0.332606;-15.193878;1.72264;-2.322204;0.832609;28.0;1.98;21.36;-37.44;144.5507;80.0931;34.8795;0.0;1018.1;64.18248;;;;;;0 / 0;81.9;39.0;3.665;2501;2014-11-17 17:14:01:399
-8.810662;-17.410633;1.13964;-0.996937;-9.465638;2.361826;-7.813725;-7.944997;-1.222186;-2.100155;1.417207;-0.583987;42.0;1.2;20.4;-36.96;144.5507;80.0931;34.8795;0.0;1018.1;64.18248;;;;;;0 / 0;81.9;39.0;3.665;2552;2014-11-17 17:14:01:450
0.727837;-4.740519;1.656788;-0.808497;-9.646342;1.569967;1.536334;4.905824;0.086821;-0.064752;-0.966083;-0.019548;41.0;0.3;20.28;-36.66;149.4974;79.626;27.2474;0.0;1018.1;64.18248;;;;;;0 / 0;81.9;39.0;3.665;2602;2014-11-17 17:14:01:500
-3.399766;-7.326257;4.242526;-0.710905;-9.776818;-0.280812;-2.688861;2.450562;4.523339;-0.649044;0.017715;-0.428827;40.0;-0.6;20.82;-36.18;64.5641;85.5296;111.5544;0.0;1018.02;64.18248;;;;;;0 / 0;81.9;39.0;3.665;2659;2014-11-17 17:14:01:557
-0.402226;-5.0374;1.656788;-0.508339;-9.780728;-0.499339;0.106114;4.743329;2.156127;0.294132;0.026573;-0.157909;30.0;-1.02;21.24;-36.0;64.5641;85.5296;111.5544;0.0;1018.02;66.99483;;;;;;0 / 0;81.9;39.0;3.665;2721;2014-11-17 17:14:01:619
-2.30801;-6.483498;-2.231396;-0.934185;-9.75777;-0.289158;-1.373825;3.274272;-1.942238;-0.189368;0.482278;0.028405;27.0;-1.2;21.18;-35.76;42.3583;85.8332;134.4883;0.0;1018.02;66.99483;;;;;;0 / 0;81.9;39.0;3.665;2776;2014-11-17 17:14:01:674
-1.848324;-11.099518;5.525818;-0.992395;-9.749282;0.370179;-0.855929;-1.350237;5.155638;0.230296;-0.41661;-0.299019;28.0;-1.38;21.12;-35.76;105.2774;83.7995;69.5437;0.0;1018.21;66.99483;;;;;;0 / 0;81.9;39.0;3.665;2840;2014-11-17 17:14:01:738
-1.16837;-18.741812;7.402872;-0.931746;-9.714718;0.96255;-0.236625;-9.027094;6.440322;2.173459;-0.08094;0.328951;31.0;-2.4;20.4;-36.54;129.2827;82.1485;44.0684;0.0;1018.21;66.99483;;;;;;0 / 0;81.9;39.0;3.665;2907;2014-11-17 17:14:01:805
-2.231396;-19.40261;-0.095768;-1.383086;-9.374616;2.524682;-0.848309;-10.027994;-2.62045;3.013093;-0.554971;1.527774;48.0;-2.16;19.2;-37.62;129.2827;82.1485;44.0684;0.0;1018.21;66.99483;;;;;;0 / 0;81.9;39.0;3.665;2963;2014-11-17 17:14:01:861
-1.513135;-6.560112;-1.599327;-1.26336;-9.673832;0.995626;-0.249776;3.113721;-2.594953;0.422108;-0.733649;0.692721;53.0;0.42;13.32;-40.8;144.2508;72.9296;28.7151;0.0;1018.31;66.99483;;;;;;0 / 0;81.9;39.0;3.665;3036;2014-11-17 17:14:01:934
2.221819;-2.662352;-3.122039;-1.534229;-9.595714;1.31863;3.756048;6.933362;-4.440669;-0.476169;-1.253801;0.574519;62.0;1.14;11.64;-41.82;128.7644;78.0949;49.3218;0.0;1018.31;65.85462;;;;;;0 / 0;81.9;39.0;3.665;3093;2014-11-17 17:14:01:991
2.825158;0.201113;-0.842759;-1.711975;-9.610732;0.934538;4.537133;9.811846;-1.777297;-2.420859;-0.289245;-0.228769;64.0;0.72;11.16;-42.36;128.7644;78.0949;49.3218;0.0;1018.31;65.85462;;;;;;0 / 0;81.9;39.0;3.665;3151;2014-11-17 17:14:02:049
-0.699107;-6.799533;0.986411;-0.42724;-9.797294;-0.02946;-0.271867;2.997762;1.015871;-2.28372;-0.141721;-0.56505;48.0;-1.74;14.28;-41.52;115.1846;78.528;61.3706;0.0;1018.11;65.85462;;;;;;0 / 0;81.9;39.0;3.665;3204;2014-11-17 17:14:02:102
-0.440533;-10.984596;4.52983;-0.448829;-9.782242;0.526021;0.008296;-1.202355;4.003809;-1.543656;-0.291383;-0.482584;40.0;-3.54;16.86;-40.26;132.484;85.9567;40.4726;0.0;1018.11;65.85462;;;;;;0 / 0;81.9;39.0;3.665;3258;2014-11-17 17:14:02:156
-0.086191;-11.061212;6.196194;-0.425902;-9.719338;1.234285;0.33971;-1.341872;4.961909;-0.400117;-0.253509;-0.032681;20.0;-7.08;21.3;-37.5;147.7416;82.3487;19.0375;0.0;1018.11;65.85462;;;;;;0 / 0;81.9;39.0;3.665;3317;2014-11-17 17:14:02:215
0.191536;-10.879252;-5.841852;-0.445443;-9.780814;0.554648;0.63698;-1.098437;-6.396499;-0.860709;1.40499;0.460592;20.0;-7.86;22.62;-36.72;147.7416;82.3487;19.0375;0.0;1017.96;65.85462;;;;;;0 / 0;81.9;39.0;3.665;3383;2014-11-17 17:14:02:281
-7.28795;-18.540697;6.59842;-0.606102;-9.787526;0.085779;-6.681848;-8.75317;6.512641;0.433409;0.412639;0.623999;20.0;-7.98;23.4;-36.66;126.9363;85.8401;38.7683;0.0;1017.96;66.1425;;;;;;0 / 0;81.9;39.0;3.665;3434;2014-11-17 17:14:02:332
1.541866;-5.793968;-10.275912;-0.884133;-9.76418;0.222463;2.425999;3.970212;-10.498376;-0.192728;-0.094379;-0.053145;28.0;-7.32;23.7;-37.74;90.3597;84.6657;75.8766;0.0;1017.96;66.1425;;;;;;0 / 0;81.9;39.0;3.665;3497;2014-11-17 17:14:02:395
-3.236961;-10.860098;5.257667;-1.037202;-9.745246;0.353275;-2.199758;-1.114852;4.904393;-0.434325;-0.065668;0.129198;20.0;-6.24;23.52;-38.4;90.3597;84.6657;75.8766;0.0;1018.53;66.1425;;;;;;0 / 0;81.9;39.0;3.665;3553;2014-11-17 17:14:02:451
0.191536;-7.173028;0.622492;-0.929364;-9.746646;0.556392;1.1209;2.573618;0.066101;-0.031765;-1.174999;0.051313;15.0;-6.06;23.4;-38.88;95.7988;83.5848;71.191;0.0;1018.53;66.1425;;;;;;0 / 0;81.9;39.0;3.665;3615;2014-11-17 17:14:02:513
-0.603339;-7.517793;3.332729;-0.89296;-9.731742;0.816215;0.289621;2.21395;2.516514;0.045204;-0.204945;-0.055283;16.0;-6.84;24.48;-38.16;108.0543;83.6585;59.0919;0.0;1018.53;66.1425;;;;;;0 / 0;81.9;39.0;3.665;3688;2014-11-17 17:14:02:586
-3.543418;-8.743624;3.888184;-1.192426;-9.662142;1.179627;-2.350993;0.918518;2.708557;0.022602;0.233351;-0.101709;15.0;-7.08;24.48;-38.28;118.4753;80.1518;45.3091;0.0;1018.53;66.1425;;;;;;0 / 0;81.9;39.0;3.665;3739;2014-11-17 17:14:02:637
-0.641646;-8.312668;0.306458;-1.151369;-9.669976;1.155988;0.509723;1.357308;-0.84953;0.443488;-0.220828;0.01069;17.0;-7.14;24.24;-38.94;118.4753;80.1518;45.3091;0.0;1018.53;65.69126;;;;;;0 / 0;81.9;39.0;3.665;3794;2014-11-17 17:14:02:692
-2.978387;-13.417106;10.371682;-1.273481;-9.505404;2.04839;-1.704905;-3.911701;8.323293;1.464855;-0.149357;0.171348;15.0;-7.14;24.18;-39.66;119.898;80.4231;44.8853;0.0;1018.53;65.69126;;;;;;0 / 0;81.9;39.0;3.665;3850;2014-11-17 17:14:02:748
-1.752556;-19.546263;1.570596;-1.443452;-9.154906;3.205386;-0.309103;-10.391356;-1.634789;3.281568;-0.417832;1.173472;26.0;-6.24;20.88;-43.26;136.8226;68.9936;24.243;0.0;1018.17;65.69126;;;;;;0 / 0;81.9;39.0;3.665;3932;2014-11-17 17:14:02:830
-1.905785;-13.110648;-3.064578;-1.360735;-9.569052;1.658921;-0.54505;-3.541596;-4.723498;1.112691;-1.388497;0.630718;42.0;-5.7;14.16;-46.26;129.7152;77.362;39.3604;0.0;1018.17;65.69126;;;;;;0 / 0;81.9;39.0;3.665;4000;2014-11-17 17:14:02:898
1.37906;-2.537854;-1.254562;-1.575785;-9.300568;2.68081;2.954846;6.762714;-3.935372;-0.029627;-0.722348;0.460287;48.0;-6.18;10.92;-47.46;137.8757;71.5127;30.4471;0.0;1018.17;65.69126;;;;;;0 / 0;81.9;39.0;3.665;4056;2014-11-17 17:14:02:954
3.581726;-4.443638;0.153229;-1.60938;-9.31201;2.620449;5.191106;4.868372;-2.46722;-1.842675;-0.476169;-0.457538;48.0;-9.12;9.0;-47.7;133.891;71.7247;31.5567;0.0;1018.21;65.69126;;;;;;0 / 0;81.9;39.0;3.665;4121;2014-11-17 17:14:03:019
2.786851;-7.067683;1.446098;-0.239124;-9.761162;0.912639;3.025975;2.693479;0.533459;-2.308154;0.129198;-0.876897;45.0;-10.2;10.44;-47.28;133.891;71.7247;31.5567;0.0;1018.21;65.78556;;;;;;0 / 0;81.9;39.0;3.665;4175;2014-11-17 17:14:03:073
-1.647211;-11.741164;-0.057461;-0.313613;-9.773856;0.737427;-1.333597;-1.967309;-0.794888;-1.981036;-0.347582;-0.863458;40.0;-11.64;12.84;-46.08;141.4475;85.3128;23.0391;0.0;1018.21;65.78556;;;;;;0 / 0;81.9;39.0;3.665;4225;2014-11-17 17:14:03:123
-0.727837;-12.689268;7.613562;-0.401842;-9.702434;1.368084;-0.325996;-2.986833;6.245478;-0.890031;-0.724181;0.093157;20.0;-14.34;17.64;-43.02;143.3151;81.6396;16.3689;0.0;1018.04;65.78556;;;;;;0 / 0;81.9;39.0;3.665;4284;2014-11-17 17:14:03:182
0.086191;-16.788143;11.530476;-0.30846;-9.773026;0.750476;0.394652;-7.015115;10.78;-1.018923;0.091935;-0.273973;20.0;-15.66;19.68;-40.92;143.3151;81.6396;16.3689;0.0;1018.04;65.78556;;;;;;0 / 0;81.9;39.0;3.665;4340;2014-11-17 17:14:03:238
2.03986;-5.085284;-0.861913;-0.207182;-9.779756;0.695566;2.247042;4.694474;-1.557478;0.509767;-0.228769;0.508545;20.0;-16.8;20.88;-39.48;132.2711;85.2539;22.3436;0.0;1018.04;65.78556;;;;;;0 / 0;81.9;39.0;3.665;4398;2014-11-17 17:14:03:296
-5.238513;-11.233594;0.92895;-0.649394;-9.577932;2.002969;-4.589119;-1.655662;-1.074019;-0.362854;-0.033292;0.156992;0.0;-17.7;22.14;-38.46;131.0981;77.6013;17.9635;0.0;1018.0;65.78556;;;;;;0 / 0;81.9;39.0;3.665;4449;2014-11-17 17:14:03:347
3.323152;-9.921572;2.815581;-0.271814;-9.575638;2.098492;3.594966;-0.345934;0.717089;-0.099571;-0.496939;0.289856;11.0;-17.46;22.26;-38.64;131.0981;77.6013;17.9635;0.0;1018.0;65.78556;;;;;;0 / 0;81.9;39.0;3.665;4513;2014-11-17 17:14:03:411
-1.905785;-9.097966;0.699107;-0.416337;-9.594186;1.987127;-1.489448;0.49622;-1.28802;-0.055589;0.367435;0.136834;0.0;-16.74;22.68;-38.22;144.5103;77.5391;7.3803;0.0;1018.0;63.63535;;;;;;0 / 0;81.9;39.0;3.665;4585;2014-11-17 17:14:03:483
-0.890643;-9.528922;1.13964;-0.492232;-9.608138;1.900475;-0.398411;0.079215;-0.760835;-0.022907;-0.114843;0.14844;0.0;-16.56;22.74;-38.34;136.3731;78.452;14.5208;0.0;1018.24;63.63535;;;;;;0 / 0;81.9;39.0;3.665;4653;2014-11-17 17:14:03:551
-0.009577;-9.911994;1.963245;-0.422448;-9.609488;1.910404;0.412871;-0.302505;0.052841;-0.001527;-0.083078;0.124006;0.0;-16.5;22.62;-38.4;139.9875;78.4915;12.4692;0.0;1018.24;63.63535;;;;;;0 / 0;81.9;39.0;3.665;4705;2014-11-17 17:14:03:603
-0.555455;-9.643844;1.13964;-0.441022;-9.624734;1.827678;-0.114433;-0.019111;-0.688038;-0.066279;-0.016188;0.076053;0.0;-16.08;22.5;-38.22;139.9875;78.4915;12.4692;0.0;1018.24;63.63535;;;;;;0 / 0;81.9;39.0;3.665;4769;2014-11-17 17:14:03:667
-0.21069;-9.902418;1.37906;-0.408614;-9.63489;1.781109;0.197924;-0.267528;-0.402049;-0.091935;-0.109345;0.089186;11.0;-16.14;22.62;-38.04;139.0153;78.9468;13.5662;0.0;1018.21;63.63535;;;;;;0 / 0;81.9;39.0;3.665;4827;2014-11-17 17:14:03:725
0.536301;-9.442732;1.359907;-0.317007;-9.64573;1.740625;0.853309;0.202998;-0.380718;-0.124006;-0.017104;0.020159;0.0;-16.44;23.22;-37.92;142.8873;79.6061;10.3217;0.0;1018.21;63.63535;;;;;;0 / 0;81.9;39.0;3.665;4898;2014-11-17 17:14:03:796
-0.584185;-9.586384;1.388637;-0.341243;-9.648546;1.720314;-0.242942;0.062163;-0.331677;-0.171042;-0.074526;0.029627;0.0;-16.62;23.82;-37.32;139.7098;79.6977;11.2196;0.0;1018.21;43.03681;;;;;;0 / 0;81.9;39.0;3.665;4963;2014-11-17 17:14:03:861
0.411803;-9.940724;1.675941;-0.264343;-9.657844;1.681231;0.676145;-0.282881;-0.005289;0.104153;-0.228158;0.072082;13.0;-16.74;23.82;-37.08;139.7098;79.6977;11.2196;0.0;1018.21;43.03681;;;;;;0 / 0;81.9;39.0;3.665;5014;2014-11-17 17:14:03:912
-0.45011;-9.433154;1.522712;-0.250407;-9.652964;1.711127;-0.199703;0.21981;-0.188414;0.032987;-0.129809;0.059559;20.0;-16.44;23.88;-36.84;143.7403;80.006;8.9356;0.0;1018.21;43.03681;;;;;;0 / 0;81.9;39.0;3.665;5085;2014-11-17 17:14:03:983