ACCELEROMETER X (m/s²),ACCELEROMETER Y (m/s²),ACCELEROMETER Z (m/s²),GRAVITY X (m/s²),GRAVITY Y (m/s²),GRAVITY Z (m/s²),LINEAR ACCELERATION X (m/s²),LINEAR ACCELERATION Y (m/s²),LINEAR ACCELERATION Z (m/s²),GYROSCOPE X (rad/s),GYROSCOPE Y (rad/s),GYROSCOPE Z (rad/s),LIGHT (lux),MAGNETIC FIELD X (μT),MAGNETIC FIELD Y (μT),MAGNETIC FIELD Z (μT),ORIENTATION X (°),ORIENTATION Y (°),ORIENTATION Z (°),PROXIMITY (i),SOUND LEVEL (dB),LOCATION Latitude : ,LOCATION Longitude : ,LOCATION Altitude ( m),LOCATION Altitude-google ( m),LOCATION Speed ( Kmh),LOCATION Accuracy ( m),LOCATION ORIENTATION (°),Satellites in range,Time since start in ms ,YYYY-MO-DD HH-MI-SS_SSS
-0.0196,-9.9439,0.4315,-1.6075,-9.5333,1.6438,1.5879,-0.4106,-1.2123,0.7795,1.1973,0.6671,468.0,-86.6,3.4,31.7,25.88,76.44,44.36,,59.196,,,,NaN,,,,0 / 0,10,2014-12-14 04:24:34:115
0.0785,-9.9439,0.353,-1.6073,-9.5303,1.6615,1.6858,-0.4137,-1.3084,0.7697,1.212,0.6585,468.0,-86.6,3.9,31.7,26.14,76.37,44.05,,59.196,,,,NaN,,,,0 / 0,59,2014-12-14 04:24:34:164
0.0785,-9.9538,0.2942,-1.5931,-9.5321,1.6647,1.6876,-0.4018,-1.3923,0.7856,1.2083,0.661,468.0,-86.1,3.9,31.2,26.14,76.37,44.05,,59.196,,,,NaN,,,,0 / 0,110,2014-12-14 04:24:34:215
0.1373,-9.9832,0.304,-1.5529,-9.5435,1.6371,1.6902,-0.4396,-1.3331,0.7575,1.2107,0.6402,468.0,-86.6,3.9,32.1,27.18,76.47,43.59,,59.196,,,,NaN,,,,0 / 0,160,2014-12-14 04:24:34:265
0.1275,-9.9439,0.3236,-1.5383,-9.5461,1.636,1.6658,-0.3979,-1.3123,0.744,1.2168,0.6365,468.0,-87.0,3.4,32.1,26.99,76.76,43.24,,59.196,,,,NaN,,,,0 / 0,210,2014-12-14 04:24:34:315
-0.0392,-9.993,0.353,-1.4977,-9.5531,1.6328,1.4585,-0.4399,-1.2798,0.6842,1.2352,0.5925,468.0,-87.0,3.4,32.1,27.69,76.94,42.53,,59.196,,,,NaN,,,,0 / 0,260,2014-12-14 04:24:34:365
0.0098,-9.8459,0.559,-1.4775,-9.5599,1.611,1.4874,-0.286,-1.052,0.6817,1.2816,0.5596,468.0,-87.0,3.4,32.6,27.69,76.94,42.53,,59.196,,,,NaN,,,,0 / 0,309,2014-12-14 04:24:34:414
-0.5884,-10.042,0.8826,-1.4982,-9.5312,1.7557,0.9098,-0.5108,-0.8731,0.8088,1.2107,0.573,468.0,-87.4,3.9,32.6,29.16,76.39,40.47,,59.196,,,,NaN,,,,0 / 0,359,2014-12-14 04:24:34:464
-0.1765,-9.9636,0.1667,-1.5418,-9.5349,1.6969,1.3653,-0.4287,-1.5302,0.5376,1.3586,0.4484,468.0,-87.9,3.9,33.1,27.58,76.48,42.26,,59.196,,,,NaN,,,,0 / 0,409,2014-12-14 04:24:34:514
-0.1471,-10.0126,0.4413,-1.5291,-9.5429,1.6628,1.4213,-0.4697,-1.143,0.4814,1.2889,0.3812,468.0,-88.3,4.3,33.6,27.58,76.48,42.26,,59.196,,,,NaN,,,,0 / 0,460,2014-12-14 04:24:34:565
0.0,-9.7968,0.8826,-1.3686,-9.5904,1.5236,1.3686,-0.2064,-0.641,0.3629,1.4917,0.3457,468.0,-88.7,4.3,33.6,27.45,77.95,41.93,,59.196,,,,NaN,,,,0 / 0,509,2014-12-14 04:24:34:614
-0.2452,-10.1008,1.5691,-1.3083,-9.6007,1.512,1.0631,-0.5002,0.0571,0.5156,1.5247,0.3836,468.0,-88.7,4.7,34.6,27.45,77.95,41.93,,36.772,,,,NaN,,,,0 / 0,559,2014-12-14 04:24:34:664
-0.8041,-10.1499,2.3242,-1.3083,-9.6007,1.512,1.0631,-0.5002,0.0571,1.0311,1.0055,0.6267,468.0,-88.7,4.7,34.6,27.45,77.95,41.93,,36.772,,,,NaN,,,,0 / 0,609,2014-12-14 04:24:34:714
-0.9905,-11.7876,1.52,-1.5067,-9.3991,2.3573,0.8202,-3.3495,-1.1118,1.4306,1.0006,0.5095,468.0,-89.6,5.6,32.6,34.95,75.74,35.12,,36.772,,,,NaN,,,,0 / 0,660,2014-12-14 04:24:34:765
1.5985,-11.3855,2.8635,-1.5045,-9.3159,2.6684,3.103,-2.0696,0.1951,1.8265,0.8687,0.6695,468.0,-89.6,5.2,31.7,41.83,71.8,29.42,,36.772,,,,NaN,,,,0 / 0,710,2014-12-14 04:24:34:815
2.9224,-9.9145,2.5791,-1.1285,-9.0701,3.5538,2.7073,-0.3348,-3.9914,1.6628,0.8503,0.9004,468.0,-89.2,5.6,27.3,56.36,67.65,17.62,,36.772,,,,NaN,,,,0 / 0,760,2014-12-14 04:24:34:865
0.5198,-9.5125,0.4119,-1.0835,-9.0244,3.6819,1.6033,-0.488,-3.27,1.5052,0.8821,0.8479,468.0,-87.9,6.0,23.9,59.14,66.96,16.4,,36.772,,,,NaN,,,,0 / 0,810,2014-12-14 04:24:34:915
0.4315,-8.5416,0.3628,-1.1273,-9.0147,3.6925,1.5588,0.4731,-3.3297,1.3744,0.8332,0.8357,755.0,-87.9,5.6,23.9,59.14,66.96,16.4,,36.772,,,,NaN,,,,0 / 0,860,2014-12-14 04:24:34:965
0.5198,-8.1395,0.4119,-1.152,-9.0125,3.6903,1.6718,0.873,-3.2784,1.273,0.8515,0.8247,755.0,-88.3,6.0,24.3,58.27,66.78,17.34,,36.772,,,,NaN,,,,0 / 0,909,2014-12-14 04:24:35:014
2.1575,-7.5217,0.9218,-1.0747,-9.1034,3.4848,3.2322,1.5817,-2.563,0.4178,0.6304,0.6451,755.0,-88.3,6.5,22.9,58.66,68.17,17.14,,36.772,,,,NaN,,,,0 / 0,959,2014-12-14 04:24:35:064
2.1575,-7.5217,0.9218,-1.0747,-9.1034,3.4848,3.2322,1.5817,-2.563,0.4178,0.6304,0.6451,755.0,-88.3,6.5,22.9,58.66,68.17,17.14,,36.772,,,,NaN,,,,0 / 0,1009,2014-12-14 04:24:35:114
2.0594,-9.4634,3.246,-0.5987,-9.31,3.0226,2.6581,-0.1534,0.2234,-0.1662,1.3109,0.7868,755.0,-88.3,8.2,25.3,58.78,68.58,16.36,,47.566,,,,NaN,,,,0 / 0,1060,2014-12-14 04:24:35:165
2.1869,-10.346,3.9717,-0.5358,-9.3335,2.9612,2.6735,-1.4084,1.2275,-0.1662,1.3109,0.7868,755.0,-88.3,8.2,25.3,58.78,68.58,16.36,,47.566,,,,NaN,,,,0 / 0,1110,2014-12-14 04:24:35:215
1.6279,-8.7279,1.2258,-0.321,-9.3257,3.0164,1.9489,0.5978,-1.7906,-0.1454,0.8589,0.5363,755.0,-88.7,9.1,29.2,63.35,72.26,8.17,,47.566,,,,NaN,,,,0 / 0,1160,2014-12-14 04:24:35:265
3.5402,-16.5929,-3.6873,-0.206,-9.4906,2.4608,3.7462,-7.1022,-6.1481,-0.5693,2.7941,0.3225,421.0,-88.7,10.8,33.1,63.03,71.98,6.07,,47.566,,,,NaN,,,,0 / 0,1209,2014-12-14 04:24:35:314
0.7159,-7.8257,-0.814,-0.3261,-9.7102,1.3327,1.1244,3.5617,-2.4178,-0.5693,2.7941,0.3225,421.0,-88.7,10.8,33.1,63.03,71.98,6.07,,47.566,,,,NaN,,,,0 / 0,1260,2014-12-14 04:24:35:365
-1.6083,-8.6004,-4.7366,-0.4176,-9.7385,1.0755,0.8197,3.7075,-3.537,-0.0342,1.5956,0.463,421.0,-87.9,12.6,38.0,44.97,83.24,21.22,,47.566,,,,NaN,,,,0 / 0,1309,2014-12-14 04:24:35:414
-2.4124,-10.2087,-0.9807,-1.0961,-9.7402,-0.3113,-1.3164,-0.4685,-0.6694,0.2883,1.4612,0.8821,421.0,-87.0,13.4,42.4,318.78,83.33,105.85,,47.566,,,,NaN,,,,0 / 0,1359,2014-12-14 04:24:35:464
2.334,-9.5517,-1.1768,-1.268,-9.7094,-0.5382,3.602,0.1577,-0.6386,0.1246,1.5968,0.6353,202.0,-86.1,14.3,44.3,310.52,81.93,113.0,,47.566,,,,NaN,,,,0 / 0,1409,2014-12-14 04:24:35:514
0.2157,-9.2673,-2.7949,-0.9165,-9.7308,-0.8012,3.602,0.1577,-0.6386,0.1246,1.5968,0.6353,202.0,-86.1,14.3,44.3,310.52,81.93,113.0,,54.64,,,,NaN,,,,0 / 0,1460,2014-12-14 04:24:35:565
0.0785,-9.5125,-2.9126,-0.8932,-9.7249,-0.894,0.9717,0.2124,-2.0185,0.0831,2.0488,0.6121,202.0,-86.1,14.7,48.2,286.76,82.6,135.03,,54.64,,,,NaN,,,,0 / 0,1510,2014-12-14 04:24:35:615
0.3825,-9.7968,-3.1087,-0.7593,-9.6723,-1.4284,1.1417,-0.1245,-1.6803,0.1784,1.372,0.4093,122.0,-85.7,15.6,51.2,268.87,80.51,152.01,,54.64,,,,NaN,,,,0 / 0,1560,2014-12-14 04:24:35:665
0.5492,-9.6399,-2.8047,-0.5609,-9.6337,-1.7456,1.11,-0.0062,-1.0591,-0.0183,1.8876,0.3091,122.0,-86.1,16.0,53.1,258.06,79.22,162.19,,54.64,,,,NaN,,,,0 / 0,1610,2014-12-14 04:24:35:715
0.8434,-10.1793,-2.1084,-0.4464,-9.6115,-1.8947,1.2898,-0.5678,-0.2137,-0.0171,2.1234,0.3482,122.0,-86.1,16.5,54.1,258.06,79.22,162.19,,54.64,,,,NaN,,,,0 / 0,1660,2014-12-14 04:24:35:765
-0.2059,-10.905,-1.1376,0.0398,-9.634,-1.8315,-0.2457,-1.271,0.694,0.4191,2.0427,0.2101,122.0,-87.4,16.9,56.0,237.96,79.23,-178.76,,54.64,,,,NaN,,,,0 / 0,1710,2014-12-14 04:24:35:815
-0.8336,-12.4741,0.3923,-0.0497,-9.7262,-1.2524,-0.7839,-2.7478,1.6447,0.9224,1.4844,0.2492,122.0,-87.4,17.8,56.5,237.96,79.23,-178.76,,54.64,,,,NaN,,,,0 / 0,1759,2014-12-14 04:24:35:864
-0.0392,-13.6607,2.2948,-0.1081,-9.7666,-0.8788,0.0689,-3.8941,3.1736,1.7397,1.482,0.3714,77.0,-87.4,19.9,54.1,246.2,84.82,172.99,,54.64,,,,NaN,,,,0 / 0,1809,2014-12-14 04:24:35:914
1.7162,-10.8363,-0.9905,-0.4254,-9.6403,1.7477,2.1416,-1.1961,-2.7382,3.2926,0.5852,1.3757,77.0,-85.3,24.3,42.9,47.99,79.43,13.68,,49.054,,,,NaN,,,,0 / 0,1860,2014-12-14 04:24:35:965
1.7162,-10.8363,-0.9905,-0.4254,-9.6403,1.7477,2.1416,-1.1961,-2.7382,3.2926,0.5852,1.3757,77.0,-85.3,24.3,42.9,47.99,79.43,13.68,,49.054,,,,NaN,,,,0 / 0,1910,2014-12-14 04:24:36:015
1.6867,-9.7086,-0.3923,-1.4412,-9.4159,2.3312,1.0067,-1.8997,-6.8065,2.595,0.9285,2.0244,77.0,-80.0,25.2,28.7,43.36,76.23,24.76,,49.054,,,,NaN,,,,0 / 0,1959,2014-12-14 04:24:36:064
1.9025,-8.9437,-0.5198,-1.4877,-9.372,2.4743,3.3902,0.4284,-2.994,2.5058,-0.1833,1.6799,0.0,-78.3,23.9,20.4,42.43,72.88,31.02,,49.054,,,,NaN,,,,0 / 0,2009,2014-12-14 04:24:36:114
1.5789,-6.5606,-2.1869,-1.5495,-9.2706,2.7974,3.1284,2.71,-4.9843,1.6982,-0.2737,1.4624,0.0,-77.9,22.1,12.1,49.76,70.97,28.98,,49.054,,,,NaN,,,,0 / 0,2060,2014-12-14 04:24:36:165
2.334,-6.1978,-1.5004,-1.6225,-9.2844,2.7089,3.9565,3.0866,-4.2093,0.9114,0.3311,1.2205,0.0,-78.3,20.4,7.8,50.99,71.22,30.92,,49.054,,,,NaN,,,,0 / 0,2110,2014-12-14 04:24:36:215
2.334,-6.1978,-1.5004,-1.6225,-9.2844,2.7089,3.9565,3.0866,-4.2093,0.9114,0.3311,1.2205,0.0,-78.3,20.4,7.8,50.99,71.22,30.92,,49.054,,,,NaN,,,,0 / 0,2159,2014-12-14 04:24:36:264
2.3144,-6.5508,-1.3435,-1.5956,-9.3081,2.6428,3.91,2.7572,-3.9863,0.6683,0.2578,1.1362,0.0,-79.2,20.4,7.8,50.93,71.65,31.12,,49.054,,,,NaN,,,,0 / 0,2209,2014-12-14 04:24:36:314
2.03,-8.3847,0.1961,-1.4237,-9.3956,2.4221,3.4537,1.0109,-2.226,0.2346,-0.0745,0.992,453.0,-79.6,20.4,7.8,51.75,73.35,30.45,,49.054,,,,NaN,,,,0 / 0,2260,2014-12-14 04:24:36:365
2.0398,-8.4141,0.559,-1.3584,-9.4266,2.3377,3.3982,1.0125,-1.7787,0.077,0.0525,0.9859,453.0,-80.5,20.8,8.2,51.75,73.35,30.45,,49.054,,,,NaN,,,,0 / 0,2310,2014-12-14 04:24:36:415
1.7456,-8.8554,4.4228,-0.5801,-9.4096,2.7006,2.3257,0.5542,1.7222,0.7966,0.7428,0.5241,453.0,-83.1,23.4,11.2,59.29,76.11,19.78,,49.054,,,,NaN,,,,0 / 0,2360,2014-12-14 04:24:36:465
2.6184,-14.0823,-9.2771,-0.3318,-9.5297,2.2904,2.9502,-4.5527,-11.5675,-0.8735,2.733,0.5925,142.0,-84.0,24.7,11.7,70.3,76.35,8.24,,60.275,,,,NaN,,,,0 / 0,2409,2014-12-14 04:24:36:514
1.6671,-12.4544,-9.8263,-0.3569,-9.6296,1.8206,2.0241,-2.8249,-11.6469,-1.2303,3.1887,0.8296,142.0,-84.4,25.6,14.1,70.3,76.35,8.24,,60.275,,,,NaN,,,,0 / 0,2459,2014-12-14 04:24:36:564
-2.6968,-5.7761,-5.7859,-0.3817,-9.7964,0.2333,-4.2275,0.6665,-6.4802,-0.4948,1.3317,0.0586,142.0,-84.4,27.3,18.5,34.84,85.44,42.34,,60.275,,,,NaN,,,,0 / 0,2509,2014-12-14 04:24:36:614
-5.2858,-11.4149,-5.7957,-0.4676,-9.7954,-0.0433,-4.8182,-1.6195,-5.7524,-0.7526,1.3207,0.7379,142.0,-84.8,27.8,19.9,341.72,87.26,95.3,,60.275,,,,NaN,,,,0 / 0,2559,2014-12-14 04:24:36:664
-2.9224,-11.3659,-3.5206,-0.9418,-9.7451,-0.5626,-1.9805,-1.6208,-2.958,0.0073,1.7764,1.0018,142.0,-84.0,28.2,20.9,341.72,87.26,95.3,,60.275,,,,NaN,,,,0 / 0,2610,2014-12-14 04:24:36:715
0.4315,-10.2381,-1.4612,-1.3001,-9.6711,-0.975,1.7316,-0.5671,-0.4862,-0.0391,2.2113,0.9737,142.0,-83.5,29.1,22.4,310.36,80.46,126.87,,60.275,,,,NaN,,,,0 / 0,2660,2014-12-14 04:24:36:765
3.0303,-9.2967,-0.0392,-1.2212,-9.666,-1.1172,4.2515,0.3693,1.0779,0.0061,1.5357,0.5803,142.0,-83.5,29.1,23.9,310.36,80.46,126.87,,60.275,,,,NaN,,,,0 / 0,2709,2014-12-14 04:24:36:814
3.0303,-9.2967,-0.0392,-1.2212,-9.666,-1.1172,4.2515,0.3693,1.0779,0.0061,1.5357,0.5803,142.0,-83.5,29.1,23.9,310.36,80.46,126.87,,60.275,,,,NaN,,,,0 / 0,2760,2014-12-14 04:24:36:865
0.8728,-9.5321,-2.1477,-0.9516,-9.6977,-1.1047,1.1674,-0.06,-1.5137,-0.0293,1.8338,0.4007,142.0,-83.5,29.5,24.3,297.02,81.45,139.26,,60.275,,,,NaN,,,,0 / 0,2810,2014-12-14 04:24:36:915
0.8728,-9.5321,-2.1477,-0.9516,-9.6977,-1.1047,1.1674,-0.06,-1.5137,-0.0293,1.8338,0.4007,142.0,-83.5,29.5,24.3,297.02,81.45,139.26,,60.275,,,,NaN,,,,0 / 0,2859,2014-12-14 04:24:36:964
-0.2157,-9.7674,-2.8832,-0.8299,-9.7056,-1.1329,0.6142,-0.0619,-1.7503,-0.0037,1.9438,0.4337,142.0,-84.0,29.9,26.3,291.45,81.77,143.77,,60.275,,,,NaN,,,,0 / 0,2909,2014-12-14 04:24:37:014
0.4805,-10.0714,-2.9322,-0.6801,-9.6523,-1.5938,1.1606,-0.4191,-1.3384,-0.1845,2.1038,0.2517,142.0,-86.6,31.3,31.2,276.82,79.82,156.89,,60.275,,,,NaN,,,,0 / 0,2960,2014-12-14 04:24:37:065
0.3334,-10.1989,-1.5985,-0.6047,-9.6444,-1.6704,0.9381,-0.5545,0.072,0.066,2.2797,0.2615,142.0,-87.9,31.7,34.1,276.82,79.82,156.89,,60.275,,,,NaN,,,,0 / 0,3009,2014-12-14 04:24:37:114
-1.0199,-11.0521,-0.5099,-0.2838,-9.6904,-1.4783,-0.7361,-1.3617,0.9683,0.722,1.6115,0.1918,146.0,-90.5,32.6,34.1,263.28,81.17,169.13,,60.275,,,,NaN,,,,0 / 0,3060,2014-12-14 04:24:37:165
-0.3923,-13.6214,3.5598,-0.4719,-9.791,0.2908,0.0797,-3.8305,3.2691,3.0165,1.653,0.7367,146.0,-93.1,33.4,25.8,263.28,81.17,169.13,,60.275,,,,NaN,,,,0 / 0,3111,2014-12-14 04:24:37:216
2.4615,-11.3071,0.6472,-0.7414,-9.5874,1.9243,3.2029,-1.7197,-1.2771,3.4135,1.6371,0.8858,146.0,-93.1,33.0,23.9,35.47,84.89,39.15,,60.275,,,,NaN,,,,0 / 0,3160,2014-12-14 04:24:37:265
2.8832,-12.8369,-5.2662,-1.9658,-9.2243,2.6868,3.5642,-1.8082,-3.5497,2.9749,0.518,1.8619,146.0,-91.4,29.9,11.2,60.35,73.41,19.01,,62.875,,,,NaN,,,,0 / 0,3210,2014-12-14 04:24:37:315
1.8142,-6.0017,-2.638,-1.9707,-9.0209,3.303,4.5401,1.2835,-5.5977,1.9572,-0.4924,1.5333,1061.0,-87.4,17.3,-10.3,63.52,66.91,30.82,,62.875,,,,NaN,,,,0 / 0,3260,2014-12-14 04:24:37:365
1.7162,-5.7467,-2.5105,-1.8603,-8.9464,3.5598,3.5765,3.1997,-6.0703,1.8265,-0.4667,1.4881,1061.0,-87.4,16.9,-10.8,63.52,66.91,30.82,,62.875,,,,NaN,,,,0 / 0,3310,2014-12-14 04:24:37:415
2.4713,-5.4917,-2.432,-1.729,-9.0208,3.436,4.2003,3.5291,-5.8681,1.0495,-0.2724,1.0727,1061.0,-90.0,15.2,-11.8,68.82,66.91,26.71,,62.875,,,,NaN,,,,0 / 0,3360,2014-12-14 04:24:37:465
2.9812,-6.6391,-1.2945,-1.3731,-9.2181,3.0514,4.3544,2.579,-4.3459,0.3738,-0.0183,0.865,1061.0,-92.2,15.2,-11.8,68.82,66.91,26.71,,62.875,,,,NaN,,,,0 / 0,3409,2014-12-14 04:24:37:514
1.9025,-9.8263,3.5696,-0.8958,-9.4908,2.3005,3.0194,-0.9075,1.7338,-0.2847,0.6329,0.92,1061.0,-93.5,16.0,-10.8,71.84,72.22,22.79,,62.875,,,,NaN,,,,0 / 0,3460,2014-12-14 04:24:37:565
2.4615,-11.0717,4.462,-0.7479,-9.5239,2.2152,3.2094,-1.5479,2.2468,-0.5632,1.5186,0.6255,1061.0,-92.2,19.1,-7.4,73.39,76.21,18.66,,62.875,,,,NaN,,,,0 / 0,3509,2014-12-14 04:24:37:614
1.7946,-12.1799,4.4032,-0.5541,-9.517,2.3001,3.2902,-2.4471,3.1524,-0.1405,0.9737,0.5302,1061.0,-92.2,19.5,-5.9,73.39,76.21,18.66,,62.875,,,,NaN,,,,0 / 0,3559,2014-12-14 04:24:37:664
2.8635,-15.5533,-5.2662,-0.0795,-9.3532,2.9465,3.2471,-2.4442,-0.3772,-0.0501,2.094,-0.2101,5293.0,-94.4,20.4,-4.9,87.77,72.51,1.55,,62.875,,,,NaN,,,,0 / 0,3609,2014-12-14 04:24:37:714
-0.8924,-7.5021,-3.5206,-0.1229,-9.7426,1.1126,-0.7695,2.2405,-4.6332,-0.8528,3.1313,0.92,5293.0,-90.9,23.4,0.0,82.1,83.45,6.3,,62.875,,,,NaN,,,,0 / 0,3659,2014-12-14 04:24:37:764
-0.7551,-5.3152,-2.942,-0.3144,-9.786,0.5527,-0.4407,4.4708,-3.4947,-0.5547,1.361,0.3848,5293.0,-92.2,25.2,3.9,82.1,83.45,6.3,,62.875,,,,NaN,,,,0 / 0,3710,2014-12-14 04:24:37:815
2.2065,-9.2281,-1.0983,-1.0302,-9.682,-1.1696,3.2367,0.4539,0.0712,-0.0354,1.6286,0.6353,5293.0,-89.6,27.8,7.8,332.65,86.31,114.67,,62.875,,,,NaN,,,,0 / 0,3760,2014-12-14 04:24:37:865
1.8142,-9.179,-1.8927,-0.9427,-9.6869,-1.2022,2.7569,0.5079,-0.6905,-0.0953,1.5577,0.5473,5293.0,-90.0,27.8,9.2,304.36,81.04,141.9,,60.866,,,,NaN,,,,0 / 0,3809,2014-12-14 04:24:37:914
0.1667,-10.0322,-2.2457,-0.54,-9.6271,-1.7883,0.7067,-0.4051,-0.4575,0.0159,1.8228,0.4264,3061.0,-90.0,29.5,12.6,304.36,81.04,141.9,,60.866,,,,NaN,,,,0 / 0,3859,2014-12-14 04:24:37:964
0.353,-10.0812,-2.9518,-0.2433,-9.5678,-2.1373,0.5964,-0.5134,-0.8145,-0.022,1.9401,0.336,3061.0,-90.5,30.8,16.0,273.64,78.12,170.16,,60.866,,,,NaN,,,,0 / 0,3910,2014-12-14 04:24:38:015
1.0787,-10.1205,-1.9515,0.1626,-9.5365,-2.28,-1.2326,-1.1868,0.9217,0.1649,2.3359,0.1894,3061.0,-91.8,32.1,19.5,258.54,76.52,-175.92,,60.866,,,,NaN,,,,0 / 0,3960,2014-12-14 04:24:38:065
-1.2454,-11.1011,-0.8041,0.3275,-9.5602,-2.1601,-1.573,-1.541,1.356,0.3299,2.1845,0.1686,3061.0,-91.4,32.6,20.4,258.54,76.52,-175.92,,60.866,,,,NaN,,,,0 / 0,4010,2014-12-14 04:24:38:115
-0.6865,-11.0129,0.2354,0.2987,-9.665,-1.6334,-1.5928,-1.5353,1.5022,0.4508,2.0806,0.16,231.0,-92.2,32.6,20.9,252.85,77.54,-171.09,,60.866,,,,NaN,,,,0 / 0,4060,2014-12-14 04:24:38:165
-1.9025,-15.8868,3.2068,0.2537,-9.7866,-0.5724,-2.1562,-6.1001,3.7792,2.6793,1.5773,0.3592,231.0,-94.0,32.6,17.5,236.36,86.34,-156.09,,60.866,,,,NaN,,,,0 / 0,4110,2014-12-14 04:24:38:215
-1.7652,-15.6416,3.1479,0.2002,-9.8023,-0.2133,-1.9654,-5.8393,3.3613,3.2046,1.6396,0.4985,231.0,-94.0,32.6,15.6,236.36,86.34,-156.09,,60.866,,,,NaN,,,,0 / 0,4160,2014-12-14 04:24:38:265
3.8442,-14.4452,-7.4432,-0.7579,-9.4339,2.5687,3.232,-3.736,-6.4073,3.1618,0.2028,1.9022,231.0,-90.5,26.0,-1.5,77.32,75.47,9.54,,60.866,,,,NaN,,,,0 / 0,4210,2014-12-14 04:24:38:315
1.726,-9.8165,-0.4903,-1.3938,-9.381,2.4949,3.3833,-0.5718,-3.3116,2.9089,-0.832,1.6823,231.0,-87.0,13.9,-15.2,74.96,74.15,16.44,,62.546,,,,NaN,,,,0 / 0,4260,2014-12-14 04:24:38:365
1.5593,-8.3062,-1.167,-1.6481,-9.133,3.1689,3.1715,1.5326,-4.9876,2.6903,-0.8234,1.6371,231.0,-88.3,10.8,-17.1,72.08,68.64,27.48,,62.546,,,,NaN,,,,0 / 0,4310,2014-12-14 04:24:38:415
1.4514,-5.8252,-2.638,-1.6852,-8.9782,3.5667,3.1366,3.4669,-5.989,1.6249,-0.5205,1.5162,231.0,-91.8,5.6,-21.0,72.08,68.64,27.48,,62.546,,,,NaN,,,,0 / 0,4359,2014-12-14 04:24:38:464
2.3144,-5.0995,-2.5693,-1.6717,-8.9883,3.5477,3.1525,3.5652,-5.6954,1.3415,-0.628,1.3903,231.0,-92.7,4.7,-20.5,76.79,66.43,25.23,,62.546,,,,NaN,,,,0 / 0,4409,2014-12-14 04:24:38:514
3.5402,-7.1196,-1.4122,-1.1266,-9.3199,2.8356,4.6668,2.2003,-4.2478,-0.0415,0.1417,1.1142,231.0,-99.6,3.9,-19.1,78.93,71.87,21.67,,62.546,,,,NaN,,,,0 / 0,4460,2014-12-14 04:24:38:565
2.2555,-11.5915,5.1093,-0.6,-9.5468,2.1606,2.8555,-2.0446,2.9486,-0.3763,1.0592,0.5412,231.0,-100.5,7.3,-16.6,83.39,76.78,15.52,,62.546,,,,NaN,,,,0 / 0,4509,2014-12-14 04:24:38:614
2.5693,-12.9252,3.6677,-0.2622,-9.4819,2.4891,2.8316,-3.4433,1.1786,0.3421,0.4129,0.6353,231.0,-103.5,7.8,-13.7,90.54,75.21,6.01,,62.546,,,,NaN,,,,0 / 0,4560,2014-12-14 04:24:38:665
3.197,-8.1689,3.9913,-0.106,-9.4287,2.6943,3.3029,1.2597,1.297,0.3421,0.4129,0.6353,231.0,-103.5,7.8,-13.7,90.54,75.21,6.01,,62.546,,,,NaN,,,,0 / 0,4610,2014-12-14 04:24:38:715
3.7069,-16.3477,-8.2376,0.176,-9.5388,2.2695,3.5309,-6.8089,-10.5071,-1.3952,3.1704,0.3176,231.0,-104.0,7.3,-11.8,94.31,73.6,0.92,,62.506,,,,NaN,,,,0 / 0,4660,2014-12-14 04:24:38:765
2.1477,-15.063,-7.3942,0.1733,-9.6466,1.7558,1.9743,-5.4164,-9.15,-1.7801,3.4098,0.6512,51.0,-100.5,10.4,-8.3,99.03,79.64,-5.64,,62.506,,,,NaN,,,,0 / 0,4710,2014-12-14 04:24:38:815
-0.4805,-6.1193,-2.2555,-0.1455,-9.7898,0.5555,-0.335,3.6705,-2.811,0.3885,1.6371,0.3592,51.0,-100.5,9.9,-7.9,99.03,79.64,-5.64,,62.506,,,,NaN,,,,0 / 0,4759,2014-12-14 04:24:38:864
-0.4805,-6.1193,-2.2555,-0.1455,-9.7898,0.5555,-0.335,3.6705,-2.811,0.3885,1.6371,0.3592,51.0,-100.5,9.9,-7.9,99.03,79.64,-5.64,,62.506,,,,NaN,,,,0 / 0,4809,2014-12-14 04:24:38:914
-2.1378,-10.65,-4.3149,-0.4591,-9.784,-0.4823,-1.6788,-0.866,-3.8326,-0.0745,1.7715,0.9175,51.0,-101.8,11.3,-5.4,316.61,86.11,136.42,,62.506,,,,NaN,,,,0 / 0,4860,2014-12-14 04:24:38:965
1.5789,-9.5517,-1.4612,-0.5321,-9.7082,-1.2802,2.1109,0.1565,-0.181,-0.1686,1.813,0.5034,34.0,-100.5,13.0,-2.0,294.46,81.87,157.43,,62.506,,,,NaN,,,,0 / 0,4910,2014-12-14 04:24:39:015
0.7845,-9.6301,-2.7262,-0.3047,-9.6804,-1.5385,1.0893,0.0503,-1.1877,0.0941,1.8485,0.4594,34.0,-100.5,13.9,0.4,282.32,80.8,168.8,,62.506,,,,NaN,,,,0 / 0,4959,2014-12-14 04:24:39:064
0.5198,-10.1401,-2.8439,0.1011,-9.5986,-2.007,0.4187,-0.5415,-0.837,-0.1466,2.2614,0.2944,34.0,-100.0,14.7,2.9,267.25,78.18,-177.12,,62.506,,,,NaN,,,,0 / 0,5099,2014-12-14 04:24:39:204
0.5198,-10.1401,-2.8439,0.1011,-9.5986,-2.007,0.4187,-0.5415,-0.837,-0.1466,2.2614,0.2944,34.0,-100.0,14.7,2.9,267.25,78.18,-177.12,,62.506,,,,NaN,,,,0 / 0,5103,2014-12-14 04:24:39:208
0.5198,-10.1401,-2.8439,0.1011,-9.5986,-2.007,0.4187,-0.5415,-0.837,-0.1466,2.2614,0.2944,34.0,-100.0,14.7,2.9,267.25,78.18,-177.12,,62.506,,,,NaN,,,,0 / 0,5109,2014-12-14 04:24:39:214
-1.2945,-10.954,-1.2749,0.4832,-9.5751,-2.0624,-1.7776,-1.3789,0.7876,0.2456,1.9645,0.0843,34.0,-100.9,15.6,5.8,262.4,77.17,-172.56,,62.516,,,,NaN,,,,0 / 0,5159,2014-12-14 04:24:39:264
-1.3533,-10.8658,-1.1278,0.5028,-9.583,-2.0207,-1.8561,-1.2828,0.893,0.3421,1.8607,0.055,34.0,-101.4,15.2,6.8,254.18,77.74,-166.03,,62.516,,,,NaN,,,,0 / 0,5209,2014-12-14 04:24:39:314
-0.3825,-14.4452,2.1378,0.3148,-9.7968,-0.3079,-0.6973,-4.6484,2.4458,0.8577,1.4856,0.1356,34.0,-104.0,14.3,8.2,254.18,77.74,-166.03,,62.516,,,,NaN,,,,0 / 0,5259,2014-12-14 04:24:39:364
3.2852,-11.6699,-1.7554,-0.0991,-9.6797,1.57,3.3844,-1.9903,-3.3254,3.1215,0.2456,1.6225,25.0,-108.3,7.8,4.3,164.45,88.6,-78.77,,62.516,,,,NaN,,,,0 / 0,5309,2014-12-14 04:24:39:414
3.2852,-11.6699,-1.7554,-0.0991,-9.6797,1.57,3.3844,-1.9903,-3.3254,3.1215,0.2456,1.6225,25.0,-108.3,7.8,4.3,164.45,88.6,-78.77,,62.516,,,,NaN,,,,0 / 0,5359,2014-12-14 04:24:39:464
0.8336,-12.4446,-6.3547,-0.3788,-9.5755,2.0827,3.2227,-2.8986,-8.6433,2.6658,0.8247,2.1906,25.0,-107.4,6.0,2.4,78.2,77.53,10.31,,62.516,,,,NaN,,,,0 / 0,5409,2014-12-14 04:24:39:514
1.9123,-8.6102,-1.5691,-1.1146,-9.3776,2.6438,3.0269,0.7673,-4.2128,2.6634,-0.7648,1.8057,25.0,-107.9,5.2,1.4,66.81,72.99,22.86,,62.516,,,,NaN,,,,0 / 0,5460,2014-12-14 04:24:39:565
1.8829,-7.0608,-3.0106,-1.2953,-9.2386,3.0233,3.1782,2.1778,-6.0339,1.9499,-0.7257,1.6909,25.0,-108.7,5.6,0.9,66.54,70.4,23.19,,62.516,,,,NaN,,,,0 / 0,5510,2014-12-14 04:24:39:615
1.8927,-6.8745,-2.7753,-1.3156,-9.2324,3.0335,3.2083,2.3579,-5.8088,1.813,-0.8027,1.5479,55.0,-109.2,5.6,0.9,66.54,70.4,23.19,,60.05,,,,NaN,,,,0 / 0,5560,2014-12-14 04:24:39:665
2.0986,-6.3939,-1.0689,-1.1989,-9.3119,2.8322,3.2975,2.918,-3.9012,0.6915,-0.1747,1.1936,55.0,-112.2,7.8,3.4,66.25,70.55,23.33,,60.05,,,,NaN,,,,0 / 0,5610,2014-12-14 04:24:39:715
1.7946,-7.8453,-0.0196,-1.1249,-9.3841,2.6161,2.9195,1.5388,-2.6357,0.3763,0.0354,1.2743,55.0,-112.2,9.1,3.4,64.93,73.12,23.27,,60.05,,,,NaN,,,,0 / 0,5660,2014-12-14 04:24:39:765
1.3141,-8.3651,0.6865,-1.0983,-9.425,2.4767,2.4124,1.0599,-1.7902,0.2431,0.4435,1.2999,55.0,-112.7,10.4,5.3,64.93,73.12,23.27,,60.05,,,,NaN,,,,0 / 0,5710,2014-12-14 04:24:39:815
1.6769,-10.9638,4.1188,-0.8436,-9.4407,2.5163,2.5205,-1.5231,1.6025,0.2053,0.0379,0.6133,38.0,-113.1,15.6,8.7,65.68,74.3,18.53,,60.05,,,,NaN,,,,0 / 0,5760,2014-12-14 04:24:39:865
4.5601,-8.9927,2.6478,-0.2977,-9.3561,2.9233,4.8578,0.3634,-0.2755,-0.1038,1.9254,0.171,38.0,-115.3,18.6,11.2,76.48,72.56,5.81,,60.05,,,,NaN,,,,0 / 0,5810,2014-12-14 04:24:39:915
0.8728,-10.7775,-9.1202,0.2596,-9.5284,2.305,0.6132,-1.2491,-11.4252,-1.0458,3.3964,0.981,38.0,-115.3,20.8,13.1,76.48,72.56,5.81,,60.05,,,,NaN,,,,0 / 0,5860,2014-12-14 04:24:39:965
0.7453,-4.1874,-3.1577,-0.0441,-9.731,1.2151,0.7894,5.5435,-4.3728,0.0452,2.8601,0.7208,38.0,-113.1,22.1,13.6,79.58,82.88,2.08,,60.05,,,,NaN,,,,0 / 0,5910,2014-12-14 04:24:40:015
-4.7366,-9.3359,-5.2171,-0.1974,-9.8025,0.2043,-4.5393,0.4666,-5.4214,-1.0666,1.2694,0.4313,25.0,-114.0,23.9,16.5,37.31,88.34,44.01,,60.05,,,,NaN,,,,0 / 0,5959,2014-12-14 04:24:40:064
0.608,-10.0812,-1.216,-1.0464,-9.721,-0.7606,1.6544,-0.3603,-0.4554,0.0134,2.0794,0.8173,25.0,-113.5,25.6,18.5,315.4,82.42,126.01,,60.05,,,,NaN,,,,0 / 0,6009,2014-12-14 04:24:40:114
1.6377,-9.0025,-0.1177,-0.8246,-9.7343,-0.8566,2.4624,0.7318,0.739,-0.0024,1.5907,0.4655,25.0,-113.1,26.9,19.5,305.02,83.04,136.09,,63.546,,,,NaN,,,,0 / 0,6060,2014-12-14 04:24:40:165
-1.4612,-9.3065,-2.3144,-0.8002,-9.7189,-1.0362,-0.661,0.4124,-1.2781,0.1527,2.4569,0.7978,25.0,-112.2,27.8,20.4,305.02,83.04,136.09,,63.546,,,,NaN,,,,0 / 0,6110,2014-12-14 04:24:40:215
-0.8041,-9.3457,-2.0398,-0.8746,-9.7046,-1.1072,0.0704,0.3589,-0.9325,0.2211,2.3042,0.7844,18.0,-111.8,28.2,20.4,299.7,81.73,141.7,,63.546,,,,NaN,,,,0 / 0,6160,2014-12-14 04:24:40:265
0.1079,-9.4536,-2.6576,-0.8201,-9.6846,-1.3066,0.928,0.2309,-1.351,0.3213,1.697,0.4557,18.0,-111.3,29.5,19.9,299.7,81.73,141.7,,63.546,,,,NaN,,,,0 / 0,6210,2014-12-14 04:24:40:315
1.1376,-9.4536,-2.8145,-0.505,-9.6596,-1.6147,1.6426,0.206,-1.1998,0.1772,1.9157,0.2908,18.0,-111.8,30.8,21.9,278.82,80.07,162.63,,63.546,,,,NaN,,,,0 / 0,6260,2014-12-14 04:24:40:365
0.0686,-9.5713,-3.246,-0.0941,-9.6228,-1.8878,0.1627,0.0515,-1.3582,0.1637,2.0867,0.1478,18.0,-112.7,31.3,21.9,278.82,80.07,162.63,,63.546,,,,NaN,,,,0 / 0,6310,2014-12-14 04:24:40:415
-1.0395,-10.2774,-2.8733,0.0874,-9.586,-2.0665,-1.1269,-0.6913,-0.8069,0.1833,1.9413,0.1124,18.0,-113.5,31.7,22.4,260.17,77.82,-177.58,,63.546,,,,NaN,,,,0 / 0,6360,2014-12-14 04:24:40:465
0.3432,-10.4245,-1.9515,0.1189,-9.5815,-2.0861,0.2244,-0.843,0.1346,0.3861,1.9988,0.2443,18.0,-114.8,32.6,23.9,260.17,77.82,-177.58,,63.546,,,,NaN,,,,0 / 0,6409,2014-12-14 04:24:40:514
0.3923,-13.8568,0.1373,0.335,-9.6438,-1.7482,-0.9037,-5.5369,-0.8113,0.887,2.3689,0.1735,15.0,-115.3,33.0,21.4,251.92,79.54,-169.15,,63.546,,,,NaN,,,,0 / 0,6460,2014-12-14 04:24:40:565
2.1575,-14.0823,2.7655,0.1545,-9.7622,-0.9197,2.0029,-4.3201,3.6852,2.1539,1.7202,0.9847,15.0,-113.5,32.6,16.5,253.49,84.54,-170.46,,63.546,,,,NaN,,,,0 / 0,6509,2014-12-14 04:24:40:614
3.0597,-9.787,-3.0303,0.111,-9.749,1.0556,2.9486,-0.038,-4.0858,2.8967,0.9077,0.9505,15.0,-113.5,32.6,16.5,253.49,84.54,-170.46,,51.98,,,,NaN,,,,0 / 0,6559,2014-12-14 04:24:40:664
3.0597,-9.787,-3.0303,0.111,-9.749,1.0556,2.9486,-0.038,-4.0858,2.8967,0.9077,0.9505,15.0,-111.8,29.9,6.8,90.76,83.79,-6.0,,51.98,,,,NaN,,,,0 / 0,6610,2014-12-14 04:24:40:715
3.3048,-8.7966,-2.4517,-0.1858,-9.6571,1.6958,3.4907,0.8606,-4.1474,2.1307,0.6353,1.3268,15.0,-110.0,27.3,0.0,92.76,81.29,-4.94,,51.98,,,,NaN,,,,0 / 0,6659,2014-12-14 04:24:40:764
3.4127,-8.4043,-2.7262,-0.2033,-9.6491,1.739,3.616,1.2448,-4.4653,1.9499,0.3274,1.4868,15.0,-107.9,24.7,-4.9,83.7,79.72,6.67,,51.98,,,,NaN,,,,0 / 0,6709,2014-12-14 04:24:40:814
3.1283,-7.7473,-3.7069,-0.2236,-9.6446,1.7613,3.352,1.8973,-5.4682,1.6811,0.2334,1.3512,23.0,-107.0,23.4,-7.9,83.7,79.72,6.67,,51.98,,,,NaN,,,,0 / 0,6760,2014-12-14 04:24:40:865
3.1577,-7.2079,-3.3441,-0.2102,-9.6617,1.6669,3.368,2.4538,-5.011,1.4795,0.4704,1.2132,23.0,-107.0,23.0,-8.3,85.03,80.14,7.19,,51.98,,,,NaN,,,,0 / 0,6810,2014-12-14 04:24:40:915
2.9812,-7.6884,-1.5396,-0.0369,-9.7133,1.3492,3.0182,2.0249,-2.8888,0.755,0.7318,0.7477,23.0,-107.0,22.1,-9.8,92.12,82.09,1.57,,51.98,,,,NaN,,,,0 / 0,6859,2014-12-14 04:24:40:964
1.5298,-9.6988,0.1569,0.3132,-9.7357,1.1348,1.2166,0.037,-0.9779,0.4936,0.5498,0.8173,23.0,-109.2,23.0,-7.4,107.59,83.11,-15.43,,51.98,,,,NaN,,,,0 / 0,6909,2014-12-14 04:24:41:014
3.5402,-9.1006,-2.4909,0.2405,-9.7468,1.055,3.2997,0.6462,-3.5459,0.5779,1.2682,0.7404,23.0,-109.2,23.9,-7.4,107.59,83.11,-15.43,,51.98,,,,NaN,,,,0 / 0,6960,2014-12-14 04:24:41:065
3.6579,-10.4735,-1.1376,0.4556,-9.764,0.7919,3.2023,-0.7095,-1.9294,0.5363,0.9872,0.5681,23.0,-108.3,24.7,-6.9,105.04,83.67,-12.84,,51.98,,,,NaN,,,,0 / 0,7010,2014-12-14 04:24:41:115
1.824,-11.7582,-0.1961,0.7329,-9.7454,0.813,1.0912,-2.0128,-1.0092,0.672,1.0238,0.5107,23.0,-108.7,24.7,-6.9,122.44,84.65,-29.91,,51.98,,,,NaN,,,,0 / 0,7060,2014-12-14 04:24:41:165
1.6377,-11.3169,-0.1863,0.7303,-9.7428,0.8453,0.9074,-1.5741,-1.0317,0.6548,1.0751,0.5327,23.0,-110.0,24.7,-5.9,132.67,83.46,-40.82,,56.976,,,,NaN,,,,0 / 0,7110,2014-12-14 04:24:41:215
-0.7551,-10.5618,0.8238,0.2164,-9.7444,1.0819,0.9074,-1.5741,-1.0317,0.6548,1.0751,0.5327,23.0,-110.0,24.7,-5.9,132.67,83.46,-40.82,,56.976,,,,NaN,,,,0 / 0,7160,2014-12-14 04:24:41:265
0.4315,-9.7772,0.5786,0.0383,-9.7309,1.216,0.0303,-0.5759,-0.3923,0.981,0.5143,0.7819,23.0,-110.9,25.6,-4.9,92.69,82.87,-1.81,,56.976,,,,NaN,,,,0 / 0,7210,2014-12-14 04:24:41:315
1.7946,-10.3264,1.6573,-0.2047,-9.6804,1.5553,1.9993,-0.646,0.102,0.7465,0.639,0.7538,23.0,-111.8,25.6,-4.0,82.51,80.8,7.5,,56.976,,,,NaN,,,,0 / 0,7260,2014-12-14 04:24:41:365
1.52,-9.8066,0.6276,-0.2186,-9.6487,1.7393,1.7387,-0.158,-1.1117,0.6976,1.3635,0.7587,23.0,-111.8,26.0,-4.0,82.61,79.7,7.16,,56.976,,,,NaN,,,,0 / 0,7309,2014-12-14 04:24:41:414
0.3727,-9.8655,0.9512,-0.3897,-9.6145,1.8921,0.7623,-0.251,-0.9408,0.8784,1.3439,0.8674,23.0,-110.9,25.6,-4.0,78.02,78.64,11.64,,56.976,,,,NaN,,,,0 / 0,7359,2014-12-14 04:24:41:464
-0.2648,-9.8263,0.8924,-0.5673,-9.5892,1.974,0.3025,-0.2371,-1.0815,0.8662,1.306,0.887,23.0,-110.9,25.2,-4.4,78.02,78.64,11.64,,56.976,,,,NaN,,,,0 / 0,7410,2014-12-14 04:24:41:515
-0.3825,-9.8557,0.7747,-0.6333,-9.5826,1.9859,0.2508,-0.2731,-1.2112,0.8161,1.3146,0.8833,27.0,-110.5,25.2,-4.0,72.1,77.73,17.69,,56.976,,,,NaN,,,,0 / 0,7459,2014-12-14 04:24:41:564
0.2256,-9.9538,0.6669,-1.0447,-9.5518,1.9599,1.2703,-0.4019,-1.293,0.7514,0.9872,0.6903,27.0,-110.0,25.6,-4.0,61.89,76.91,28.06,,56.976,,,,NaN,,,,0 / 0,7510,2014-12-14 04:24:41:615
0.4315,-9.9538,0.6669,-1.0715,-9.5508,1.9504,1.503,-0.4029,-1.2836,0.7367,0.9835,0.6695,27.0,-110.5,25.6,-3.5,61.89,76.91,28.06,,56.976,,,,NaN,,,,0 / 0,7559,2014-12-14 04:24:41:664
0.5688,-9.7576,0.5296,-1.1095,-9.5702,1.8303,1.5216,-0.3012,-1.3698,0.6439,1.4355,0.7037,27.0,-110.0,26.0,-4.0,59.88,77.11,30.18,,50.172,,,,NaN,,,,0 / 0,7609,2014-12-14 04:24:41:714
0.1569,-9.9243,0.3727,-1.1914,-9.5818,1.7147,1.2993,-0.4112,-1.2734,0.628,1.504,0.6597,27.0,-109.6,26.5,-3.5,54.91,77.71,34.79,,50.172,,,,NaN,,,,0 / 0,7659,2014-12-14 04:24:41:764
0.1373,-9.9243,0.8336,-1.2753,-9.5837,1.6425,1.4125,-0.3407,-0.8089,0.6976,1.3867,0.6622,27.0,-109.6,26.9,-3.5,51.99,77.76,37.83,,50.172,,,,NaN,,,,0 / 0,7710,2014-12-14 04:24:41:815
0.1373,-9.9243,0.8336,-1.2753,-9.5837,1.6425,1.4125,-0.3407,-0.8089,0.6976,1.3867,0.6622,27.0,-109.6,26.9,-3.5,51.99,77.76,37.83,,50.172,,,,NaN,,,,0 / 0,7759,2014-12-14 04:24:41:864
0.2354,-9.8949,0.4413,-1.417,-9.5619,1.6532,1.6524,-0.333,-1.2119,0.7966,1.3647,0.6671,27.0,-109.2,26.5,-4.0,50.91,77.33,39.43,,50.172,,,,NaN,,,,0 / 0,7809,2014-12-14 04:24:41:914
0.1961,-9.8851,0.3825,-1.433,-9.5635,1.6296,1.7053,-0.4877,-1.1502,0.7086,1.1777,0.6634,27.0,-108.7,26.5,-3.5,48.58,77.22,41.33,,50.172,,,,NaN,,,,0 / 0,7860,2014-12-14 04:24:41:965
0.1961,-10.0126,0.4707,-1.4589,-9.5631,1.609,1.7433,-0.4495,-1.1383,0.8344,1.2046,0.6475,27.0,-108.7,26.5,-3.5,47.74,77.2,42.2,,50.172,,,,NaN,,,,0 / 0,7910,2014-12-14 04:24:42:015
0.353,-9.9243,0.5001,-1.4648,-9.5622,1.6093,1.8178,-0.3622,-1.1091,0.8613,1.2828,0.6475,27.0,-108.7,26.5,-4.0,47.74,77.2,42.2,,50.172,,,,NaN,,,,0 / 0,7960,2014-12-14 04:24:42:065
0.5982,-9.9047,0.1079,-1.4741,-9.5662,1.5765,2.1508,-0.4268,-1.4196,0.7294,1.2767,0.6658,27.0,-109.2,26.9,-4.0,47.4,77.29,43.08,,50.172,,,,NaN,,,,0 / 0,8009,2014-12-14 04:24:42:114
0.4217,-9.9832,0.5296,-1.443,-9.5801,1.5196,1.8647,-0.403,-0.9901,0.7563,1.1387,0.6585,27.0,-108.3,26.5,-4.4,47.01,77.66,43.52,,50.172,,,,NaN,,,,0 / 0,8059,2014-12-14 04:24:42:164
0.2942,-9.9341,0.2648,-1.4459,-9.5842,1.4909,1.7401,-0.3499,-1.2261,0.7257,1.223,0.6634,27.0,-109.2,26.5,-4.0,47.01,77.66,43.52,,50.172,,,,NaN,,,,0 / 0,8109,2014-12-14 04:24:42:214
0.3138,-9.9538,0.5198,-1.454,-9.5878,1.4598,1.7679,-0.366,-0.9401,0.7624,1.1802,0.6634,27.0,-108.7,26.9,-4.0,45.7,77.87,44.89,,50.172,,,,NaN,,,,0 / 0,8160,2014-12-14 04:24:42:265