ACCELEROMETER X (m/s²),ACCELEROMETER Y (m/s²),ACCELEROMETER Z (m/s²),GRAVITY X (m/s²),GRAVITY Y (m/s²),GRAVITY Z (m/s²),LINEAR ACCELERATION X (m/s²),LINEAR ACCELERATION Y (m/s²),LINEAR ACCELERATION Z (m/s²),GYROSCOPE X (rad/s),GYROSCOPE Y (rad/s),GYROSCOPE Z (rad/s),LIGHT (lux),MAGNETIC FIELD X (μT),MAGNETIC FIELD Y (μT),MAGNETIC FIELD Z (μT),ORIENTATION X (°),ORIENTATION Y (°),ORIENTATION Z (°),PROXIMITY (i),SOUND LEVEL (dB),LOCATION Latitude : ,LOCATION Longitude : ,LOCATION Altitude ( m),LOCATION Altitude-google ( m),LOCATION Speed ( Kmh),LOCATION Accuracy ( m),LOCATION ORIENTATION (°),Satellites in range,Time since start in ms ,YYYY-MO-DD HH-MI-SS_SSS
-0.0294,-10.0126,-0.2354,0.5078,-9.7841,-0.4278,-0.5666,-0.1696,0.2121,-0.0024,-0.6976,-0.0195,242.0,-86.6,29.1,82.9,176.4,86.12,-130.12,,59.573,,,,NaN,,,,0 / 0,7,2014-12-14 04:26:09:301
0.0392,-9.9145,-0.1569,0.5072,-9.783,-0.4538,-0.468,-0.1315,0.2969,-0.0024,-0.7147,-0.0098,242.0,-86.6,28.6,83.4,176.4,86.12,-130.12,,59.573,,,,NaN,,,,0 / 0,58,2014-12-14 04:26:09:352
0.0588,-9.9734,-0.0196,0.5161,-9.7821,-0.4637,-0.4572,-0.1913,0.4441,-0.0012,-0.7404,-0.0208,242.0,-86.1,29.1,83.4,177.92,85.94,-131.94,,46.742,,,,NaN,,,,0 / 0,108,2014-12-14 04:26:09:402
0.0,-10.0518,-0.0588,0.5276,-9.7817,-0.4582,-0.5276,-0.2701,0.3993,0.0049,-0.7269,-0.0183,242.0,-86.1,29.1,83.4,176.93,85.91,-130.97,,46.742,,,,NaN,,,,0 / 0,158,2014-12-14 04:26:09:452
0.049,-9.9832,-0.0981,0.5329,-9.782,-0.4457,-0.4839,-0.2012,0.3476,0.0354,-0.7391,-0.0012,242.0,-86.1,28.6,82.4,176.93,85.91,-130.97,,46.742,,,,NaN,,,,0 / 0,208,2014-12-14 04:26:09:502
0.0392,-9.9734,-0.0981,0.5368,-9.7819,-0.4431,-0.5172,-0.1522,0.3254,0.0293,-0.7282,-0.0024,242.0,-86.1,28.6,83.4,175.47,85.93,-129.54,,46.742,,,,NaN,,,,0 / 0,258,2014-12-14 04:26:09:552
-0.049,-10.0028,-0.0588,0.5407,-9.7814,-0.4488,-0.5701,-0.2115,0.3605,0.0244,-0.7282,-0.0195,242.0,-86.1,28.6,83.4,175.47,85.93,-129.54,,46.742,,,,NaN,,,,0 / 0,307,2014-12-14 04:26:09:601
0.2256,-9.9243,-0.0098,0.5363,-9.7828,-0.4235,-0.448,-0.2102,0.3549,0.0574,-0.7147,-0.011,242.0,-86.1,28.6,82.9,174.21,86.0,-128.3,,46.742,,,,NaN,,,,0 / 0,357,2014-12-14 04:26:09:651
0.2648,-9.9538,0.0686,0.5764,-9.7813,-0.4057,-0.3116,-0.1725,0.4744,0.0342,-0.7294,-0.0318,242.0,-85.7,28.6,82.4,171.33,85.88,-125.14,,46.742,,,,NaN,,,,0 / 0,407,2014-12-14 04:26:09:701
-0.0785,-9.9439,0.0294,0.6567,-9.7766,-0.3973,-0.7352,-0.1674,0.4268,-0.0305,-0.5571,-0.0574,242.0,-87.0,28.6,83.9,166.9,85.51,-121.18,,46.742,,,,NaN,,,,0 / 0,458,2014-12-14 04:26:09:752
0.0392,-10.0714,0.4707,0.7158,-9.7717,-0.414,-0.6766,-0.2997,0.8847,-0.1881,-0.3873,-0.1637,242.0,-87.9,28.2,84.3,166.9,85.51,-121.18,,46.742,,,,NaN,,,,0 / 0,508,2014-12-14 04:26:09:802
-0.3825,-10.1597,0.6374,0.7563,-9.7685,-0.4181,-1.1388,-0.3912,1.0555,-0.2028,-0.3274,-0.1894,242.0,-88.3,28.2,84.3,164.9,84.94,-118.93,,46.742,,,,NaN,,,,0 / 0,557,2014-12-14 04:26:09:851
-1.1278,-10.091,0.608,0.7351,-9.7719,-0.3741,-1.8629,-0.2113,0.9036,-0.0513,-0.5253,-0.1759,242.0,-89.2,28.2,84.8,164.9,84.94,-118.93,,46.742,,,,NaN,,,,0 / 0,608,2014-12-14 04:26:09:902
-0.8728,-9.9538,0.7845,0.64,-9.781,-0.3061,-1.5128,-0.1728,1.0906,-0.0098,-0.6842,-0.1979,242.0,-90.0,28.2,85.3,161.86,85.85,-115.56,,36.74,,,,NaN,,,,0 / 0,657,2014-12-14 04:26:09:951
-0.8434,-10.3264,1.5102,0.6103,-9.7861,-0.1721,-1.73,-0.4022,1.6136,-0.0452,-0.7147,-0.2285,242.0,-89.6,28.2,85.3,161.86,85.85,-115.56,,36.74,,,,NaN,,,,0 / 0,712,2014-12-14 04:26:10:006
-1.0493,-9.8753,1.0983,0.4996,-9.7922,0.1834,-1.2646,-0.3381,0.915,0.4826,-1.4551,-0.0367,204.0,-88.7,29.5,82.9,125.27,86.72,-78.96,,36.74,,,,NaN,,,,0 / 0,764,2014-12-14 04:26:10:058
0.4315,-12.6898,1.2553,0.4219,-9.7862,0.4716,0.0095,-2.9036,0.7836,0.65,-1.7006,0.1014,204.0,-86.6,30.4,80.4,88.28,86.3,-41.82,,36.74,,,,NaN,,,,0 / 0,808,2014-12-14 04:26:10:102
0.353,-12.8761,0.8238,0.4919,-9.7693,0.6994,-0.1388,-3.1068,0.1243,0.65,-1.7006,0.1014,204.0,-86.6,30.4,80.4,88.28,86.3,-41.82,,36.74,,,,NaN,,,,0 / 0,858,2014-12-14 04:26:10:152
2.1575,-9.6105,0.8924,0.5661,-9.7408,0.9834,1.1501,-0.8602,-0.042,1.2523,-1.6469,0.0684,204.0,-84.8,32.1,76.0,77.26,83.98,-31.01,,36.74,,,,NaN,,,,0 / 0,907,2014-12-14 04:26:10:201
2.0104,-8.7279,1.3435,0.8622,-9.6794,1.3176,1.1482,0.9515,0.026,1.0385,-1.3488,0.0586,396.0,-82.7,33.4,71.2,80.01,80.76,-33.2,,36.74,,,,NaN,,,,0 / 0,958,2014-12-14 04:26:10:252
-0.2157,-8.3258,0.608,1.2448,-9.6011,1.5619,-1.4605,1.2753,-0.9539,0.5376,-0.6329,0.1112,396.0,-81.8,34.7,65.8,80.01,80.76,-33.2,,36.74,,,,NaN,,,,0 / 0,1007,2014-12-14 04:26:10:301
-0.3334,-7.8355,1.5004,1.1739,-9.6138,1.5383,-1.5073,1.7783,-0.0379,0.1405,-0.8528,0.1283,396.0,-80.9,35.6,64.8,85.78,78.34,-38.56,,36.74,,,,NaN,,,,0 / 0,1057,2014-12-14 04:26:10:351
0.5786,-8.267,1.6671,1.1298,-9.6214,1.5243,-0.5512,1.3543,0.1428,-0.0855,-0.9224,0.1381,396.0,-80.9,35.6,63.9,84.42,78.84,-36.55,,36.74,,,,NaN,,,,0 / 0,1108,2014-12-14 04:26:10:402
1.3925,-8.7181,2.1084,1.2482,-9.6214,1.4285,0.1444,0.9033,0.6799,-0.2651,-1.2327,0.0672,600.0,-79.6,35.2,63.4,84.42,78.84,-36.55,,36.74,,,,NaN,,,,0 / 0,1157,2014-12-14 04:26:10:451
1.1278,-8.7671,2.4026,1.3437,-9.6159,1.3782,-0.0234,0.9686,0.8102,-0.292,-1.1997,0.066,600.0,-79.2,35.2,63.9,89.78,78.75,-42.72,,48.841,,,,NaN,,,,0 / 0,1207,2014-12-14 04:26:10:501
1.3533,-10.6598,2.5007,1.5179,-9.6066,1.2565,-0.2398,0.3861,1.2517,-0.4606,-1.1203,0.0819,600.0,-78.3,34.7,64.3,89.78,78.75,-42.72,,48.841,,,,NaN,,,,0 / 0,1257,2014-12-14 04:26:10:551
1.3925,-10.4735,2.4517,1.5973,-9.604,1.1755,-0.2048,-0.8695,1.2762,-0.5693,-1.1631,-0.0293,600.0,-77.9,33.9,65.8,99.34,78.33,-53.65,,48.841,,,,NaN,,,,0 / 0,1308,2014-12-14 04:26:10:602
1.3925,-10.4735,2.4517,1.5973,-9.604,1.1755,-0.2048,-0.8695,1.2762,-0.5693,-1.1631,-0.0293,600.0,-77.9,33.9,65.8,99.34,78.33,-53.65,,48.841,,,,NaN,,,,0 / 0,1357,2014-12-14 04:26:10:651
3.1774,-9.9047,1.5102,1.9118,-9.5769,0.8937,1.2656,-0.3278,0.6165,-1.2254,-0.0648,-0.6072,600.0,-78.7,32.1,68.7,102.55,78.25,-56.9,,48.841,,,,NaN,,,,0 / 0,1408,2014-12-14 04:26:10:702
1.7358,-5.2662,-1.6573,2.2289,-9.5352,-0.5312,-0.4931,4.2691,-1.1261,-1.0922,0.7978,0.1014,600.0,-82.7,29.9,73.6,149.11,76.49,-103.4,,48.841,,,,NaN,,,,0 / 0,1457,2014-12-14 04:26:10:751
-2.9126,-9.8655,-4.2169,2.3817,-9.3877,-1.5394,-5.2943,-0.4778,-2.6775,-1.4734,-0.4447,-0.1784,600.0,-85.3,27.8,78.0,149.11,76.49,-103.4,,48.841,,,,NaN,,,,0 / 0,1508,2014-12-14 04:26:10:802
-2.0202,-10.4441,-0.7355,1.3991,-9.4373,-2.2693,-3.4193,-1.0067,1.5338,-0.5608,-0.0281,0.0819,219.0,-86.1,25.6,80.4,197.03,74.23,-148.34,,48.841,,,,NaN,,,,0 / 0,1558,2014-12-14 04:26:10:852
2.079,-9.2477,-0.9218,1.1851,-9.4647,-2.2771,0.8939,0.217,1.3552,-0.6781,0.4227,0.0855,219.0,-87.9,24.3,82.4,201.3,74.83,-152.5,,48.841,,,,NaN,,,,0 / 0,1608,2014-12-14 04:26:10:902
0.4217,-9.2575,-2.5301,1.3836,-9.3914,-2.4611,-0.9619,0.134,-0.069,-0.6781,0.4227,0.0855,219.0,-87.9,24.3,82.4,201.3,74.83,-152.5,,48.841,,,,NaN,,,,0 / 0,1657,2014-12-14 04:26:10:951
-0.0196,-10.091,-3.0891,1.3506,-9.3119,-2.7631,-1.3702,-0.7791,-0.326,-0.5034,-0.0855,-0.182,219.0,-90.5,22.6,83.4,203.71,71.72,-153.95,,54.844,,,,NaN,,,,0 / 0,1708,2014-12-14 04:26:11:002
0.4413,-10.0126,-3.7756,1.2955,-9.2529,-2.9794,-0.8542,-0.7597,-0.7962,-0.6072,-0.3152,-0.2749,98.0,-91.4,21.7,84.3,203.71,71.72,-153.95,,54.844,,,,NaN,,,,0 / 0,1758,2014-12-14 04:26:11:052
0.8041,-10.1008,-1.9809,1.367,-9.0432,-3.5387,-0.5629,-1.0576,1.5577,-0.7282,0.3042,-0.2553,98.0,-94.4,18.6,86.3,210.08,67.24,-158.88,,54.844,,,,NaN,,,,0 / 0,1808,2014-12-14 04:26:11:102
0.9807,-10.5127,-1.8338,1.4573,-9.0349,-3.5237,-0.4766,-1.4778,1.6899,-0.3738,0.171,-0.3604,98.0,-97.4,17.3,87.3,210.08,67.24,-158.88,,54.844,,,,NaN,,,,0 / 0,1858,2014-12-14 04:26:11:152
-0.6669,-10.6696,-1.7162,1.5974,-9.1024,-3.2811,-2.2642,-1.5672,1.5649,-0.1332,-0.0134,-0.5119,52.0,-99.6,16.0,86.3,206.15,68.15,-154.04,,54.844,,,,NaN,,,,0 / 0,1907,2014-12-14 04:26:11:201
-0.0883,-13.2096,2.0986,1.5642,-9.3497,-2.5113,-1.6525,-3.8599,4.6099,0.6976,-0.0208,-0.463,52.0,-102.2,14.7,83.9,200.16,72.44,-148.08,,54.844,,,,NaN,,,,0 / 0,1958,2014-12-14 04:26:11:252
-0.304,-14.759,2.3046,1.5669,-9.413,-2.2606,-1.8709,-5.346,4.5652,1.1032,0.0012,-0.3885,52.0,-102.7,15.2,83.9,200.16,72.44,-148.08,,54.844,,,,NaN,,,,0 / 0,2007,2014-12-14 04:26:11:301
1.5789,-12.4446,-4.5699,1.041,-9.7344,0.5736,0.5379,-2.7103,-5.1435,1.9096,-1.383,1.2694,52.0,-100.9,18.6,71.7,132.1,82.81,-79.05,,54.844,,,,NaN,,,,0 / 0,2058,2014-12-14 04:26:11:352
1.1572,-13.239,-7.3452,0.7949,-9.7573,0.5772,0.3623,-3.4817,-7.9224,1.5992,-1.2608,1.5675,52.0,-99.2,19.1,70.7,107.43,84.25,-54.01,,54.844,,,,NaN,,,,0 / 0,2108,2014-12-14 04:26:11:402
-0.608,-13.0821,-5.7565,0.3518,-9.7922,0.3983,-0.9599,-3.2898,-6.1548,1.978,-1.8986,1.4441,52.0,-96.6,19.5,68.7,107.43,84.25,-54.01,,54.844,,,,NaN,,,,0 / 0,2157,2014-12-14 04:26:11:451
2.7459,-8.1297,-0.9905,-0.0632,-9.771,0.8329,2.8091,1.6413,-1.8234,1.8436,-2.2883,0.9664,52.0,-91.4,20.4,62.4,50.81,85.11,4.34,,50.315,,,,NaN,,,,0 / 0,2209,2014-12-14 04:26:11:503
2.8341,-7.4138,-1.2062,-0.035,-9.7618,0.9362,2.8691,2.348,-2.1424,1.6493,-2.2235,0.9456,52.0,-90.9,20.4,62.9,50.81,85.11,4.34,,50.315,,,,NaN,,,,0 / 0,2258,2014-12-14 04:26:11:552
0.8238,-8.3945,0.4903,0.3267,-9.771,0.7693,1.1443,3.2888,-2.5051,0.314,-2.4325,0.463,400.0,-84.4,19.5,59.9,76.6,85.11,-23.01,,50.315,,,,NaN,,,,0 / 0,2308,2014-12-14 04:26:11:602
0.559,-8.522,1.4906,0.3708,-9.7996,-0.0016,0.1882,1.2777,1.4923,-0.6695,-0.9603,0.5449,400.0,-80.9,17.3,61.9,142.58,87.83,-90.25,,50.315,,,,NaN,,,,0 / 0,2358,2014-12-14 04:26:11:652
0.559,-8.522,1.4906,0.3708,-9.7996,-0.0016,0.1882,1.2777,1.4923,-0.6695,-0.9603,0.5449,400.0,-80.9,17.3,61.9,142.58,87.83,-90.25,,50.315,,,,NaN,,,,0 / 0,2408,2014-12-14 04:26:11:702
1.5985,-11.5915,3.1479,0.5651,-9.7897,-0.1172,1.0334,-1.8018,3.2652,-0.6524,-2.1625,-0.0648,719.0,-77.9,15.2,64.3,152.08,86.63,-101.72,,50.315,,,,NaN,,,,0 / 0,2458,2014-12-14 04:26:11:752
4.0011,-10.1793,2.1182,0.8439,-9.7693,0.1379,1.4214,-1.8516,4.5889,-0.2101,-0.8748,-0.1002,719.0,-77.9,14.3,67.3,129.43,85.0,-80.72,,50.315,,,,NaN,,,,0 / 0,2508,2014-12-14 04:26:11:802
4.0305,-13.9941,0.2648,1.6978,-9.6421,0.5635,2.3327,-4.352,-0.2988,-0.9713,-0.0929,-0.9358,719.0,-79.6,13.4,70.2,118.91,79.49,-71.64,,50.315,,,,NaN,,,,0 / 0,2558,2014-12-14 04:26:11:852
-0.1569,-7.9434,-4.5307,2.1548,-9.5083,-1.0582,-2.3117,1.5649,-3.4725,-1.471,1.2254,0.033,719.0,-84.8,10.4,77.5,162.76,75.83,-116.15,,59.32,,,,NaN,,,,0 / 0,2614,2014-12-14 04:26:11:908
-4.2365,-12.0524,-5.9526,2.2007,-9.3419,-2.0141,-4.3385,4.6739,-2.4283,-0.9346,0.0965,0.0831,719.0,-87.4,9.1,80.4,162.76,75.83,-116.15,,59.32,,,,NaN,,,,0 / 0,2682,2014-12-14 04:26:11:976
-4.2365,-12.0524,-5.9526,2.2007,-9.3419,-2.0141,-4.3385,4.6739,-2.4283,-0.9346,0.0965,0.0831,719.0,-87.4,9.1,80.4,162.76,75.83,-116.15,,59.32,,,,NaN,,,,0 / 0,2708,2014-12-14 04:26:12:002
0.1765,-9.9538,-2.589,1.7193,-9.1665,-3.0316,-1.5427,-0.7873,0.4426,-0.9346,0.0965,0.0831,225.0,-90.0,4.7,85.8,198.11,69.18,-150.44,,59.32,,,,NaN,,,,0 / 0,2757,2014-12-14 04:26:12:051
-0.1863,-9.9538,-2.991,1.5511,-9.151,-3.1659,-1.7374,-0.8027,0.1749,-0.6035,0.2505,-0.1527,225.0,-92.7,2.6,87.8,202.01,68.93,-153.9,,59.32,,,,NaN,,,,0 / 0,2808,2014-12-14 04:26:12:102
-0.1863,-9.9538,-2.991,1.5511,-9.151,-3.1659,-1.7374,-0.8027,0.1749,-0.6035,0.2505,-0.1527,225.0,-92.7,2.6,87.8,202.01,68.93,-153.9,,59.32,,,,NaN,,,,0 / 0,2857,2014-12-14 04:26:12:151
0.9414,-9.9243,-2.7262,1.5061,-9.0908,-3.3554,-0.5647,-0.8335,0.6291,-0.6182,0.1234,-0.1796,225.0,-94.8,1.7,88.7,204.43,67.97,-155.83,,59.32,,,,NaN,,,,0 / 0,2908,2014-12-14 04:26:12:202
0.9414,-9.9243,-2.7262,1.5061,-9.0908,-3.3554,-0.5647,-0.8335,0.6291,-0.6182,0.1234,-0.1796,225.0,-94.8,1.7,88.7,204.43,67.97,-155.83,,59.32,,,,NaN,,,,0 / 0,2957,2014-12-14 04:26:12:251
0.3138,-9.689,-3.5402,1.5892,-8.9997,-3.5566,-1.2754,-0.6892,0.0164,-0.7587,0.0977,-0.3176,225.0,-97.4,0.4,91.2,204.56,66.59,-155.92,,59.32,,,,NaN,,,,0 / 0,3008,2014-12-14 04:26:12:302
-0.6276,-10.3852,-1.4416,1.7558,-8.847,-3.8493,-2.3835,-1.5382,2.4077,-0.5559,0.1552,-0.5266,225.0,-103.1,-3.5,93.6,204.56,66.59,-155.92,,59.32,,,,NaN,,,,0 / 0,3057,2014-12-14 04:26:12:351
-0.9512,-10.5029,-1.216,1.7504,-8.8571,-3.8286,-2.7017,-1.6458,2.6126,-0.5229,0.0916,-0.5351,104.0,-104.0,-4.0,92.6,205.51,64.58,-155.43,,59.32,,,,NaN,,,,0 / 0,3108,2014-12-14 04:26:12:402
-0.7355,-13.2096,0.8041,1.3494,-9.2592,-2.9354,-2.0849,-3.9504,3.7396,0.6255,-0.3702,-0.336,104.0,-109.6,-4.4,95.1,206.59,67.34,-156.48,,59.32,,,,NaN,,,,0 / 0,3157,2014-12-14 04:26:12:451
1.5887,-12.8467,3.1185,1.0124,-9.6521,-1.4078,0.5763,-3.1946,4.5263,2.4312,-0.2908,0.4313,72.0,-111.3,0.8,92.6,194.56,79.82,-144.28,,59.32,,,,NaN,,,,0 / 0,3207,2014-12-14 04:26:12:501
2.2359,-12.3368,2.5301,0.9592,-9.7098,-0.9853,1.7468,-1.7561,2.1716,2.4312,-0.2908,0.4313,72.0,-111.3,0.8,92.6,194.56,79.82,-144.28,,61.018,,,,NaN,,,,0 / 0,3258,2014-12-14 04:26:12:552
1.4906,-13.592,-7.0706,0.5338,-9.7869,0.3203,4.0798,-2.8892,-5.4488,2.1136,-1.6298,1.405,72.0,-110.9,11.7,87.3,115.01,84.49,-63.63,,61.018,,,,NaN,,,,0 / 0,3308,2014-12-14 04:26:12:602
2.3046,-7.3354,-2.5105,0.0536,-9.7549,1.0049,2.2509,2.4195,-3.5154,1.7361,-2.2235,0.9713,72.0,-103.1,23.9,75.6,59.4,86.04,-6.4,,61.018,,,,NaN,,,,0 / 0,3357,2014-12-14 04:26:12:651
2.0986,-6.5312,-2.893,0.1,-9.7471,1.0744,1.9987,3.2159,-3.9674,1.4306,-2.1722,0.8271,250.0,-100.5,25.6,72.6,59.4,86.04,-6.4,,61.018,,,,NaN,,,,0 / 0,3407,2014-12-14 04:26:12:701
2.6086,-5.2171,-1.5593,0.2331,-9.7555,0.9731,1.6301,4.5481,-3.2091,0.8039,-2.215,0.4997,250.0,-96.6,28.2,68.2,67.27,84.14,-13.47,,61.018,,,,NaN,,,,0 / 0,3458,2014-12-14 04:26:12:752
2.8537,-5.6781,-1.3337,0.5214,-9.7741,0.6041,2.3323,4.0961,-1.9378,0.1564,-1.9768,0.4777,250.0,-94.4,29.1,66.3,94.53,85.33,-40.8,,61.018,,,,NaN,,,,0 / 0,3508,2014-12-14 04:26:12:802
0.9905,-8.8652,1.4024,0.9867,-9.7558,-0.1469,0.0038,0.8906,1.5493,-1.1301,-0.6671,0.1381,250.0,-91.4,28.2,68.7,150.47,84.16,-98.47,,61.018,,,,NaN,,,,0 / 0,3557,2014-12-14 04:26:12:851
2.638,-10.1401,4.8543,1.4513,-9.6909,-0.389,1.1867,-0.4492,5.2433,-1.2535,-0.6854,-0.3971,963.0,-93.1,26.9,72.1,150.47,84.16,-98.47,,61.018,,,,NaN,,,,0 / 0,3608,2014-12-14 04:26:12:902
2.7361,-11.5718,3.8442,1.8375,-9.6299,-0.2424,0.8986,-1.9419,4.0866,-0.9297,-1.4563,-0.3763,963.0,-93.5,26.0,73.6,152.86,80.52,-102.29,,61.018,,,,NaN,,,,0 / 0,3658,2014-12-14 04:26:12:952
2.334,-11.8562,2.4222,2.1017,-9.5778,-0.1404,0.2323,-2.2785,2.5627,-0.474,-0.8845,-0.1038,963.0,-93.5,25.6,74.1,143.03,77.6,-93.82,,61.018,,,,NaN,,,,0 / 0,3707,2014-12-14 04:26:13:001
0.9905,-6.5705,-9.8165,2.6103,-9.4502,-0.2236,-1.6199,2.8798,-9.5929,-1.708,2.0073,-0.0318,963.0,-97.4,23.9,75.6,144.04,74.5,-94.9,,59.603,,,,NaN,,,,0 / 0,3757,2014-12-14 04:26:13:051
-2.6086,-6.3253,-5.2466,2.6105,-9.4347,-0.585,-2.0515,4.1293,-7.7311,-0.9261,-0.1784,-0.4129,963.0,-101.8,20.8,79.9,144.04,74.5,-94.9,,59.603,,,,NaN,,,,0 / 0,3808,2014-12-14 04:26:13:102
-1.4024,-11.209,-2.7557,2.4889,-9.085,-2.7274,-7.2941,-2.4967,-3.3723,-0.7086,0.2028,0.0892,963.0,-102.7,17.8,83.4,189.99,67.88,-137.62,,59.603,,,,NaN,,,,0 / 0,3857,2014-12-14 04:26:13:151
3.0695,-9.5321,-0.6669,1.5846,-9.0476,-3.4351,1.4849,-0.4844,2.7682,-0.8418,-0.6817,-0.2346,391.0,-104.4,15.2,85.8,208.75,67.31,-155.24,,59.603,,,,NaN,,,,0 / 0,3907,2014-12-14 04:26:13:201
0.4021,-9.8949,-3.3637,1.8059,-8.9988,-3.4542,-1.4038,-0.8961,0.0905,-0.7636,-0.11,-0.2847,391.0,-104.8,14.3,86.3,208.75,67.31,-155.24,,59.603,,,,NaN,,,,0 / 0,3957,2014-12-14 04:26:13:251
0.4021,-9.8949,-3.3637,1.8059,-8.9988,-3.4542,-1.4038,-0.8961,0.0905,-0.7636,-0.11,-0.2847,391.0,-104.8,14.3,86.3,208.75,67.31,-155.24,,59.603,,,,NaN,,,,0 / 0,4007,2014-12-14 04:26:13:301
0.4021,-9.8949,-3.3637,1.8059,-8.9988,-3.4542,-1.4038,-0.8961,0.0905,-0.7636,-0.11,-0.2847,391.0,-104.8,14.3,86.3,208.75,67.31,-155.24,,59.603,,,,NaN,,,,0 / 0,4057,2014-12-14 04:26:13:351
0.9709,-9.8263,-2.8733,1.7793,-8.891,-3.7356,-0.8084,-0.9353,0.8623,-0.6048,0.0134,-0.2615,391.0,-107.9,12.1,87.3,208.67,65.2,-154.4,,59.603,,,,NaN,,,,0 / 0,4107,2014-12-14 04:26:13:401
0.4413,-10.3656,-1.3239,1.8128,-8.8171,-3.8914,-1.4892,-1.6466,2.7244,-0.4191,0.1674,-0.4826,391.0,-114.8,6.9,90.2,210.17,64.04,-155.02,,59.603,,,,NaN,,,,0 / 0,4157,2014-12-14 04:26:13:451
-0.1765,-10.6794,-0.7747,1.8616,-8.8518,-3.7883,-2.0382,-1.8277,3.0135,-0.336,0.1136,-0.5522,163.0,-115.7,6.0,89.7,210.17,64.04,-155.02,,59.603,,,,NaN,,,,0 / 0,4208,2014-12-14 04:26:13:502
-0.2942,-14.4648,3.1872,1.5769,-9.401,-2.3034,-1.8711,-5.0638,5.4905,0.7159,-0.4862,-0.4643,163.0,-118.3,6.5,88.2,206.63,69.19,-151.38,,63.575,,,,NaN,,,,0 / 0,4259,2014-12-14 04:26:13:553
2.2751,-12.8565,-1.2847,1.1343,-9.7318,0.4187,1.1408,-3.1247,-1.7034,2.2052,-1.4306,1.2511,163.0,-118.7,18.2,76.5,196.02,75.48,-140.92,,63.575,,,,NaN,,,,0 / 0,4307,2014-12-14 04:26:13:601
0.5198,-13.0625,-7.5805,0.8806,-9.741,0.7132,3.0616,-4.4591,-6.4207,1.5223,-1.2058,1.5748,163.0,-117.0,20.8,75.1,107.27,83.36,-51.0,,63.575,,,,NaN,,,,0 / 0,4358,2014-12-14 04:26:13:652
-1.2258,-12.1799,-6.3155,0.5995,-9.7706,0.5892,-1.8253,-2.4093,-6.9047,1.8864,-1.6506,1.7459,163.0,-113.1,24.3,72.1,107.27,83.36,-51.0,,63.575,,,,NaN,,,,0 / 0,4408,2014-12-14 04:26:13:702
1.5789,-9.8655,-0.4119,0.008,-9.7859,0.6379,1.5709,-0.0796,-1.0497,1.9242,-2.6768,0.9249,163.0,-107.9,28.6,66.3,58.61,86.27,-0.72,,63.575,,,,NaN,,,,0 / 0,4457,2014-12-14 04:26:13:751
2.3144,-5.5898,-2.0986,0.1114,-9.7493,1.0536,2.2029,4.1595,-3.1522,0.8222,-2.4374,0.8393,163.0,-100.5,32.6,58.5,64.04,83.8,-6.04,,63.575,,,,NaN,,,,0 / 0,4507,2014-12-14 04:26:13:801
2.4419,-5.3839,-1.8927,0.1581,-9.7544,0.9989,2.2837,4.3705,-2.8916,0.7245,-2.54,0.7892,163.0,-99.2,32.6,58.5,64.04,83.8,-6.04,,63.575,,,,NaN,,,,0 / 0,4557,2014-12-14 04:26:13:851
3.2166,-6.7274,-1.7848,0.7091,-9.7773,0.2686,2.5075,3.0499,-2.0534,-0.1735,-1.9523,0.5046,163.0,-94.8,33.4,56.0,127.6,85.57,-69.26,,63.575,,,,NaN,,,,0 / 0,4608,2014-12-14 04:26:13:902
0.7551,-9.8361,3.7265,1.0687,-9.7357,-0.4946,0.539,0.0623,1.5639,-0.7233,-0.9664,0.6035,1275.0,-93.5,33.0,58.0,127.6,85.57,-69.26,,63.575,,,,NaN,,,,0 / 0,4657,2014-12-14 04:26:13:951
1.6573,-9.9047,3.7265,1.1472,-9.7272,-0.4851,0.2887,-1.1393,3.7634,-1.2058,-1.3891,-0.0147,1275.0,-91.8,31.3,62.9,171.65,83.1,-114.84,,64.957,,,,NaN,,,,0 / 0,4707,2014-12-14 04:26:14:001
1.6475,-12.8271,3.3343,1.6566,-9.6509,-0.5341,-0.0091,-3.1762,3.8684,-0.1234,-1.1252,-0.3152,1275.0,-91.8,29.9,63.4,162.38,79.78,-107.87,,64.957,,,,NaN,,,,0 / 0,4760,2014-12-14 04:26:14:054
1.6475,-12.8271,3.3343,1.6566,-9.6509,-0.5341,-0.0091,-3.1762,3.8684,-0.1234,-1.1252,-0.3152,1275.0,-91.8,29.9,63.4,162.38,79.78,-107.87,,64.957,,,,NaN,,,,0 / 0,4807,2014-12-14 04:26:14:101
5.884,-14.8375,-6.3155,2.6146,-9.4464,-0.3156,3.2694,-5.391,-5.9998,-0.9982,0.2981,-0.4362,1275.0,-94.8,28.6,63.4,150.48,74.42,-96.88,,64.957,,,,NaN,,,,0 / 0,4857,2014-12-14 04:26:14:151
1.118,-5.5113,-3.55,2.8338,-9.2299,-1.7174,-1.7158,3.7185,-1.8326,-1.4025,1.124,0.0782,1275.0,-97.9,26.0,67.3,176.38,70.25,-121.22,,64.957,,,,NaN,,,,0 / 0,4908,2014-12-14 04:26:14:202
-5.3642,-13.1507,-4.2855,2.5989,-8.9123,-3.1602,-5.6143,3.5974,-1.6776,-1.3207,0.0916,-0.369,1275.0,-99.2,25.2,69.7,185.69,67.05,-130.05,,64.957,,,,NaN,,,,0 / 0,4958,2014-12-14 04:26:14:252
3.6088,-9.1986,0.0981,1.7081,-8.9511,-3.6235,1.9008,-0.2475,3.7216,-0.9212,-0.3629,0.0403,574.0,-100.0,21.7,72.1,213.77,65.89,-154.76,,64.957,,,,NaN,,,,0 / 0,5096,2014-12-14 04:26:14:390
3.6088,-9.1986,0.0981,1.7081,-8.9511,-3.6235,1.9008,-0.2475,3.7216,-0.9212,-0.3629,0.0403,574.0,-100.0,21.7,72.1,213.77,65.89,-154.76,,64.957,,,,NaN,,,,0 / 0,5100,2014-12-14 04:26:14:394
3.6088,-9.1986,0.0981,1.7081,-8.9511,-3.6235,1.9008,-0.2475,3.7216,-0.9212,-0.3629,0.0403,574.0,-100.0,21.7,72.1,213.77,65.89,-154.76,,64.957,,,,NaN,,,,0 / 0,5107,2014-12-14 04:26:14:401
-0.4511,-10.0028,-3.1774,1.9382,-8.8484,-3.7577,-2.3893,-1.1544,0.5803,-0.5852,0.1258,-0.1405,574.0,-104.0,19.1,75.1,211.75,65.44,-153.45,,61.401,,,,NaN,,,,0 / 0,5157,2014-12-14 04:26:14:451
-0.0392,-9.8165,-3.4814,1.7898,-8.6906,-4.1762,-1.8291,-1.1259,0.6949,-0.7636,0.055,-0.3213,229.0,-105.7,18.2,76.0,216.69,62.4,-156.8,,61.401,,,,NaN,,,,0 / 0,5207,2014-12-14 04:26:14:501
0.4707,-10.2283,-1.8829,1.7624,-8.5847,-4.4007,-1.2917,-1.6436,2.5178,-0.6231,0.0733,-0.4288,229.0,-107.4,15.2,76.5,216.69,62.4,-156.8,,61.401,,,,NaN,,,,0 / 0,5258,2014-12-14 04:26:14:552
0.1961,-10.4147,-1.6573,1.8399,-8.5974,-4.344,-1.6438,-1.8173,2.6867,-0.5021,0.2138,-0.4753,229.0,-109.2,14.3,76.5,217.19,61.25,-157.05,,61.401,,,,NaN,,,,0 / 0,5308,2014-12-14 04:26:14:602
-1.0003,-10.4245,-1.0199,1.8424,-8.7607,-4.0032,-2.8427,-1.6638,2.9833,-0.1307,-0.2053,-0.551,115.0,-112.7,12.1,75.1,216.13,63.3,-155.29,,61.401,,,,NaN,,,,0 / 0,5357,2014-12-14 04:26:14:651
-0.2354,-14.1902,2.0006,1.6586,-9.0847,-3.2996,-1.894,-5.1055,5.3001,0.9297,-0.1222,-0.391,115.0,-114.4,11.3,73.6,216.13,63.3,-155.29,,61.401,,,,NaN,,,,0 / 0,5407,2014-12-14 04:26:14:701
2.8145,-11.3365,-0.1471,1.4142,-9.6645,-0.8764,1.4003,-1.672,0.7293,2.9285,-0.876,0.8552,115.0,-115.3,14.7,63.4,212.09,69.31,-151.56,,61.401,,,,NaN,,,,0 / 0,5458,2014-12-14 04:26:14:752
3.8736,-12.7094,-3.3931,1.3275,-9.712,-0.2902,2.5461,-2.9974,-3.1029,1.7055,-1.2999,1.3048,115.0,-113.1,16.5,58.5,164.33,82.04,-102.33,,61.401,,,,NaN,,,,0 / 0,5508,2014-12-14 04:26:14:802
0.1275,-13.4645,-6.8843,1.1026,-9.7437,-0.121,-0.9752,-3.7208,-6.7632,1.7055,-1.2999,1.3048,115.0,-113.1,16.5,58.5,164.33,82.04,-102.33,,53.166,,,,NaN,,,,0 / 0,5557,2014-12-14 04:26:14:851
1.2651,-12.1701,-3.7559,0.7969,-9.7732,-0.1418,0.4682,-2.3969,-3.6142,2.1185,-1.7104,1.2425,115.0,-109.6,18.6,53.6,163.68,85.27,-100.09,,53.166,,,,NaN,,,,0 / 0,5608,2014-12-14 04:26:14:902
3.0204,-8.5906,-1.3729,0.5781,-9.7889,0.1204,2.4423,1.1982,-1.4933,1.9572,-2.1185,0.9994,115.0,-106.6,20.4,47.8,143.68,86.55,-78.24,,53.166,,,,NaN,,,,0 / 0,5657,2014-12-14 04:26:14:951
1.2258,-5.9722,-2.5007,0.5583,-9.7803,0.4523,0.6676,3.808,-2.953,0.7563,-2.5265,0.5986,848.0,-101.4,21.3,41.9,117.63,85.8,-50.98,,53.166,,,,NaN,,,,0 / 0,5708,2014-12-14 04:26:15:002
1.9221,-5.835,-2.3438,0.5567,-9.7898,0.1421,1.3654,3.9548,-2.4859,0.4606,-2.3555,0.5034,848.0,-101.4,20.8,40.9,117.63,85.8,-50.98,,53.166,,,,NaN,,,,0 / 0,5758,2014-12-14 04:26:15:052
2.4026,-6.5312,-1.8338,0.6009,-9.7878,-0.0897,1.8017,3.2566,-1.7442,0.0635,-2.0843,0.5449,848.0,-100.5,20.8,41.4,166.0,86.45,-98.49,,53.166,,,,NaN,,,,0 / 0,5807,2014-12-14 04:26:15:101
0.559,-9.0123,2.5399,0.6568,-9.7537,-0.7772,-0.0978,0.7414,3.3171,-0.8222,-0.6182,0.4056,848.0,-99.6,19.9,43.4,207.16,84.04,-139.8,,53.166,,,,NaN,,,,0 / 0,5858,2014-12-14 04:26:15:152
0.9022,-9.1104,3.2852,0.655,-9.7526,-0.7929,0.2472,0.6422,4.0781,-0.8772,-0.5889,0.2517,2065.0,-99.6,19.9,43.9,207.16,84.04,-139.8,,53.166,,,,NaN,,,,0 / 0,5908,2014-12-14 04:26:15:202
2.1378,-11.464,3.2656,1.2106,-9.7188,-0.4993,0.9273,-1.7452,3.765,-0.7098,-1.6872,-0.1271,2065.0,-98.3,18.2,47.3,176.69,82.33,-112.42,,53.166,,,,NaN,,,,0 / 0,5958,2014-12-14 04:26:15:252
3.1283,-16.6615,-0.4021,1.9285,-9.6141,-0.1449,0.9366,-0.4078,3.3836,-0.5315,-0.4716,-0.4716,2065.0,-98.3,16.9,47.8,176.69,82.33,-112.42,,53.166,,,,NaN,,,,0 / 0,6008,2014-12-14 04:26:15:302
1.0689,-6.2272,-1.9221,2.089,-9.4683,-1.4687,-1.0201,3.2411,-0.4534,-1.2657,1.3916,0.1258,1294.0,-99.2,16.0,48.7,156.91,78.63,-94.3,,53.166,,,,NaN,,,,0 / 0,6058,2014-12-14 04:26:15:352
1.0689,-6.2272,-1.9221,2.089,-9.4683,-1.4687,-1.0201,3.2411,-0.4534,-1.2657,1.3916,0.1258,1294.0,-99.2,14.7,51.7,187.95,74.91,-125.11,,60.142,,,,NaN,,,,0 / 0,6107,2014-12-14 04:26:15:401
-2.4811,-5.5506,-5.3544,2.2142,-9.2956,-2.2042,-4.6953,3.7451,-3.1502,-1.2792,-0.3604,-0.4117,1294.0,-99.6,13.9,52.6,198.58,71.42,-134.87,,60.142,,,,NaN,,,,0 / 0,6158,2014-12-14 04:26:15:452
2.942,-9.1496,-0.304,1.279,-9.0802,-3.4764,-3.9562,-2.2858,1.0051,-0.6891,-0.5363,0.0354,1294.0,-100.0,12.1,54.6,224.86,67.81,-159.8,,60.142,,,,NaN,,,,0 / 0,6208,2014-12-14 04:26:15:502
2.2948,-9.13,-1.4808,0.9836,-9.0719,-3.5921,1.3112,-0.0581,2.1113,-0.6475,-0.5925,-0.0611,1294.0,-99.6,11.3,56.5,228.86,67.68,-164.69,,60.142,,,,NaN,,,,0 / 0,6258,2014-12-14 04:26:15:552
0.1275,-9.5811,-3.0008,1.1607,-8.9102,-3.9283,-1.0333,-0.6709,0.9275,-0.6597,0.43,-0.0757,571.0,-100.5,9.9,57.5,227.78,65.31,-163.54,,60.142,,,,NaN,,,,0 / 0,6307,2014-12-14 04:26:15:601
-0.0392,-9.9439,-3.4029,1.0933,-8.7773,-4.2348,-1.1325,-1.1666,0.8319,-0.5803,-0.0855,-0.2309,571.0,-100.9,9.1,58.0,227.78,65.31,-163.54,,60.142,,,,NaN,,,,0 / 0,6357,2014-12-14 04:26:15:651
-0.1079,-9.9538,-3.3441,1.077,-8.7508,-4.2936,-1.1849,-1.203,0.9495,-0.6121,0.0501,-0.2334,571.0,-100.9,9.1,58.5,230.5,63.17,-165.92,,60.142,,,,NaN,,,,0 / 0,6408,2014-12-14 04:26:15:702
0.863,-9.7968,-2.1673,1.076,-8.6167,-4.5569,-0.213,-1.1802,2.3897,-0.5021,0.2602,-0.2382,303.0,-102.2,7.3,59.0,231.69,61.48,-166.71,,60.142,,,,NaN,,,,0 / 0,6457,2014-12-14 04:26:15:751
-0.657,-10.1891,-1.8927,1.1684,-8.6475,-4.475,-1.6293,-1.6004,2.5823,-0.2138,0.0599,-0.3604,303.0,-104.4,6.5,59.9,231.69,61.48,-166.71,,60.142,,,,NaN,,,,0 / 0,6508,2014-12-14 04:26:15:802
-0.6669,-10.0322,-2.03,1.1368,-8.6838,-4.4125,-1.8036,-1.3484,2.3825,-0.1344,-0.0037,-0.4398,303.0,-105.3,5.6,59.5,230.35,62.31,-165.55,,60.142,,,,NaN,,,,0 / 0,6558,2014-12-14 04:26:15:852
0.3727,-9.9832,-0.7551,1.054,-8.814,-4.168,-0.9168,-1.0907,3.1383,0.1491,0.1124,-0.4019,303.0,-105.7,4.7,59.0,230.35,62.31,-165.55,,61.65,,,,NaN,,,,0 / 0,6607,2014-12-14 04:26:15:901
0.0,-14.0823,-0.0785,1.2696,-9.2318,-3.055,-1.2696,-4.8506,2.9766,1.6958,0.799,-0.0195,303.0,-106.6,4.3,55.6,230.28,64.46,-165.44,,61.65,,,,NaN,,,,0 / 0,6658,2014-12-14 04:26:15:952
1.0003,-13.9254,2.0496,1.1726,-9.4206,-2.4594,-0.1723,-4.5049,4.5089,2.1002,0.6109,0.3531,303.0,-106.6,4.7,53.1,219.72,73.87,-154.51,,61.65,,,,NaN,,,,0 / 0,6707,2014-12-14 04:26:16:001
3.6873,-13.1311,-3.2166,0.9408,-9.7003,-1.0906,2.7465,-3.4308,-2.1259,2.3115,-0.6646,0.887,282.0,-105.3,6.0,49.2,204.62,81.55,-139.22,,61.65,,,,NaN,,,,0 / 0,6757,2014-12-14 04:26:16:051
6.2468,-10.0518,-5.6781,0.8553,-9.7367,-0.7976,4.0971,0.185,-3.5664,1.5235,-0.4093,1.003,282.0,-103.5,7.3,46.8,204.62,81.55,-139.22,,61.65,,,,NaN,,,,0 / 0,6807,2014-12-14 04:26:16:101
-0.5001,-11.9445,-2.4713,0.8013,-9.7382,-0.8344,-1.3015,-2.2063,-1.6369,1.5088,-2.7684,0.9835,282.0,-101.4,7.8,44.3,202.95,83.23,-136.16,,61.65,,,,NaN,,,,0 / 0,6857,2014-12-14 04:26:16:151
2.3242,-10.248,-2.4026,0.3538,-9.793,-0.3762,-1.3015,-2.2063,-1.6369,1.5088,-2.7684,0.9835,282.0,-101.4,7.8,44.3,202.95,83.23,-136.16,,61.65,,,,NaN,,,,0 / 0,6907,2014-12-14 04:26:16:201
3.4814,-6.6489,-2.9714,0.4802,-9.7857,-0.4252,3.0011,3.1367,-2.5462,0.9603,-1.4392,0.6878,1225.0,-97.4,8.2,39.9,199.59,86.52,-131.67,,61.65,,,,NaN,,,,0 / 0,6958,2014-12-14 04:26:16:252
1.4808,-6.2076,-1.1866,0.8564,-9.7379,-0.7814,0.6244,3.5303,-0.4052,-0.1491,-1.1912,0.1026,1225.0,-96.6,8.2,38.5,200.79,83.21,-132.38,,61.65,,,,NaN,,,,0 / 0,7007,2014-12-14 04:26:16:301
0.4315,-7.5119,0.0294,0.9061,-9.6973,-1.1451,-0.2491,1.9795,1.3805,-0.4569,-1.3109,0.0745,1225.0,-96.6,8.2,39.5,200.79,83.21,-132.38,,61.65,,,,NaN,,,,0 / 0,7057,2014-12-14 04:26:16:351
1.8044,-10.091,1.1082,0.8268,-9.697,-1.2059,0.9776,-0.394,2.314,-0.7037,-0.6793,0.0782,2203.0,-96.1,7.3,40.4,209.58,81.44,-141.65,,57.458,,,,NaN,,,,0 / 0,7107,2014-12-14 04:26:16:401
3.3735,-12.1112,-0.0883,1.1192,-9.6555,-1.3,2.4504,-5.5547,2.2414,-0.7453,-0.5608,-0.022,2203.0,-96.1,6.9,42.9,210.51,81.36,-143.06,,57.458,,,,NaN,,,,0 / 0,7158,2014-12-14 04:26:16:452
3.3735,-12.1112,-0.0883,1.1192,-9.6555,-1.3,2.4504,-5.5547,2.2414,-0.7453,-0.5608,-0.022,2203.0,-96.1,6.9,42.9,210.51,81.36,-143.06,,57.458,,,,NaN,,,,0 / 0,7208,2014-12-14 04:26:16:502
-1.1376,-9.6301,0.3825,1.3637,-9.6985,-0.4991,-2.5013,0.0684,0.8815,-0.1442,-0.8186,0.204,2203.0,-94.8,7.3,41.9,187.82,80.82,-120.98,,57.458,,,,NaN,,,,0 / 0,7258,2014-12-14 04:26:16:552
-1.6573,-9.5909,-0.5884,1.2974,-9.7084,-0.4828,-2.9548,0.1175,-0.1056,-0.0318,-0.9566,0.2505,1690.0,-95.3,7.3,42.4,176.49,81.88,-110.41,,57.458,,,,NaN,,,,0 / 0,7307,2014-12-14 04:26:16:601
0.7943,-10.5421,1.2356,0.6183,-9.7705,-0.5696,0.176,-0.7716,1.8053,-0.0403,-1.2266,0.022,1690.0,-94.8,7.3,42.4,198.97,85.08,-132.65,,57.458,,,,NaN,,,,0 / 0,7357,2014-12-14 04:26:16:651
0.7747,-9.6596,0.5099,0.7329,-9.7707,-0.4081,0.0419,0.1112,0.9181,-0.1429,-0.909,0.0489,1690.0,-94.0,7.8,42.9,198.97,85.08,-132.65,,57.458,,,,NaN,,,,0 / 0,7408,2014-12-14 04:26:16:702
0.5492,-9.9341,0.6472,0.7455,-9.7696,-0.4126,-0.1964,-0.1646,1.0598,-0.1613,-0.7807,0.0867,1690.0,-94.4,7.8,42.9,184.43,85.02,-118.96,,57.458,,,,NaN,,,,0 / 0,7458,2014-12-14 04:26:16:752
-0.3923,-9.8557,0.8728,0.5815,-9.7842,-0.3178,-0.9737,-0.0714,1.1906,-0.0428,-0.6182,0.1295,1690.0,-94.0,7.8,43.4,184.43,85.02,-118.96,,57.458,,,,NaN,,,,0 / 0,7507,2014-12-14 04:26:16:801
-0.3727,-9.738,0.8041,0.5499,-9.7867,-0.298,-0.9226,0.0487,1.1021,-0.0599,-0.6206,0.1087,1690.0,-93.5,7.8,42.9,183.66,86.34,-118.45,,57.458,,,,NaN,,,,0 / 0,7558,2014-12-14 04:26:16:852
-0.1177,-9.8459,0.8041,0.4607,-9.7916,-0.2865,-0.5784,-0.0542,1.0906,-0.226,-0.6793,-0.0684,1690.0,-93.5,7.8,43.4,187.1,86.83,-121.88,,53.13,,,,NaN,,,,0 / 0,7608,2014-12-14 04:26:16:902
0.2157,-9.9734,0.8336,0.4524,-9.7928,-0.2584,-0.2661,-0.2198,1.3175,-0.0831,-0.5143,-0.0122,1690.0,-93.5,7.8,44.3,184.43,86.95,-119.73,,53.13,,,,NaN,,,,0 / 0,7658,2014-12-14 04:26:16:952
-0.5884,-10.0714,0.6767,0.4401,-9.7955,-0.1601,-1.0285,-0.276,0.8368,-0.0098,-0.5803,0.0037,1690.0,-93.5,7.3,43.9,174.65,87.26,-110.0,,53.13,,,,NaN,,,,0 / 0,7707,2014-12-14 04:26:17:001
-0.3825,-9.9243,0.1373,0.3582,-9.7992,-0.1369,-0.7406,-0.1252,0.2742,-0.0257,-0.6182,-0.0281,1690.0,-93.5,7.3,44.3,175.59,87.76,-110.93,,53.13,,,,NaN,,,,0 / 0,7758,2014-12-14 04:26:17:052
-0.049,-10.248,0.304,0.3434,-9.7978,-0.2378,-0.3924,-0.4502,0.5418,0.011,-0.6927,-0.0415,1443.0,-93.5,7.3,44.3,175.59,87.76,-110.93,,53.13,,,,NaN,,,,0 / 0,7808,2014-12-14 04:26:17:102
-0.049,-10.248,0.304,0.3434,-9.7978,-0.2378,-0.3924,-0.4502,0.5418,0.011,-0.6927,-0.0415,1443.0,-93.1,7.3,43.4,189.92,87.56,-124.7,,53.13,,,,NaN,,,,0 / 0,7858,2014-12-14 04:26:17:152
0.1961,-10.0518,0.3236,0.3506,-9.7978,-0.2231,-0.1545,-0.254,0.5467,0.0635,-0.7062,-0.0379,1443.0,-93.5,7.3,43.9,187.17,87.57,-122.46,,53.13,,,,NaN,,,,0 / 0,7907,2014-12-14 04:26:17:201
-0.0294,-9.8949,0.0196,0.4069,-9.7955,-0.2281,-0.4363,-0.0994,0.2477,-0.022,-0.6854,-0.0269,1443.0,-93.5,7.3,43.9,183.97,87.27,-119.28,,53.13,,,,NaN,,,,0 / 0,7957,2014-12-14 04:26:17:251
0.0098,-10.0322,0.2452,0.4257,-9.7927,-0.3048,-0.4158,-0.2395,0.55,-0.0415,-0.7269,-0.0525,1443.0,-94.4,6.9,44.8,183.97,87.27,-119.28,,53.13,,,,NaN,,,,0 / 0,8008,2014-12-14 04:26:17:302
0.0098,-10.0322,0.2452,0.4257,-9.7927,-0.3048,-0.4158,-0.2395,0.55,-0.0415,-0.7269,-0.0525,1443.0,-94.4,6.9,44.8,183.97,87.27,-119.28,,53.13,,,,NaN,,,,0 / 0,8057,2014-12-14 04:26:17:351