ACCELEROMETER X (m/s²),ACCELEROMETER Y (m/s²),ACCELEROMETER Z (m/s²),GRAVITY X (m/s²),GRAVITY Y (m/s²),GRAVITY Z (m/s²),LINEAR ACCELERATION X (m/s²),LINEAR ACCELERATION Y (m/s²),LINEAR ACCELERATION Z (m/s²),GYROSCOPE X (rad/s),GYROSCOPE Y (rad/s),GYROSCOPE Z (rad/s),LIGHT (lux),MAGNETIC FIELD X (μT),MAGNETIC FIELD Y (μT),MAGNETIC FIELD Z (μT),ORIENTATION X (°),ORIENTATION Y (°),ORIENTATION Z (°),PROXIMITY (i),SOUND LEVEL (dB),LOCATION Latitude : ,LOCATION Longitude : ,LOCATION Altitude ( m),LOCATION Altitude-google ( m),LOCATION Speed ( Kmh),LOCATION Accuracy ( m),LOCATION ORIENTATION (°),Satellites in range,Time since start in ms ,YYYY-MO-DD HH-MI-SS_SSS
0.2844,-10.0616,0.4021,2.4596,-9.2524,-2.1244,-2.1752,-0.8092,2.5265,-0.7208,-0.7306,-0.6805,442.0,-90.5,3.0,33.1,202.04,70.65,-130.82,,62.544,,,,NaN,,,,0 / 0,12,2014-12-14 04:25:52:464
0.4119,-9.9832,0.2256,2.4594,-9.2468,-2.1491,-2.0476,-0.7364,2.3747,-0.7233,-0.7306,-0.6732,442.0,-89.6,3.0,32.1,202.04,70.65,-130.82,,62.544,,,,NaN,,,,0 / 0,62,2014-12-14 04:25:52:514
0.3727,-10.0028,0.2844,2.4771,-9.2385,-2.1642,-2.1045,-0.7642,2.4485,-0.7196,-0.711,-0.6707,442.0,-90.0,3.0,32.6,202.42,70.4,-131.14,,62.544,,,,NaN,,,,0 / 0,112,2014-12-14 04:25:52:564
0.304,-9.8949,0.2746,2.4854,-9.2384,-2.1552,-2.1814,-0.6565,2.4298,-0.7147,-0.6891,-0.6805,442.0,-90.0,3.4,32.1,202.79,70.4,-130.93,,62.544,,,,NaN,,,,0 / 0,162,2014-12-14 04:25:52:614
0.3432,-9.8851,0.3432,2.4838,-9.2379,-2.1591,-2.1406,-0.6472,2.5024,-0.7147,-0.6988,-0.6695,442.0,-90.0,3.0,32.6,202.79,70.4,-130.93,,62.544,,,,NaN,,,,0 / 0,211,2014-12-14 04:25:52:663
0.3138,-9.9439,0.4217,2.4951,-9.2363,-2.1531,-2.1813,-0.7077,2.5748,-0.7123,-0.6854,-0.6646,442.0,-90.0,3.0,32.6,202.28,70.38,-131.0,,62.544,,,,NaN,,,,0 / 0,262,2014-12-14 04:25:52:714
0.2256,-9.8949,0.5001,2.5033,-9.2393,-2.1304,-2.2777,-0.6556,2.6306,-0.7233,-0.7025,-0.6829,442.0,-90.0,3.0,32.6,202.28,70.38,-131.0,,62.544,,,,NaN,,,,0 / 0,311,2014-12-14 04:25:52:763
0.2256,-9.8851,0.3923,2.4987,-9.244,-2.1156,-2.3081,-0.6341,2.5724,-0.7196,-0.722,-0.6744,442.0,-90.0,3.0,32.6,201.53,70.42,-130.31,,62.544,,,,NaN,,,,0 / 0,361,2014-12-14 04:25:52:813
0.1961,-9.9243,0.6178,2.4954,-9.2391,-2.1407,-2.2208,-0.6166,2.6702,-0.7831,-0.821,-0.7318,442.0,-90.5,3.4,33.1,201.87,70.41,-130.62,,62.544,,,,NaN,,,,0 / 0,412,2014-12-14 04:25:52:864
0.1961,-9.9243,0.6178,2.4954,-9.2391,-2.1407,-2.2208,-0.6166,2.6702,-0.7831,-0.821,-0.7318,442.0,-90.5,3.4,33.1,201.87,70.41,-130.62,,36.017,,,,NaN,,,,0 / 0,462,2014-12-14 04:25:52:914
0.5786,-9.9439,0.4805,2.5379,-9.1851,-2.3158,-1.9593,-0.7588,2.7963,-1.0849,-0.7049,-0.8723,442.0,-90.5,3.4,34.1,203.26,69.49,-132.38,,36.017,,,,NaN,,,,0 / 0,512,2014-12-14 04:25:52:964
1.167,-9.738,0.4315,2.803,-9.091,-2.3805,-1.6361,-0.647,2.812,-1.1668,-0.4276,-0.9065,442.0,-90.5,3.4,34.1,201.32,67.98,-130.34,,36.017,,,,NaN,,,,0 / 0,562,2014-12-14 04:25:53:014
0.5099,-9.9341,0.1471,3.086,-8.9775,-2.4599,-2.8471,-0.969,2.408,-1.2181,-0.4032,-0.9529,442.0,-91.4,3.9,35.6,198.77,66.27,-128.56,,36.017,,,,NaN,,,,0 / 0,611,2014-12-14 04:25:53:063
0.0686,-9.8851,-0.2844,3.1736,-8.9151,-2.573,-3.105,-0.97,2.2886,-1.2633,-0.2553,-0.9517,442.0,-91.8,3.9,36.5,199.06,65.38,-129.03,,36.017,,,,NaN,,,,0 / 0,662,2014-12-14 04:25:53:114
0.0686,-9.8851,-0.2844,3.1736,-8.9151,-2.573,-3.105,-0.97,2.2886,-1.262,-0.1271,-0.9175,442.0,-91.8,3.9,36.5,199.06,65.38,-129.03,,36.017,,,,NaN,,,,0 / 0,712,2014-12-14 04:25:53:164
0.4315,-9.993,-0.353,3.196,-8.8094,-2.8898,-2.7645,-1.1836,2.5367,-1.0214,-0.5266,-0.9261,442.0,-92.2,4.3,38.5,201.24,64.49,-131.2,,36.017,,,,NaN,,,,0 / 0,762,2014-12-14 04:25:53:214
0.4609,-9.9243,-0.3727,3.2073,-8.7991,-2.9083,-2.7464,-1.1252,2.5357,-1.0324,-0.5315,-0.9285,297.0,-92.7,4.3,39.0,201.89,63.8,-132.2,,36.017,,,,NaN,,,,0 / 0,812,2014-12-14 04:25:53:264
0.2648,-9.9439,-0.9807,3.2073,-8.7991,-2.9083,-2.7464,-1.1252,2.5357,-1.0592,-0.4557,-0.9676,297.0,-92.7,4.3,39.0,201.89,63.8,-132.2,,36.017,,,,NaN,,,,0 / 0,861,2014-12-14 04:25:53:313
0.9316,-10.2185,-0.9807,3.2429,-8.7635,-2.9757,-2.6447,-1.102,1.7891,-1.0641,-0.4765,-1.1167,297.0,-94.0,4.3,39.5,202.02,63.33,-132.54,,43.923,,,,NaN,,,,0 / 0,912,2014-12-14 04:25:53:364
1.0885,-10.4833,-0.7061,3.3289,-8.6711,-3.1466,-2.3973,-1.5474,2.1659,-0.7428,-1.0348,-1.1081,297.0,-94.4,4.7,39.9,203.32,62.15,-133.39,,43.923,,,,NaN,,,,0 / 0,961,2014-12-14 04:25:53:413
0.0392,-11.9151,0.7747,3.2729,-8.7471,-2.991,-3.2337,-3.168,3.7658,0.0098,-1.4294,-0.6903,221.0,-94.8,5.2,39.5,202.28,63.12,-132.42,,43.923,,,,NaN,,,,0 / 0,1011,2014-12-14 04:25:53:463
1.6769,-11.6307,1.4024,3.0907,-8.9429,-2.5771,-3.0907,-3.4821,3.3421,0.7648,-1.0983,-0.4557,221.0,-94.4,5.6,37.0,200.5,65.77,-129.82,,43.923,,,,NaN,,,,0 / 0,1062,2014-12-14 04:25:53:514
2.5595,-11.3953,1.2945,2.9067,-9.1324,-2.0786,-1.2298,-2.4983,3.4809,0.8943,-1.2193,-0.4117,221.0,-94.4,5.6,36.5,200.5,65.77,-129.82,,43.923,,,,NaN,,,,0 / 0,1112,2014-12-14 04:25:53:564
2.1967,-9.6105,-1.4024,3.1704,-9.1882,-1.3024,-0.3362,-0.1379,-0.2961,0.6426,-1.5113,-0.3616,221.0,-93.5,6.0,32.6,184.03,70.22,-113.25,,43.923,,,,NaN,,,,0 / 0,1161,2014-12-14 04:25:53:613
1.775,-9.787,-1.3043,3.2127,-9.1714,-1.3166,-1.016,-0.4391,-0.0857,0.3946,-0.8577,-0.3152,221.0,-93.1,6.0,31.2,184.21,69.26,-112.28,,43.923,,,,NaN,,,,0 / 0,1212,2014-12-14 04:25:53:664
0.9022,-9.6301,-0.6276,3.2103,-9.1679,-1.3465,-2.063,-0.5701,0.4737,0.2822,-0.6891,-0.2663,517.0,-92.7,6.5,30.2,184.21,69.26,-112.28,,43.923,,,,NaN,,,,0 / 0,1261,2014-12-14 04:25:53:713
1.422,-8.4926,0.5394,2.9542,-9.2531,-1.3503,-1.8265,0.5546,1.6837,-0.0831,-1.179,-0.2236,517.0,-91.4,6.5,27.8,188.24,70.44,-114.12,,43.923,,,,NaN,,,,0 / 0,1311,2014-12-14 04:25:53:763
1.422,-8.4926,0.5394,2.9542,-9.2531,-1.3503,-1.8265,0.5546,1.6837,-0.0831,-1.179,-0.2236,517.0,-91.4,6.5,27.8,188.24,70.44,-114.12,,43.923,,,,NaN,,,,0 / 0,1361,2014-12-14 04:25:53:813
2.1084,-7.9042,1.7554,3.1604,-9.1679,-1.4602,-1.052,1.2637,3.2156,-0.9749,-0.9053,-0.43,740.0,-90.5,6.9,26.3,190.58,70.01,-115.21,,43.923,,,,NaN,,,,0 / 0,1411,2014-12-14 04:25:53:863
2.1084,-7.9042,1.7554,3.1604,-9.1679,-1.4602,-1.052,1.2637,3.2156,-0.9749,-0.9053,-0.43,740.0,-90.5,6.9,26.3,190.58,70.01,-115.21,,43.923,,,,NaN,,,,0 / 0,1462,2014-12-14 04:25:53:914
2.0006,-7.9434,1.9319,3.1983,-9.1514,-1.4812,-1.1977,1.208,3.4131,-1.0556,-0.8283,-0.4154,740.0,-90.0,6.9,25.8,189.63,68.94,-114.85,,56.463,,,,NaN,,,,0 / 0,1511,2014-12-14 04:25:53:963
1.471,-8.267,2.2653,3.2714,-9.112,-1.5619,-1.8004,0.845,3.8272,-1.3195,-0.9383,-0.3262,740.0,-89.6,7.3,26.8,189.63,68.94,-114.85,,56.463,,,,NaN,,,,0 / 0,1561,2014-12-14 04:25:54:013
0.5982,-10.2185,3.1185,3.2614,-9.1027,-1.6351,-2.6632,-1.1158,4.7536,-1.2462,-0.9847,-0.5205,740.0,-89.2,8.2,28.2,190.88,68.06,-116.64,,56.463,,,,NaN,,,,0 / 0,1611,2014-12-14 04:25:54:063
3.3833,-18.005,-4.9818,3.5215,-9.0007,-1.6602,-1.0414,1.1023,3.1325,-1.7752,-0.2517,-0.9004,740.0,-88.7,9.1,31.2,185.24,69.29,-113.93,,56.463,,,,NaN,,,,0 / 0,1662,2014-12-14 04:25:54:114
1.7064,-7.5021,0.6767,3.4214,-8.8966,-2.3053,-2.4816,-2.5307,-2.6659,-1.7886,0.6133,-0.4606,490.0,-88.3,10.8,34.1,184.72,66.61,-115.24,,56.463,,,,NaN,,,,0 / 0,1712,2014-12-14 04:25:54:164
0.8532,-5.3642,-2.9126,3.5541,-8.7925,-2.4959,-1.9851,3.0459,1.3878,-1.4795,-0.8344,-1.2058,490.0,-88.3,12.1,36.0,195.18,63.71,-125.08,,56.463,,,,NaN,,,,0 / 0,1761,2014-12-14 04:25:54:213
-1.9711,-6.9627,-5.3544,3.6797,-8.6372,-2.8335,-3.9936,2.8709,-1.5795,-2.105,-0.6365,-0.8076,490.0,-88.7,12.1,37.5,195.18,63.71,-125.08,,56.463,,,,NaN,,,,0 / 0,1812,2014-12-14 04:25:54:264
1.1474,-9.3457,-1.6867,2.8195,-8.4239,-4.1543,-1.6722,-0.9218,2.4676,-1.306,-0.6805,-0.8344,274.0,-87.4,12.6,41.9,213.7,59.14,-142.67,,56.463,,,,NaN,,,,0 / 0,1861,2014-12-14 04:25:54:313
0.4413,-9.1202,-3.2264,2.8912,-8.3795,-4.1947,-2.4499,-0.7407,0.9683,-1.3622,-0.121,-0.7391,274.0,-87.0,13.4,42.4,216.34,58.7,-145.42,,56.463,,,,NaN,,,,0 / 0,1911,2014-12-14 04:25:54:363
1.2062,-9.7086,-2.991,2.8759,-8.1209,-4.6852,-1.6697,-1.5877,1.6941,-1.3378,-0.1002,-0.8515,274.0,-87.4,13.4,45.8,218.54,55.9,-148.46,,56.463,,,,NaN,,,,0 / 0,1962,2014-12-14 04:25:54:414
0.4119,-9.483,-3.7658,2.9619,-7.8297,-5.1081,-2.55,-1.6533,1.3424,-1.5785,-0.0684,-1.0043,274.0,-88.3,13.9,47.8,218.54,55.9,-148.46,,56.463,,,,NaN,,,,0 / 0,2012,2014-12-14 04:25:54:464
0.4315,-9.8949,-2.3242,2.993,-7.6421,-5.3675,-2.5615,-2.2528,3.0433,-1.5638,0.1735,-0.9664,141.0,-88.7,13.9,51.2,221.96,51.91,-150.54,,61.82,,,,NaN,,,,0 / 0,2061,2014-12-14 04:25:54:513
0.5001,-10.395,-2.0692,3.0719,-7.6178,-5.3575,-2.5718,-2.7772,3.2883,-1.361,0.193,-1.0214,141.0,-89.6,14.3,52.1,220.56,50.97,-150.17,,61.82,,,,NaN,,,,0 / 0,2111,2014-12-14 04:25:54:563
-0.814,-10.7873,-1.8044,3.2591,-7.8176,-4.9431,-4.073,-2.9697,3.1387,-0.8906,-0.3604,-1.2401,141.0,-90.9,15.6,53.6,214.94,52.86,-146.6,,61.82,,,,NaN,,,,0 / 0,2162,2014-12-14 04:25:54:614
-0.3923,-12.2093,-1.0199,3.2186,-7.9547,-4.7469,-3.6109,-4.2545,3.727,-0.8161,-0.3873,-1.2327,78.0,-91.4,15.2,54.6,214.94,52.86,-146.6,,61.82,,,,NaN,,,,0 / 0,2211,2014-12-14 04:25:54:663
-0.3923,-12.2093,-1.0199,3.2186,-7.9547,-4.7469,-3.6109,-4.2545,3.727,-0.1063,-0.391,-1.0409,78.0,-92.2,17.8,52.6,214.73,54.21,-145.86,,61.82,,,,NaN,,,,0 / 0,2262,2014-12-14 04:25:54:714
1.824,-13.4057,3.0008,3.0103,-8.6568,-3.4884,-1.1862,-4.7489,6.4893,1.6286,-0.9737,-0.4215,78.0,-91.8,19.1,50.7,204.92,61.98,-139.21,,61.82,,,,NaN,,,,0 / 0,2311,2014-12-14 04:25:54:763
2.7164,-9.1104,-1.5298,3.0063,-9.1869,-1.6533,-0.2899,0.0765,0.1235,1.2034,-0.6964,0.077,78.0,-88.7,22.6,38.5,186.02,69.52,-118.81,,61.82,,,,NaN,,,,0 / 0,2361,2014-12-14 04:25:54:813
-0.4315,-11.2875,-3.7756,2.6742,-9.3134,-1.5101,-3.1057,-1.9741,-2.2654,0.9786,-1.2401,0.6866,78.0,-85.7,23.4,32.6,186.02,69.52,-118.81,,61.82,,,,NaN,,,,0 / 0,2412,2014-12-14 04:25:54:864
1.2749,-10.7187,-1.6966,1.5747,-9.5766,-1.4067,-2.376,-2.2605,-0.985,1.0763,-1.945,0.7147,305.0,-84.0,23.4,30.2,196.19,73.43,-124.03,,61.82,,,,NaN,,,,0 / 0,2462,2014-12-14 04:25:54:914
2.383,-7.3844,-2.8832,1.3707,-9.5768,-1.6051,0.2872,0.7832,-1.6869,0.9175,-2.7513,0.3873,305.0,-81.8,22.1,21.4,209.58,77.57,-131.78,,61.82,,,,NaN,,,,0 / 0,2512,2014-12-14 04:25:54:964
2.4222,-7.2079,-2.1182,1.3695,-9.5627,-1.6883,0.9547,2.2567,-0.7928,0.1625,-1.9022,0.1417,305.0,-81.4,20.8,14.6,223.43,77.19,-140.95,,61.82,,,,NaN,,,,0 / 0,2562,2014-12-14 04:25:55:014
2.7753,-7.2275,-0.6767,1.5258,-9.3924,-2.3716,1.3377,2.5866,1.4203,-0.9762,-1.9841,-0.0501,305.0,-81.4,19.5,10.7,234.05,73.29,-147.24,,55.898,,,,NaN,,,,0 / 0,2612,2014-12-14 04:25:55:064
2.2948,-9.2477,3.6775,2.0564,-9.0626,-3.1324,0.2384,-0.1851,6.8099,-0.9077,-0.7758,-0.8625,405.0,-81.8,20.8,11.7,235.35,67.54,-146.72,,55.898,,,,NaN,,,,0 / 0,2683,2014-12-14 04:25:55:135
2.2948,-9.2477,3.6775,2.0564,-9.0626,-3.1324,0.2384,-0.1851,6.8099,-0.9077,-0.7758,-0.8625,405.0,-81.8,20.8,11.7,235.35,67.54,-146.72,,55.898,,,,NaN,,,,0 / 0,2740,2014-12-14 04:25:55:192
2.2948,-9.2477,3.6775,2.0564,-9.0626,-3.1324,0.2384,-0.1851,6.8099,-0.9077,-0.7758,-0.8625,405.0,-81.8,20.8,11.7,235.35,67.54,-146.72,,55.898,,,,NaN,,,,0 / 0,2762,2014-12-14 04:25:55:214
2.5988,-11.2482,3.1479,2.0564,-9.0626,-3.1324,0.2384,-0.1851,6.8099,-0.8943,-0.4093,-0.992,405.0,-81.8,20.8,11.7,235.35,67.54,-146.72,,55.898,,,,NaN,,,,0 / 0,2812,2014-12-14 04:25:55:264
2.5988,-11.7189,-8.6691,2.4013,-9.103,-2.7458,0.1975,-2.1452,5.8937,-1.0116,-0.3103,-1.3134,168.0,-84.8,23.0,13.6,225.85,68.16,-138.83,,55.898,,,,NaN,,,,0 / 0,2861,2014-12-14 04:25:55:313
4.3247,-11.7189,-8.6691,2.4013,-9.103,-2.7458,0.1975,-2.1452,5.8937,-1.0116,-0.3103,-1.3134,168.0,-84.8,23.0,13.6,225.85,68.16,-138.83,,55.898,,,,NaN,,,,0 / 0,2911,2014-12-14 04:25:55:363
-1.3435,-11.16,-1.5985,2.5103,-7.9171,-5.2142,-3.8538,-3.2428,3.6157,-1.4453,0.1869,-0.5266,168.0,-83.5,27.8,23.9,235.51,53.71,-144.52,,55.898,,,,NaN,,,,0 / 0,2962,2014-12-14 04:25:55:414
3.1185,-9.179,0.0,2.2614,-7.9414,-5.2906,0.8571,-1.2376,5.2906,-1.6713,-0.9432,-0.8625,168.0,-84.0,29.1,26.8,245.88,54.08,-156.86,,55.898,,,,NaN,,,,0 / 0,3011,2014-12-14 04:25:55:463
2.128,-9.3261,-1.4808,2.4792,-7.9077,-5.2434,-0.3511,-1.4185,3.7626,-1.5614,-0.2346,-0.8393,168.0,-84.4,29.1,27.8,245.88,54.08,-156.86,,55.898,,,,NaN,,,,0 / 0,3062,2014-12-14 04:25:55:514
0.5394,-9.7674,-2.6282,2.6907,-7.8462,-5.2314,-2.1513,-1.9212,2.6033,-1.5394,0.4887,-0.777,168.0,-84.0,29.9,29.2,241.49,53.14,-152.78,,61.552,,,,NaN,,,,0 / 0,3112,2014-12-14 04:25:55:564
0.0,-9.9145,-3.1283,2.7939,-7.7488,-5.3217,-2.284,-2.4403,2.9681,-1.328,0.1943,-0.821,168.0,-84.8,29.9,31.2,241.49,53.14,-152.78,,61.552,,,,NaN,,,,0 / 0,3162,2014-12-14 04:25:55:614
0.4707,-10.0126,-2.7851,2.8286,-7.6279,-5.4759,-1.9656,-2.2768,2.7987,-1.3476,0.4191,-0.9554,169.0,-85.7,30.8,33.6,240.28,51.06,-152.68,,61.552,,,,NaN,,,,0 / 0,3212,2014-12-14 04:25:55:664
0.0,-10.0224,-2.0006,3.1289,-7.533,-5.4438,-3.7634,-3.1122,3.7081,-1.3757,0.5693,-0.9896,169.0,-86.6,31.3,35.6,240.28,51.06,-152.68,,61.552,,,,NaN,,,,0 / 0,3261,2014-12-14 04:25:55:713
0.0,-10.0224,-2.0006,3.1289,-7.533,-5.4438,-3.7634,-3.1122,3.7081,-1.0996,0.1649,-1.2205,169.0,-88.3,32.1,37.5,236.13,50.19,-150.11,,61.552,,,,NaN,,,,0 / 0,3311,2014-12-14 04:25:55:763
-0.4021,-11.4346,-0.1961,3.2294,-7.7095,-5.1289,-3.6315,-3.7251,4.9328,-0.854,-0.0342,-1.2022,169.0,-90.5,32.1,38.0,236.13,50.19,-150.11,,61.552,,,,NaN,,,,0 / 0,3362,2014-12-14 04:25:55:814
-0.1765,-11.5522,1.9613,3.3341,-7.9372,-4.6963,-3.5106,-3.615,6.6576,-0.3812,0.0452,-1.2559,169.0,-91.8,33.0,38.0,232.31,51.83,-147.8,,61.552,,,,NaN,,,,0 / 0,3411,2014-12-14 04:25:55:863
-0.5884,-12.6015,2.589,3.4533,-8.3958,-3.7088,-4.0417,-4.2057,6.2978,1.5882,0.2175,-0.4618,154.0,-92.7,33.4,29.7,220.38,58.89,-137.04,,61.552,,,,NaN,,,,0 / 0,3461,2014-12-14 04:25:55:913
1.2553,-11.8268,0.0098,3.1865,-8.9392,-2.4712,-1.9313,-2.8876,2.481,2.1344,-1.4942,0.3176,154.0,-90.9,33.0,22.4,210.85,65.72,-127.79,,61.552,,,,NaN,,,,0 / 0,3511,2014-12-14 04:25:55:963
2.432,-13.4547,-5.4427,2.7924,-9.1846,-2.0038,-0.3604,-4.2701,-3.4389,0.9114,-1.774,0.7184,154.0,-89.6,32.1,16.5,210.85,65.72,-127.79,,61.552,,,,NaN,,,,0 / 0,3562,2014-12-14 04:25:56:014
-0.0392,-13.4547,-5.9722,2.0928,-9.3435,-2.1188,-2.132,-4.1112,-3.8534,1.5321,-1.7153,0.6903,154.0,-86.6,29.5,10.2,224.46,72.32,-135.35,,61.552,,,,NaN,,,,0 / 0,3612,2014-12-14 04:25:56:064
3.3048,-8.9535,-1.3435,1.5136,-9.5265,-1.7679,1.3876,1.1564,0.0372,1.5699,-2.1661,0.5082,154.0,-84.4,26.0,1.9,224.46,72.32,-135.35,,61.552,,,,NaN,,,,0 / 0,3662,2014-12-14 04:25:56:114
2.5497,-7.8551,-2.0104,1.4918,-9.5507,-1.6517,1.0579,1.6956,-0.3586,0.9297,-2.496,0.4203,154.0,-84.4,22.6,-3.0,233.6,76.88,-137.91,,59.631,,,,NaN,,,,0 / 0,3712,2014-12-14 04:25:56:164
1.4024,-6.2272,-2.5693,1.2718,-9.5168,-1.996,0.195,3.3948,-0.4312,0.1344,-2.496,0.1026,154.0,-87.0,17.3,-9.8,247.21,76.03,-147.5,,59.631,,,,NaN,,,,0 / 0,3761,2014-12-14 04:25:56:213
1.6966,-8.1886,-0.1569,1.2779,-9.2591,-2.9676,0.4187,1.0705,2.8107,-1.2584,-1.8204,-0.1112,1729.0,-89.6,16.5,-10.3,257.42,70.76,-156.7,,59.631,,,,NaN,,,,0 / 0,3812,2014-12-14 04:25:56:264
1.4416,-7.9826,1.6966,1.3548,-9.19,-3.1431,-0.0506,1.0603,4.2023,-1.4832,-0.8137,-0.2505,1729.0,-90.5,17.3,-9.8,257.42,70.76,-156.7,,59.631,,,,NaN,,,,0 / 0,3861,2014-12-14 04:25:56:313
2.3536,-9.3752,2.9616,1.6132,-9.1295,-3.1969,0.4756,0.0682,6.3938,-1.6322,-1.6469,-0.7575,1729.0,-90.9,18.2,-7.9,253.62,68.58,-153.22,,59.631,,,,NaN,,,,0 / 0,3911,2014-12-14 04:25:56:363
2.3536,-9.3752,2.9616,1.6132,-9.1295,-3.1969,0.4756,0.0682,6.3938,-1.6322,-1.6469,-0.7575,1729.0,-90.9,18.2,-7.9,253.62,68.58,-153.22,,59.631,,,,NaN,,,,0 / 0,3961,2014-12-14 04:25:56:413
2.638,-9.3457,2.9518,2.6944,-9.0356,-2.696,-0.9091,-7.7684,7.1248,-1.3964,-0.9786,-0.6622,1729.0,-94.0,19.5,-4.9,243.05,68.64,-144.14,,59.631,,,,NaN,,,,0 / 0,4011,2014-12-14 04:25:56:463
2.6674,-4.4522,-1.2749,3.0149,-8.6453,-3.5129,0.0154,2.9966,2.846,-1.0409,-0.7269,-1.3219,1729.0,-95.3,21.3,-2.5,243.05,68.64,-144.14,,59.631,,,,NaN,,,,0 / 0,4061,2014-12-14 04:25:56:513
1.1474,-3.4912,-2.6576,3.1369,-8.5466,-3.6451,-0.4694,4.0943,2.3702,-1.4942,-0.4313,-1.2401,5017.0,-90.9,23.9,0.9,239.27,60.63,-139.29,,59.631,,,,NaN,,,,0 / 0,4112,2014-12-14 04:25:56:564
-4.4326,-8.7966,-7.6198,3.4361,-8.1313,-4.2716,-6.3192,2.973,-1.9949,-2.6084,-0.0904,-0.5376,5017.0,-92.2,24.3,3.9,239.27,60.63,-139.29,,59.631,,,,NaN,,,,0 / 0,4161,2014-12-14 04:25:56:613
-5.9821,-14.2393,-5.5113,3.2344,-7.9092,-4.8118,-9.089,-4.5256,-3.0237,-1.4172,-0.0538,-0.6194,5017.0,-90.0,26.9,6.8,247.57,53.76,-146.09,,59.631,,,,NaN,,,,0 / 0,4211,2014-12-14 04:25:56:663
2.0006,-9.7086,0.1177,2.161,-7.9546,-5.3127,-1.6511,-2.411,4.8812,-1.4013,-0.4019,-0.6744,5017.0,-90.0,26.9,7.8,247.57,53.76,-146.09,,59.631,,,,NaN,,,,0 / 0,4262,2014-12-14 04:25:56:714
0.8532,-9.9538,-2.3732,2.6736,-7.5792,-5.6194,-1.8204,-2.3745,3.2462,-1.4868,-0.1197,-1.0067,5017.0,-91.4,28.6,9.7,256.37,52.9,-156.11,,62.251,,,,NaN,,,,0 / 0,4312,2014-12-14 04:25:56:764
0.049,-9.8459,-3.0204,2.8145,-7.3984,-5.789,-2.7655,-2.4475,2.7686,-1.5357,0.1381,-1.1118,5017.0,-91.4,30.8,15.6,256.37,52.9,-156.11,,62.251,,,,NaN,,,,0 / 0,4361,2014-12-14 04:25:56:813
0.7845,-9.8655,-2.3046,2.8784,-7.2997,-5.8822,-2.0939,-2.5658,3.5776,-1.4856,0.237,-1.1313,2741.0,-92.2,31.7,18.5,254.98,48.35,-154.08,,62.251,,,,NaN,,,,0 / 0,4411,2014-12-14 04:25:56:863
-0.9414,-10.601,-0.7943,3.2544,-7.3683,-5.5935,-4.1959,-3.2327,4.7992,-0.898,-0.1796,-1.2596,2741.0,-94.4,33.0,21.4,251.64,47.72,-151.25,,62.251,,,,NaN,,,,0 / 0,4461,2014-12-14 04:25:56:913
-0.912,-10.6696,-0.7943,3.2695,-7.4655,-5.454,-4.1815,-3.2041,4.6597,-0.7245,-0.3335,-1.1949,228.0,-94.8,33.4,21.9,246.75,49.58,-149.06,,62.251,,,,NaN,,,,0 / 0,4512,2014-12-14 04:25:56:964
-0.0686,-10.7677,1.0885,3.3025,-7.712,-5.0783,-3.3712,-3.0557,6.1668,0.6695,-0.1356,-1.025,228.0,-96.1,32.6,19.0,246.75,49.58,-149.06,,62.251,,,,NaN,,,,0 / 0,4562,2014-12-14 04:25:57:014
0.7453,-12.2289,2.4419,3.1939,-8.8965,-2.6119,-2.4486,-3.3324,5.0538,2.2675,-0.38,0.1515,228.0,-94.0,30.4,9.2,221.9,65.12,-129.28,,62.251,,,,NaN,,,,0 / 0,4613,2014-12-14 04:25:57:065
0.7453,-12.2289,2.4419,3.1939,-8.8965,-2.6119,-2.4486,-3.3324,5.0538,2.2675,-0.38,0.1515,228.0,-94.0,30.4,9.2,221.9,65.12,-129.28,,62.251,,,,NaN,,,,0 / 0,4661,2014-12-14 04:25:57:113
1.1866,-12.935,-4.3738,2.0154,-9.4467,-1.6936,-0.8288,-3.4883,-2.6802,1.5369,-1.9511,0.6707,228.0,-88.3,21.3,-7.9,229.12,74.43,-130.04,,63.055,,,,NaN,,,,0 / 0,4712,2014-12-14 04:25:57:164
1.8437,-6.9137,-3.0204,1.5116,-9.5808,-1.4468,0.3321,2.6671,-1.5736,0.5693,-2.6658,0.3592,228.0,-90.5,10.4,-16.6,233.45,77.61,-131.91,,63.055,,,,NaN,,,,0 / 0,4762,2014-12-14 04:25:57:214
1.167,-6.3645,-3.0401,1.4597,-9.5652,-1.5956,-0.2927,3.2007,-1.4445,0.441,-2.9138,0.2016,228.0,-92.7,8.2,-17.6,240.06,77.26,-137.55,,63.055,,,,NaN,,,,0 / 0,4812,2014-12-14 04:25:57:264
2.0006,-4.766,-2.1967,1.4016,-9.4275,-2.3082,0.5989,4.6615,0.1115,-0.5009,-2.4764,-0.2602,228.0,-97.9,5.2,-18.6,251.18,74.02,-148.73,,63.055,,,,NaN,,,,0 / 0,4862,2014-12-14 04:25:57:314
2.5791,-4.8837,-2.1084,1.4199,-9.3859,-2.4616,1.1592,4.5022,0.3532,-0.7233,-2.182,-0.2028,228.0,-98.3,4.7,-18.1,251.18,74.02,-148.73,,63.055,,,,NaN,,,,0 / 0,4911,2014-12-14 04:25:57:363
2.2653,-10.0714,2.9224,1.6827,-9.0256,-3.4464,-0.7609,-0.5261,5.8785,-1.7654,-0.3775,-0.0354,228.0,-99.2,6.5,-16.6,256.48,66.98,-153.98,,63.055,,,,NaN,,,,0 / 0,4961,2014-12-14 04:25:57:413
2.2653,-10.3754,3.1185,1.8341,-9.0981,-3.1671,0.4313,-1.2773,6.2856,-1.5858,-1.7849,-0.7526,228.0,-102.2,8.2,-13.2,250.27,68.09,-149.92,,63.055,,,,NaN,,,,0 / 0,5063,2014-12-14 04:25:57:515
2.2653,-10.3754,3.1185,1.8341,-9.0981,-3.1671,0.4313,-1.2773,6.2856,-1.5858,-1.7849,-0.7526,228.0,-102.2,8.2,-13.2,250.27,68.09,-149.92,,63.055,,,,NaN,,,,0 / 0,5066,2014-12-14 04:25:57:518
2.7459,-9.13,4.0403,2.1886,-9.1672,-2.7098,0.5573,0.0372,6.7502,-1.1606,-0.1234,-0.8222,228.0,-104.4,8.2,-10.8,248.31,68.13,-147.78,,63.055,,,,NaN,,,,0 / 0,5111,2014-12-14 04:25:57:563
2.7459,-9.13,4.0403,2.1886,-9.1672,-2.7098,0.5573,0.0372,6.7502,-1.1606,-0.1234,-0.8222,228.0,-104.4,8.2,-10.8,248.31,68.13,-147.78,,63.055,,,,NaN,,,,0 / 0,5161,2014-12-14 04:25:57:613
0.6472,-7.7473,-3.3343,2.9395,-8.6596,-3.5413,-1.737,2.9207,3.5291,-2.441,1.7422,-0.5156,50.0,-102.2,9.9,-6.9,237.03,63.66,-137.93,,62.463,,,,NaN,,,,0 / 0,5212,2014-12-14 04:25:57:664
-3.2558,-5.3839,-6.1684,3.1608,-8.1391,-4.4648,-5.0044,4.4322,-0.1247,-2.562,-0.5217,-0.7844,50.0,-102.2,11.3,-3.5,244.38,56.09,-144.7,,62.463,,,,NaN,,,,0 / 0,5261,2014-12-14 04:25:57:713
2.4909,-9.7576,0.5982,2.1238,-7.6935,-5.6982,0.3671,-2.0641,6.2964,-1.5382,-0.2456,-0.584,50.0,-100.5,13.0,-1.0,258.81,51.68,-159.56,,62.463,,,,NaN,,,,0 / 0,5311,2014-12-14 04:25:57:763
2.4615,-9.3065,0.0588,2.1253,-7.6817,-5.7136,0.3361,-1.6248,5.7724,-1.5308,-0.777,-0.8589,31.0,-100.5,13.4,0.0,258.81,51.68,-159.56,,62.463,,,,NaN,,,,0 / 0,5362,2014-12-14 04:25:57:814
0.559,-9.5811,-3.2264,2.4777,-7.539,-5.7616,-2.1541,-1.9931,2.2018,-1.5357,0.4948,-0.8308,31.0,-101.8,13.9,1.4,256.93,51.39,-157.98,,62.463,,,,NaN,,,,0 / 0,5412,2014-12-14 04:25:57:864
0.353,-10.2087,-2.7851,2.5396,-7.3083,-6.0257,-1.961,-2.7925,3.427,-1.4172,-0.0415,-0.981,31.0,-100.5,14.3,4.3,254.94,50.24,-156.73,,62.463,,,,NaN,,,,0 / 0,5462,2014-12-14 04:25:57:914
0.2256,-10.248,-2.9322,2.5635,-7.273,-6.0582,-2.2105,-2.9357,3.2731,-1.3964,-0.0147,-1.0153,31.0,-100.9,14.7,4.8,256.1,47.87,-157.06,,62.463,,,,NaN,,,,0 / 0,5511,2014-12-14 04:25:57:963
0.7649,-10.2676,-2.2163,2.645,-7.0945,-6.2323,-1.88,-3.173,4.016,-1.3341,0.3983,-1.1057,31.0,-100.9,15.6,8.2,256.1,47.87,-157.06,,62.463,,,,NaN,,,,0 / 0,5561,2014-12-14 04:25:58:013
-0.4021,-10.1597,-1.5298,2.8667,-7.0345,-6.2023,-2.8961,-3.1448,4.6431,-1.1741,0.3457,-1.1716,31.0,-101.8,15.6,8.7,254.03,45.83,-155.19,,63.459,,,,NaN,,,,0 / 0,5611,2014-12-14 04:25:58:063
-0.5786,-10.4147,1.7848,2.637,-7.4762,-5.7726,-3.2156,-2.9384,7.5574,-0.193,-0.2639,-1.1387,25.0,-104.4,14.3,10.7,250.71,49.67,-155.45,,63.459,,,,NaN,,,,0 / 0,5662,2014-12-14 04:25:58:114
-0.353,-14.2491,1.5102,2.49,-8.362,-4.4773,-2.843,-5.887,5.9876,1.9853,0.2419,-0.3067,25.0,-106.6,11.7,9.7,242.82,58.51,-150.92,,63.459,,,,NaN,,,,0 / 0,5712,2014-12-14 04:25:58:164
2.7753,-13.0232,-2.0398,2.0865,-9.1187,-2.9439,1.6669,-4.0232,-1.46,0.7245,-1.157,0.8308,25.0,-106.6,9.1,6.3,234.97,68.41,-144.67,,63.459,,,,NaN,,,,0 / 0,5761,2014-12-14 04:25:58:213
1.2454,-13.2488,-7.1687,1.7822,-9.2613,-2.6873,0.6597,-3.6246,-4.4519,1.08,-1.5785,0.9139,25.0,-105.7,9.1,4.8,236.66,70.8,-146.45,,63.459,,,,NaN,,,,0 / 0,5811,2014-12-14 04:25:58:263
0.7453,-13.3763,-5.5506,1.7203,-9.2751,-2.6802,-0.4748,-3.9737,-4.4884,1.2462,-1.416,0.7098,25.0,-105.3,9.1,3.9,236.66,70.8,-146.45,,63.459,,,,NaN,,,,0 / 0,5861,2014-12-14 04:25:58:313
2.5301,-8.62,-1.0591,1.0887,-9.4539,-2.3682,1.5101,0.5691,2.0642,1.0287,-2.3274,0.5754,25.0,-104.8,8.6,1.4,246.77,74.59,-155.31,,63.459,,,,NaN,,,,0 / 0,5911,2014-12-14 04:25:58:363
2.0986,-7.1785,-3.0499,0.8853,-9.5096,-2.2256,1.2133,2.3312,-0.8243,0.4533,-2.7489,0.0452,54.0,-106.6,8.6,0.0,250.02,75.86,-158.31,,63.459,,,,NaN,,,,0 / 0,5961,2014-12-14 04:25:58:413
3.1675,-5.8644,-1.3827,1.0377,-9.3705,-2.6996,1.6493,3.9572,0.5912,-0.7196,-1.62,-0.3409,54.0,-109.2,9.1,0.0,251.16,72.85,-158.97,,61.879,,,,NaN,,,,0 / 0,6011,2014-12-14 04:25:58:463
1.3631,-7.4531,0.8238,1.3039,-9.1549,-3.2646,0.8242,1.7705,3.5098,-1.5724,-0.9053,-0.1723,54.0,-109.2,10.8,1.4,251.16,72.85,-158.97,,61.879,,,,NaN,,,,0 / 0,6062,2014-12-14 04:25:58:514
0.912,-7.5609,1.6867,1.4148,-9.075,-3.4371,-0.5126,1.6023,4.6629,-1.7263,-0.6023,-0.215,54.0,-108.7,12.1,2.9,249.93,67.73,-157.63,,61.879,,,,NaN,,,,0 / 0,6112,2014-12-14 04:25:58:564
2.2163,-9.0123,3.9913,1.6214,-8.9818,-3.5873,0.5361,0.3421,7.4806,-2.0305,-0.8002,-0.821,38.0,-108.7,15.2,4.8,248.02,66.33,-155.68,,61.879,,,,NaN,,,,0 / 0,6162,2014-12-14 04:25:58:614
1.3043,-11.6895,3.6677,2.0249,-9.164,-2.8444,0.0541,-0.8976,5.9629,-2.0305,-0.8002,-0.821,38.0,-108.7,15.2,4.8,248.02,66.33,-155.68,,61.879,,,,NaN,,,,0 / 0,6212,2014-12-14 04:25:58:664
2.8537,-9.9636,2.8733,2.1218,-9.1653,-2.7687,0.732,-0.7982,5.642,-1.1692,-0.0232,-0.9077,38.0,-111.8,19.1,9.2,232.68,69.16,-142.54,,61.879,,,,NaN,,,,0 / 0,6262,2014-12-14 04:25:58:714
0.6276,-4.2561,-1.775,2.9537,-8.5262,-3.8406,-2.326,4.2701,2.0656,-1.2767,-0.2859,-1.0873,27.0,-111.8,20.8,8.7,223.02,68.84,-132.9,,61.879,,,,NaN,,,,0 / 0,6312,2014-12-14 04:25:58:764
-1.3631,-4.3738,-2.893,2.7384,-8.154,-4.71,-2.326,4.2701,2.0656,-1.2767,-0.2859,-1.0873,27.0,-110.0,23.4,9.2,236.96,60.39,-142.44,,61.879,,,,NaN,,,,0 / 0,6362,2014-12-14 04:25:58:814
-6.0311,-13.1213,-5.3544,2.4383,-8.1161,-4.935,-8.4694,-5.0052,-0.4194,-1.4563,-0.1271,-0.3616,27.0,-110.0,24.7,11.7,236.96,60.39,-142.44,,61.879,,,,NaN,,,,0 / 0,6411,2014-12-14 04:25:58:863
3.1283,-8.8946,-0.0785,1.3666,-8.2343,-5.1477,1.7617,-0.6603,5.0692,-1.3219,-0.7721,-0.788,27.0,-108.3,26.5,12.6,259.27,57.11,-165.13,,61.879,,,,NaN,,,,0 / 0,6462,2014-12-14 04:25:58:914
0.7355,-9.6301,-3.4814,1.8258,-8.0264,-5.3305,-1.0903,-1.6038,1.8492,-1.4575,0.3409,-0.7868,19.0,-108.7,27.3,13.6,256.19,54.93,-161.09,,65.648,,,,NaN,,,,0 / 0,6512,2014-12-14 04:25:58:964
0.7845,-10.3754,-2.0496,2.0193,-7.824,-5.5568,-1.2347,-2.5514,3.5072,-1.405,0.0794,-0.9395,19.0,-108.7,28.6,14.6,256.44,52.92,-160.03,,65.648,,,,NaN,,,,0 / 0,6561,2014-12-14 04:25:59:013
0.7845,-10.3754,-2.0496,2.0193,-7.824,-5.5568,-1.2347,-2.5514,3.5072,-1.4942,0.1038,-1.0299,19.0,-108.7,28.6,14.6,256.44,52.92,-160.03,,65.648,,,,NaN,,,,0 / 0,6612,2014-12-14 04:25:59:064
-0.0981,-9.5811,-2.9322,2.1281,-7.7043,-5.6821,-2.2261,-1.8768,2.7499,-1.3854,0.1576,-1.0556,19.0,-108.7,29.9,16.5,255.99,51.78,-159.47,,65.648,,,,NaN,,,,0 / 0,6661,2014-12-14 04:25:59:113
0.0883,-10.0616,-2.0006,2.223,-7.5202,-5.8886,-2.017,-2.4434,3.8096,-1.1606,0.044,-1.113,19.0,-109.2,30.8,17.5,256.58,50.33,-159.85,,65.648,,,,NaN,,,,0 / 0,6712,2014-12-14 04:25:59:164
-0.0392,-10.1891,-1.8338,2.2366,-7.5297,-5.8713,-2.2758,-2.6594,4.0374,-1.0983,0.0379,-1.1142,15.0,-109.6,31.3,18.5,256.06,50.16,-159.15,,65.648,,,,NaN,,,,0 / 0,6762,2014-12-14 04:25:59:214
-0.0392,-10.1989,-1.3729,2.2606,-7.6864,-5.655,-2.2998,-2.5125,4.2821,-0.8125,0.1026,-1.0568,15.0,-110.0,31.7,17.5,255.19,51.61,-158.21,,65.648,,,,NaN,,,,0 / 0,6812,2014-12-14 04:25:59:264
0.1079,-10.2283,-0.8826,2.2654,-7.7276,-5.5966,-2.0044,-2.3766,5.3214,0.3238,0.7416,-0.8479,15.0,-109.6,31.7,15.1,255.19,51.61,-158.21,,65.648,,,,NaN,,,,0 / 0,6861,2014-12-14 04:25:59:313
2.1673,-12.5623,-2.8635,2.2326,-9.1817,-2.6235,-0.0653,-3.3807,-0.24,1.1423,0.7795,-0.2749,15.0,-108.3,30.4,10.7,245.45,59.36,-149.54,,65.648,,,,NaN,,,,0 / 0,6912,2014-12-14 04:25:59:364
3.3833,-10.5421,-5.6781,2.0722,-9.2715,-2.4324,1.3111,-1.2707,-3.2457,0.8332,-0.92,0.3531,15.0,-103.1,27.3,0.4,235.27,70.98,-139.57,,65.648,,,,NaN,,,,0 / 0,6962,2014-12-14 04:25:59:414
1.7946,-11.0619,-3.9227,1.8553,-9.2548,-2.6601,-0.0607,-1.8071,-1.2626,1.0348,-1.9389,0.121,15.0,-100.9,25.2,-3.5,242.54,70.69,-145.11,,54.101,,,,NaN,,,,0 / 0,7011,2014-12-14 04:25:59:463
4.972,-8.8162,-1.2651,1.6102,-9.3636,-2.429,3.3618,0.5475,1.1639,0.8858,-1.879,0.1307,15.0,-100.9,21.7,-8.3,245.5,72.71,-146.46,,54.101,,,,NaN,,,,0 / 0,7061,2014-12-14 04:25:59:513
4.1384,-7.4334,-2.4909,1.8112,-9.3495,-2.3401,2.3272,1.9161,-0.1508,0.2908,-1.4856,0.2859,15.0,-99.6,19.1,-10.8,245.5,72.71,-146.46,,54.101,,,,NaN,,,,0 / 0,7111,2014-12-14 04:25:59:563
2.4222,-6.3253,-3.1577,1.9622,-9.2424,-2.6266,0.46,2.9171,-0.5312,0.171,-1.7373,0.1796,15.0,-99.6,18.6,-11.3,242.52,72.1,-142.0,,54.101,,,,NaN,,,,0 / 0,7162,2014-12-14 04:25:59:614
1.7652,-6.4135,-3.1283,2.0341,-9.1883,-2.7583,-0.0238,2.8826,-0.4484,-0.4948,-1.3292,-0.474,23.0,-100.5,16.9,-12.7,245.68,69.54,-143.59,,54.101,,,,NaN,,,,0 / 0,7212,2014-12-14 04:25:59:664
1.8829,-7.051,-2.5007,2.147,-9.0603,-3.0776,-0.2739,2.4408,0.2337,-0.9322,-0.9261,-0.6842,23.0,-100.5,16.9,-12.7,245.68,69.54,-143.59,,54.101,,,,NaN,,,,0 / 0,7261,2014-12-14 04:25:59:713
3.7069,-9.1986,-0.8826,2.0419,-8.7114,-4.014,-0.2375,-0.7324,3.9649,-1.2486,-1.4441,-0.4948,23.0,-101.4,19.9,-9.8,256.0,62.66,-153.04,,54.101,,,,NaN,,,,0 / 0,7311,2014-12-14 04:25:59:763
3.7069,-9.1986,-0.8826,2.2614,-8.608,-4.1181,2.1516,0.7529,2.8433,-1.609,-0.6915,-0.8112,23.0,-103.1,21.3,-8.3,256.0,62.66,-153.04,,54.101,,,,NaN,,,,0 / 0,7361,2014-12-14 04:25:59:813
4.1874,-9.6988,0.0,2.6663,-8.3805,-4.3392,1.5211,-1.3183,4.3392,-1.3463,-1.2633,-0.733,23.0,-103.5,23.4,-6.4,251.87,58.71,-148.43,,54.101,,,,NaN,,,,0 / 0,7412,2014-12-14 04:25:59:864
-1.0591,-9.8165,-0.049,2.4436,-8.7752,-3.6324,-3.5027,-1.0412,3.5834,-0.6988,-0.1552,-0.3409,23.0,-104.4,23.9,-5.4,247.16,63.49,-146.07,,54.101,,,,NaN,,,,0 / 0,7461,2014-12-14 04:25:59:913
-1.0591,-9.8165,-0.049,2.4436,-8.7752,-3.6324,-3.5027,-1.0412,3.5834,-0.6988,-0.1552,-0.3409,23.0,-104.4,23.9,-5.4,247.16,63.49,-146.07,,54.101,,,,NaN,,,,0 / 0,7511,2014-12-14 04:25:59:963
-1.6671,-9.3261,0.2942,1.9432,-8.9704,-3.4535,-2.108,0.0868,5.1084,-0.821,-1.5809,-0.6072,23.0,-103.5,23.9,-5.4,249.6,65.07,-149.18,,56.993,,,,NaN,,,,0 / 0,7562,2014-12-14 04:26:00:014
-1.6671,-9.3261,0.2942,1.9432,-8.9704,-3.4535,-2.108,0.0868,5.1084,-0.821,-1.5809,-0.6072,23.0,-103.5,23.9,-5.4,249.6,65.07,-149.18,,56.993,,,,NaN,,,,0 / 0,7612,2014-12-14 04:26:00:064
0.7649,-10.954,0.9218,1.4731,-9.1556,-3.1899,-0.7082,-1.7985,4.1118,-0.3885,-1.0886,-0.5363,23.0,-104.8,23.9,-5.4,253.82,69.0,-155.21,,56.993,,,,NaN,,,,0 / 0,7661,2014-12-14 04:26:00:113
1.2847,-9.5125,-0.1961,1.5734,-9.2129,-2.9693,-0.0043,0.0633,2.8713,-0.6622,-0.7734,-0.5217,23.0,-104.8,23.9,-5.4,250.43,69.96,-152.08,,56.993,,,,NaN,,,,0 / 0,7711,2014-12-14 04:26:00:163
-0.5394,-9.9734,-0.0196,1.6245,-9.2547,-2.8075,-2.0756,-0.8952,2.7192,-0.5657,-0.4056,-0.3714,23.0,-102.7,23.9,-5.9,248.55,69.8,-150.04,,56.993,,,,NaN,,,,0 / 0,7761,2014-12-14 04:26:00:213
-0.6767,-9.8361,0.2648,1.5185,-9.3008,-2.7127,-2.1559,-0.4764,2.8991,-0.6304,-0.5925,-0.496,23.0,-101.8,23.4,-6.9,249.71,71.52,-150.76,,56.993,,,,NaN,,,,0 / 0,7812,2014-12-14 04:26:00:264
-0.4805,-9.8655,0.3138,1.4655,-9.322,-2.6689,-2.0343,-0.5141,2.9141,-0.6964,-0.7355,-0.6243,23.0,-101.8,23.4,-5.9,249.71,71.52,-150.76,,56.993,,,,NaN,,,,0 / 0,7861,2014-12-14 04:26:00:313
-0.1471,-10.1205,0.5982,1.4308,-9.34,-2.6245,-1.7152,-0.6922,3.1541,-0.7135,-0.7037,-0.6561,23.0,-101.8,23.4,-6.4,249.55,72.25,-151.4,,56.993,,,,NaN,,,,0 / 0,7911,2014-12-14 04:26:00:363
0.0883,-9.9145,0.608,1.4481,-9.3774,-2.4774,-1.3795,-0.6548,3.0952,-0.7709,-0.496,-0.6292,23.0,-101.8,23.9,-6.9,249.55,72.25,-151.4,,56.993,,,,NaN,,,,0 / 0,7961,2014-12-14 04:26:00:413
0.1079,-9.7576,0.5296,1.4729,-9.3871,-2.4257,-1.4239,-0.4,2.9945,-0.7929,-0.4533,-0.6316,23.0,-101.4,23.4,-6.9,247.21,73.18,-148.73,,56.993,,,,NaN,,,,0 / 0,8011,2014-12-14 04:26:00:463
0.1373,-9.7674,0.5099,1.4868,-9.3901,-2.4053,-1.3789,-0.3675,2.9349,-0.8002,-0.4459,-0.6341,23.0,-101.4,23.9,-5.9,246.33,73.24,-148.28,,56.993,,,,NaN,,,,0 / 0,8061,2014-12-14 04:26:00:513
-0.5001,-10.0518,0.2648,1.5011,-9.3936,-2.3828,-1.5894,-0.5308,2.6672,-0.7379,-0.4545,-0.6487,23.0,-101.8,23.4,-5.9,246.33,73.24,-148.28,,56.993,,,,NaN,,,,0 / 0,8111,2014-12-14 04:26:00:563
-0.0098,-10.0028,0.4609,1.5034,-9.4265,-2.2476,-1.425,-0.5077,2.7379,-0.6805,-0.7172,-0.7013,23.0,-100.5,23.9,-4.9,244.43,73.66,-147.03,,45.356,,,,NaN,,,,0 / 0,8162,2014-12-14 04:26:00:614
-0.2746,-10.1499,0.4315,1.5678,-9.4386,-2.1506,-1.425,-0.5077,2.7379,-0.6805,-0.7172,-0.7013,23.0,-100.5,23.9,-4.9,244.43,73.66,-147.03,,45.356,,,,NaN,,,,0 / 0,8211,2014-12-14 04:26:00:663
0.1569,-9.9341,0.5099,1.5639,-9.4428,-2.1348,-1.407,-0.4913,2.6447,-0.6988,-0.7037,-0.6695,23.0,-100.0,23.4,-5.9,241.34,74.34,-143.77,,45.356,,,,NaN,,,,0 / 0,8261,2014-12-14 04:26:00:713
-0.0294,-9.8655,0.0196,1.6136,-9.4481,-2.0737,-1.5744,-0.3291,2.3188,-0.7282,-0.5815,-0.6475,23.0,-100.0,23.9,-5.9,239.75,74.46,-142.11,,45.356,,,,NaN,,,,0 / 0,8311,2014-12-14 04:26:00:763
0.0,-9.8361,0.4021,1.63,-9.4472,-2.0651,-1.63,-0.3889,2.4672,-0.7208,-0.6341,-0.6768,23.0,-100.0,23.9,-5.4,239.75,74.46,-142.11,,45.356,,,,NaN,,,,0 / 0,8362,2014-12-14 04:26:00:814