ACCELEROMETER X (m/s²),ACCELEROMETER Y (m/s²),ACCELEROMETER Z (m/s²),GRAVITY X (m/s²),GRAVITY Y (m/s²),GRAVITY Z (m/s²),LINEAR ACCELERATION X (m/s²),LINEAR ACCELERATION Y (m/s²),LINEAR ACCELERATION Z (m/s²),GYROSCOPE X (rad/s),GYROSCOPE Y (rad/s),GYROSCOPE Z (rad/s),LIGHT (lux),MAGNETIC FIELD X (μT),MAGNETIC FIELD Y (μT),MAGNETIC FIELD Z (μT),ORIENTATION X (°),ORIENTATION Y (°),ORIENTATION Z (°),PROXIMITY (i),SOUND LEVEL (dB),LOCATION Latitude : ,LOCATION Longitude : ,LOCATION Altitude ( m),LOCATION Altitude-google ( m),LOCATION Speed ( Kmh),LOCATION Accuracy ( m),LOCATION ORIENTATION (°),Satellites in range,Time since start in ms ,YYYY-MO-DD HH-MI-SS_SSS
0.3825,-9.8557,-0.7943,0.4654,-9.7785,-0.5785,-0.0829,-0.0772,-0.2158,0.0318,-0.0538,-0.0122,158.0,-89.6,29.9,78.0,190.62,85.71,-140.94,,59.306,,,,NaN,,,,0 / 0,10,2014-12-14 04:22:35:557
0.4119,-9.9047,-0.7257,0.4629,-9.7779,-0.5903,-0.0511,-0.1268,-0.1354,0.0269,-0.0379,-0.0073,158.0,-89.6,29.1,76.5,191.59,85.61,-141.89,,59.306,,,,NaN,,,,0 / 0,57,2014-12-14 04:22:35:604
0.4119,-9.9047,-0.7257,0.4629,-9.7779,-0.5903,-0.0511,-0.1268,-0.1354,0.0269,-0.0379,-0.0073,158.0,-89.6,29.1,76.5,191.59,85.61,-141.89,,59.306,,,,NaN,,,,0 / 0,107,2014-12-14 04:22:35:654
0.5492,-9.9047,-0.6767,0.4755,-9.7768,-0.5987,0.0737,-0.1279,-0.078,0.0208,-0.0305,-0.0195,158.0,-89.6,29.5,77.5,190.87,85.53,-141.54,,59.306,,,,NaN,,,,0 / 0,157,2014-12-14 04:22:35:704
0.4413,-9.8655,-0.7061,0.4866,-9.7761,-0.6013,0.0332,-0.1678,-0.144,0.0367,-0.0281,-0.0024,158.0,-90.0,29.5,77.5,190.87,85.53,-141.54,,59.306,,,,NaN,,,,0 / 0,208,2014-12-14 04:22:35:755
0.4413,-9.8655,-0.7061,0.4866,-9.7761,-0.6013,0.0332,-0.1678,-0.144,0.0367,-0.0281,-0.0024,158.0,-90.0,29.5,77.5,190.87,85.53,-141.54,,59.306,,,,NaN,,,,0 / 0,258,2014-12-14 04:22:35:805
0.4315,-9.9047,-0.6767,0.4903,-9.7755,-0.6074,-0.0208,-0.1292,-0.0203,0.0403,0.0098,0.0,158.0,-89.6,29.5,77.0,190.78,85.42,-141.08,,59.306,,,,NaN,,,,0 / 0,313,2014-12-14 04:22:35:860
0.3825,-9.9538,-0.6178,0.4899,-9.7759,-0.6023,-0.1552,-0.1176,-0.0694,0.0293,0.0012,-0.0037,158.0,-89.6,29.5,77.5,190.42,85.43,-141.09,,59.306,,,,NaN,,,,0 / 0,357,2014-12-14 04:22:35:904
0.3236,-9.9538,-0.6767,0.47,-9.7777,-0.5878,-0.1463,-0.176,-0.0888,0.0379,-0.0012,0.0134,158.0,-89.6,29.1,77.5,190.67,85.6,-141.36,,59.306,,,,NaN,,,,0 / 0,407,2014-12-14 04:22:35:954
0.4315,-9.9047,-0.6178,0.4565,-9.7785,-0.5862,-0.0054,-0.1263,0.0273,0.033,-0.0098,-0.0134,158.0,-89.6,29.1,77.5,190.67,85.6,-141.36,,59.306,,,,NaN,,,,0 / 0,458,2014-12-14 04:22:36:005
0.3334,-9.9636,-0.4217,0.4583,-9.7793,-0.5701,-0.1249,-0.1842,0.1484,0.0415,-0.0232,-0.0073,158.0,-89.2,29.1,77.0,190.64,85.7,-141.27,,59.306,,,,NaN,,,,0 / 0,507,2014-12-14 04:22:36:054
0.1863,-10.0126,-0.2746,0.4466,-9.7826,-0.5207,-0.2603,-0.23,0.2461,0.1075,-0.055,-0.022,158.0,-89.6,29.5,77.5,188.64,85.99,-139.38,,38.682,,,,NaN,,,,0 / 0,557,2014-12-14 04:22:36:104
0.1765,-10.0518,-0.3727,0.4313,-9.7873,-0.4402,-0.2548,-0.2646,0.0675,0.1014,-0.0892,-0.0208,158.0,-89.2,29.5,77.0,188.64,85.99,-139.38,,38.682,,,,NaN,,,,0 / 0,608,2014-12-14 04:22:36:155
0.4119,-9.689,-0.4805,0.3872,-9.7903,-0.4122,0.0247,0.1014,-0.0684,0.0574,-0.0183,-0.0403,158.0,-89.2,29.9,76.0,186.4,86.69,-136.79,,38.682,,,,NaN,,,,0 / 0,658,2014-12-14 04:22:36:205
0.0981,-9.8361,-0.5394,0.4825,-9.7834,-0.4709,-0.3845,-0.0526,-0.0685,-0.0257,0.0342,-0.0965,158.0,-89.2,29.5,76.5,186.4,86.69,-136.79,,38.682,,,,NaN,,,,0 / 0,707,2014-12-14 04:22:36:254
-0.1471,-10.1303,-0.2256,0.4635,-9.78,-0.5551,-0.6106,-0.3503,0.3295,-0.0965,0.0599,-0.16,158.0,-90.0,29.5,76.5,183.83,86.06,-134.3,,38.682,,,,NaN,,,,0 / 0,757,2014-12-14 04:22:36:304
-0.049,-10.0714,-0.4609,0.5206,-9.7779,-0.5403,-0.5696,-0.2935,0.0794,-0.0159,0.1332,-0.2749,158.0,-91.8,29.9,77.5,185.9,85.61,-136.06,,38.682,,,,NaN,,,,0 / 0,807,2014-12-14 04:22:36:354
0.5099,-10.0812,-0.2452,0.6098,-9.7729,-0.5368,-0.0999,-0.3083,0.2916,-0.0159,0.1332,-0.2749,158.0,-91.8,29.9,77.5,185.9,85.61,-136.06,,38.682,,,,NaN,,,,0 / 0,857,2014-12-14 04:22:36:404
0.304,-10.5029,0.4511,0.7192,-9.77,-0.448,-0.3956,-0.7133,0.7814,0.2248,0.0648,-0.1747,158.0,-94.4,28.6,77.5,176.37,85.04,-126.45,,38.682,,,,NaN,,,,0 / 0,907,2014-12-14 04:22:36:454
0.1569,-10.9442,0.9709,0.7014,-9.7796,-0.1921,-0.6131,-1.1155,1.0159,0.5803,-0.2712,0.0208,158.0,-93.5,28.6,76.0,155.58,85.75,-105.32,,38.682,,,,NaN,,,,0 / 0,957,2014-12-14 04:22:36:504
0.3825,-10.9638,1.3827,0.6636,-9.7842,-0.0011,-0.2811,-1.1797,1.3839,0.7807,-0.4801,-0.0122,158.0,-93.1,28.6,74.6,155.58,85.75,-105.32,,35.748,,,,NaN,,,,0 / 0,1007,2014-12-14 04:22:36:554
0.9905,-11.5522,1.726,0.6811,-9.7716,0.4718,0.3094,-1.7807,1.2541,0.9468,-0.7379,-0.0965,158.0,-92.2,29.5,72.1,105.99,85.15,-55.29,,35.748,,,,NaN,,,,0 / 0,1058,2014-12-14 04:22:36:605
0.2256,-8.9535,-0.3628,1.0019,-9.7098,0.9414,-0.7763,0.7563,-1.3042,0.3885,-0.2199,0.011,158.0,-91.4,30.4,68.2,97.82,81.94,-46.78,,35.748,,,,NaN,,,,0 / 0,1108,2014-12-14 04:22:36:655
-0.1569,-8.826,-0.3236,0.9947,-9.7119,0.9272,-1.1516,0.8859,-1.2509,0.3152,-0.1796,0.0452,158.0,-90.9,30.4,68.2,97.82,81.94,-46.78,,35.748,,,,NaN,,,,0 / 0,1158,2014-12-14 04:22:36:705
1.0983,-9.3752,1.5298,0.6725,-9.7443,0.8755,-0.5559,0.761,-0.0267,0.3225,-0.7428,0.1552,368.0,-89.6,29.9,66.8,92.97,83.52,-41.4,,35.748,,,,NaN,,,,0 / 0,1207,2014-12-14 04:22:36:754
1.5985,-9.8459,2.4811,0.8797,-9.6685,1.3847,0.7187,-0.1774,1.0964,0.529,-0.606,0.1564,368.0,-87.0,29.9,64.3,87.93,83.35,-36.28,,35.748,,,,NaN,,,,0 / 0,1258,2014-12-14 04:22:36:805
1.4122,-9.787,2.3144,0.9301,-9.636,1.5663,0.4821,-0.1511,0.748,0.6341,-0.5315,0.1918,368.0,-85.7,29.5,62.4,82.02,79.29,-30.7,,35.748,,,,NaN,,,,0 / 0,1307,2014-12-14 04:22:36:854
1.0101,-9.434,1.9221,0.9478,-9.5874,1.8311,0.0623,0.1534,0.091,0.7721,-0.5082,0.2737,368.0,-85.3,29.9,60.9,82.02,79.29,-30.7,,35.748,,,,NaN,,,,0 / 0,1358,2014-12-14 04:22:36:905
1.0983,-8.4533,1.6279,0.8755,-9.5295,2.1428,0.2229,1.0762,-0.5149,0.5925,-0.4643,0.3848,605.0,-83.5,29.9,57.0,74.2,76.35,-22.22,,35.748,,,,NaN,,,,0 / 0,1407,2014-12-14 04:22:36:954
1.0591,-8.5318,1.6083,0.8051,-9.5143,2.236,0.2229,1.0762,-0.5149,0.5925,-0.4643,0.3848,605.0,-83.5,29.9,57.0,74.2,76.35,-22.22,,59.571,,,,NaN,,,,0 / 0,1457,2014-12-14 04:22:37:004
1.3925,-9.4634,2.0398,0.7884,-9.5261,2.1916,0.6042,0.0626,-0.1518,0.0354,-0.4704,0.3751,605.0,-81.4,28.2,55.6,71.69,76.15,-19.78,,59.571,,,,NaN,,,,0 / 0,1508,2014-12-14 04:22:37:055
1.8829,-9.6596,3.0303,0.8198,-9.5506,2.0699,1.0631,-0.109,0.9603,-0.4019,-0.3653,0.43,605.0,-78.3,26.9,55.1,73.23,76.88,-21.61,,59.571,,,,NaN,,,,0 / 0,1558,2014-12-14 04:22:37:105
1.5298,-8.7868,2.991,0.8564,-9.5661,1.9817,0.6735,0.7793,1.0094,-0.5986,-0.3225,0.3763,778.0,-78.7,26.0,55.6,73.23,76.88,-21.61,,59.571,,,,NaN,,,,0 / 0,1607,2014-12-14 04:22:37:154
1.5396,-7.9434,3.1087,0.8998,-9.5924,1.8296,0.6398,1.649,1.2791,-1.0409,-0.3702,0.2028,778.0,-77.4,25.2,58.0,76.42,78.0,-26.19,,59.571,,,,NaN,,,,0 / 0,1658,2014-12-14 04:22:37:205
2.5791,-15.7397,-0.0392,1.175,-9.6583,1.228,1.4042,-6.0814,-1.2672,-1.8253,0.6011,-0.5962,778.0,-77.9,22.6,62.4,92.89,80.02,-43.74,,59.571,,,,NaN,,,,0 / 0,1708,2014-12-14 04:22:37:255
0.2648,-11.9347,-2.8243,1.3222,-9.7051,0.4832,-1.0574,-2.2296,-3.3075,-0.8161,0.9041,0.0586,778.0,-80.0,20.8,66.3,92.89,80.02,-43.74,,59.571,,,,NaN,,,,0 / 0,1758,2014-12-14 04:22:37:305
-2.8341,-7.1392,-4.9426,1.3961,-9.6845,-0.6574,-4.2302,2.5452,-4.2851,-1.2828,0.3751,-0.182,778.0,-80.9,17.8,69.2,164.19,80.95,-115.22,,59.571,,,,NaN,,,,0 / 0,1807,2014-12-14 04:22:37:354
0.2942,-9.9145,-0.1961,0.4408,-9.6411,-1.7391,-0.1466,-0.2734,1.543,-0.6988,-0.1491,-0.1014,778.0,-82.7,14.7,73.1,164.19,80.95,-115.22,,57.579,,,,NaN,,,,0 / 0,1857,2014-12-14 04:22:37:404
1.1866,-9.434,-0.8238,0.4392,-9.6305,-1.7974,0.7474,0.1965,0.9737,-0.6988,-0.1491,-0.1014,400.0,-82.7,13.4,74.6,215.39,79.12,-166.27,,57.579,,,,NaN,,,,0 / 0,1908,2014-12-14 04:22:37:455
0.304,-10.3166,-3.0597,0.6977,-9.5066,-2.3039,-0.3937,-0.81,-0.7558,-0.5217,0.5217,-0.2004,195.0,-85.7,10.4,78.5,212.02,75.79,-163.15,,57.579,,,,NaN,,,,0 / 0,1957,2014-12-14 04:22:37:504
0.304,-10.3166,-3.0597,0.6977,-9.5066,-2.3039,-0.3937,-0.81,-0.7558,-0.5217,0.5217,-0.2004,195.0,-85.7,10.4,78.5,212.02,75.79,-163.15,,57.579,,,,NaN,,,,0 / 0,2007,2014-12-14 04:22:37:554
-0.0196,-9.2281,-2.9616,0.8013,-9.4028,-2.6675,-0.8209,0.1748,-0.2941,-0.6231,0.584,-0.2957,195.0,-87.4,8.6,79.5,212.43,73.5,-163.28,,57.579,,,,NaN,,,,0 / 0,2058,2014-12-14 04:22:37:605
0.3138,-10.1793,-2.5988,1.0505,-9.2433,-3.103,-0.7087,0.1093,0.4721,-0.6634,0.8809,-0.2505,195.0,-89.2,6.9,80.9,212.55,71.83,-162.98,,57.579,,,,NaN,,,,0 / 0,2107,2014-12-14 04:22:37:654
-0.0196,-10.6991,-1.6671,1.29,-9.2006,-3.1394,-1.3096,-1.4985,1.4723,-0.3836,0.6915,-0.5962,195.0,-93.5,3.4,83.4,210.73,70.26,-160.84,,57.579,,,,NaN,,,,0 / 0,2157,2014-12-14 04:22:37:704
-0.5099,-10.905,-1.5789,1.3393,-9.2035,-3.1101,-1.8492,-1.7015,1.5313,-0.2957,0.6536,-0.5852,96.0,-94.4,3.4,84.8,206.2,69.8,-156.7,,57.579,,,,NaN,,,,0 / 0,2208,2014-12-14 04:22:37:755
-0.8924,-11.464,0.7453,1.3029,-9.3228,-2.7491,-2.1953,-2.1411,3.4944,0.2859,0.4007,-0.4398,96.0,-96.6,1.3,85.8,204.21,71.93,-154.64,,57.579,,,,NaN,,,,0 / 0,2258,2014-12-14 04:22:37:805
-0.3334,-11.7288,2.0986,1.2741,-9.4154,-2.4283,-1.6075,-2.3133,4.5269,0.6035,0.4948,-0.4533,96.0,-97.4,1.3,85.3,204.21,71.93,-154.64,,56.332,,,,NaN,,,,0 / 0,2308,2014-12-14 04:22:37:855
1.9123,-11.209,0.7845,1.2072,-9.7305,0.1719,0.7051,-1.4785,0.6126,2.6365,-0.0244,0.4398,96.0,-99.6,6.0,81.9,165.7,81.8,-115.25,,56.332,,,,NaN,,,,0 / 0,2358,2014-12-14 04:22:37:905
0.3138,-12.4741,-5.6781,0.9442,-9.7198,0.8967,-0.6304,-2.7542,-6.5748,2.6365,-0.0244,0.4398,96.0,-99.6,6.0,81.9,165.7,81.8,-115.25,,56.332,,,,NaN,,,,0 / 0,2407,2014-12-14 04:22:37:954
-0.6865,-12.1308,-7.0216,0.8249,-9.7312,0.8906,-2.6749,-2.0627,-8.1487,1.6432,-0.9493,1.2584,96.0,-97.9,9.1,79.5,93.05,82.89,-42.81,,56.332,,,,NaN,,,,0 / 0,2457,2014-12-14 04:22:38:004
4.0403,-7.4825,-0.9218,0.2148,-9.7326,1.1834,3.8255,2.2501,-2.1052,1.5418,-1.3085,0.6707,96.0,-95.7,12.1,77.0,56.64,86.3,-5.62,,56.332,,,,NaN,,,,0 / 0,2507,2014-12-14 04:22:38:054
1.6573,-6.9823,-1.6181,0.4413,-9.6965,1.3976,1.216,2.7142,-3.0157,0.9639,-1.1032,0.9725,483.0,-90.5,17.3,72.1,67.91,81.41,-17.52,,56.332,,,,NaN,,,,0 / 0,2557,2014-12-14 04:22:38:104
1.3141,-7.0804,-2.0888,0.4044,-9.7008,1.3788,0.9097,2.6204,-3.4676,0.8467,-1.2327,0.9285,483.0,-89.6,17.8,72.1,66.7,81.57,-16.34,,56.332,,,,NaN,,,,0 / 0,2607,2014-12-14 04:22:38:154
1.0787,-7.9826,-1.6769,0.3598,-9.7442,1.0444,0.7189,1.7616,-2.7213,0.4276,-1.2669,0.4313,483.0,-86.6,18.6,72.1,65.26,82.2,-15.47,,56.332,,,,NaN,,,,0 / 0,2693,2014-12-14 04:22:38:240
1.0787,-7.9826,-1.6769,0.3598,-9.7442,1.0444,0.7189,1.7616,-2.7213,0.4276,-1.2669,0.4313,483.0,-86.6,18.6,72.1,65.26,82.2,-15.47,,56.332,,,,NaN,,,,0 / 0,2753,2014-12-14 04:22:38:300
1.0787,-7.9826,-1.6769,0.3598,-9.7442,1.0444,0.7189,1.7616,-2.7213,0.4276,-1.2669,0.4313,483.0,-86.6,18.6,72.1,65.26,82.2,-15.47,,56.332,,,,NaN,,,,0 / 0,2758,2014-12-14 04:22:38:305
2.334,-7.9728,2.8439,0.3852,-9.779,0.6277,1.9488,1.8061,2.2162,-0.6524,-0.2847,0.5156,881.0,-83.5,19.1,71.7,79.89,85.69,-31.53,,56.332,,,,NaN,,,,0 / 0,2807,2014-12-14 04:22:38:354
2.334,-7.9728,2.8439,0.3852,-9.779,0.6277,1.9488,1.8061,2.2162,-0.6524,-0.2847,0.5156,881.0,-83.5,19.1,71.7,79.89,85.69,-31.53,,56.332,,,,NaN,,,,0 / 0,2859,2014-12-14 04:22:38:406
1.3827,-10.4931,4.7268,0.6461,-9.7527,0.7983,0.7366,-0.7404,3.9285,-0.6744,-0.6634,0.2297,881.0,-83.1,18.2,76.5,85.2,83.99,-38.99,,56.332,,,,NaN,,,,0 / 0,2907,2014-12-14 04:22:38:454
0.7649,-13.0723,4.6974,0.7346,-9.7273,1.0056,0.3245,-2.8351,3.682,-0.2553,-1.124,0.0953,881.0,-82.7,18.2,77.0,85.2,83.99,-38.99,,62.601,,,,NaN,,,,0 / 0,2957,2014-12-14 04:22:38:504
4.1384,-18.5542,-3.8148,1.5173,-9.6132,1.2057,2.6211,-8.9409,-5.0205,-1.2584,0.0733,-0.4276,881.0,-84.8,19.1,79.5,96.27,78.6,-51.53,,62.601,,,,NaN,,,,0 / 0,3007,2014-12-14 04:22:38:554
4.1384,-18.5542,-3.8148,1.5173,-9.6132,1.2057,2.6211,-8.9409,-5.0205,-1.2584,0.0733,-0.4276,881.0,-84.8,19.1,79.5,96.27,78.6,-51.53,,62.601,,,,NaN,,,,0 / 0,3057,2014-12-14 04:22:38:604
-0.8041,-4.2561,-5.0112,1.5192,-9.6385,0.9806,0.8344,-5.2578,-7.4922,-1.3305,1.7385,0.4985,881.0,-85.3,19.1,80.4,101.98,79.37,-57.16,,62.601,,,,NaN,,,,0 / 0,3108,2014-12-14 04:22:38:655
-1.52,-12.023,-2.0104,0.998,-9.5102,-2.1752,-2.518,-2.5128,0.1648,-0.8222,0.9823,0.2175,881.0,-92.2,14.3,89.2,164.05,79.22,-118.41,,62.601,,,,NaN,,,,0 / 0,3157,2014-12-14 04:22:38:704
2.0496,-8.9927,-1.1474,0.7632,-9.4853,-2.3701,1.2864,0.4926,1.2227,-0.7868,0.2321,-0.1356,881.0,-92.7,13.4,90.2,209.63,75.29,-162.15,,62.601,,,,NaN,,,,0 / 0,3208,2014-12-14 04:22:38:755
0.1667,-9.9243,-2.1967,0.7134,-9.3948,-2.7201,-0.5467,-0.5295,0.5234,-0.6377,0.8467,-0.0855,393.0,-97.9,11.7,93.1,213.75,73.34,-165.3,,62.601,,,,NaN,,,,0 / 0,3258,2014-12-14 04:22:38:805
0.255,-9.9047,-2.9224,0.7983,-9.338,-2.8871,-0.5433,-0.5667,-0.0353,-0.6891,0.347,-0.3176,393.0,-99.2,9.9,94.1,213.0,72.21,-164.54,,62.601,,,,NaN,,,,0 / 0,3307,2014-12-14 04:22:38:854
-0.3236,-9.993,-2.7655,0.8794,-9.2715,-3.0717,-1.203,-0.7214,0.3062,-0.7575,0.7147,-0.2651,393.0,-100.5,9.5,95.6,213.0,72.21,-164.54,,62.601,,,,NaN,,,,0 / 0,3357,2014-12-14 04:22:38:904
0.7453,-9.9145,-2.128,1.0626,-9.1943,-3.2414,-0.2892,-0.9867,0.9711,-0.6707,0.8858,-0.2456,393.0,-102.2,8.2,96.0,212.99,70.12,-164.05,,62.601,,,,NaN,,,,0 / 0,3407,2014-12-14 04:22:38:954
-0.4119,-10.091,-2.3438,1.1988,-9.1745,-3.2499,-1.6107,-0.9165,0.9061,-0.5999,1.047,-0.463,228.0,-106.1,6.9,96.0,209.7,69.32,-159.75,,62.601,,,,NaN,,,,0 / 0,3458,2014-12-14 04:22:39:005
-1.0591,-10.6108,-1.8044,1.2679,-9.1629,-3.2565,-2.327,-1.4479,1.4521,-0.4166,0.6206,-0.562,228.0,-109.2,5.6,96.5,209.1,69.12,-158.73,,62.601,,,,NaN,,,,0 / 0,3508,2014-12-14 04:22:39:055
-0.4315,-10.9638,-0.9709,1.2399,-9.199,-3.1642,-1.6714,-1.7649,2.1933,-0.1784,0.5253,-0.474,228.0,-110.9,5.2,96.5,209.1,69.12,-158.73,,62.601,,,,NaN,,,,0 / 0,3558,2014-12-14 04:22:39:105
0.3628,-13.288,3.0204,1.2794,-9.6474,-1.209,-0.9166,-3.6406,4.2295,2.0232,0.628,-0.0648,228.0,-114.4,8.2,91.2,204.61,72.6,-153.71,,63.341,,,,NaN,,,,0 / 0,3607,2014-12-14 04:22:39:154
0.3628,-13.288,3.0204,1.2794,-9.6474,-1.209,-0.9166,-3.6406,4.2295,2.0232,0.628,-0.0648,166.0,-114.4,8.2,91.2,204.61,72.6,-153.71,,63.341,,,,NaN,,,,0 / 0,3657,2014-12-14 04:22:39:204
1.8927,-11.209,-0.3628,1.0604,-9.7453,0.2757,0.8323,-1.4637,-0.6386,2.7245,-0.0648,0.5693,166.0,-114.4,13.9,85.3,128.04,83.59,-75.43,,63.341,,,,NaN,,,,0 / 0,3708,2014-12-14 04:22:39:255
1.216,-10.7383,-2.6184,0.2293,-9.7679,0.8398,0.9867,-0.9704,-3.4582,1.9755,-0.7025,0.898,166.0,-107.4,23.0,74.6,69.48,84.91,-15.27,,63.341,,,,NaN,,,,0 / 0,3757,2014-12-14 04:22:39:304
1.9417,-6.9235,-1.52,0.2206,-9.6731,1.598,1.1916,2.9653,-3.2357,1.0324,-1.361,0.8674,166.0,-99.2,28.2,65.8,69.48,84.91,-15.27,,63.341,,,,NaN,,,,0 / 0,3807,2014-12-14 04:22:39:354
1.1376,-6.6391,-1.7848,0.2107,-9.6779,1.5699,0.9269,3.0388,-3.3547,0.8711,-1.5027,0.7758,650.0,-98.3,28.6,65.8,61.97,80.7,-7.64,,63.341,,,,NaN,,,,0 / 0,3858,2014-12-14 04:22:39:405
2.0594,-7.1981,-1.8927,0.2679,-9.7275,1.2143,1.7915,2.5294,-3.107,0.1735,-1.0238,0.3897,650.0,-94.8,29.5,64.3,66.88,82.71,-12.44,,63.341,,,,NaN,,,,0 / 0,3908,2014-12-14 04:22:39:455
1.6867,-8.4141,3.501,0.3614,-9.7812,0.6062,1.3253,1.3671,2.8948,-1.0263,-0.1857,0.4728,1177.0,-90.9,29.1,66.8,83.4,85.87,-30.8,,63.341,,,,NaN,,,,0 / 0,3958,2014-12-14 04:22:39:505
1.9515,-9.4536,4.6385,0.4293,-9.7788,0.6008,1.5222,0.3252,4.0378,-1.1949,-0.1173,0.2981,1177.0,-90.5,28.2,67.8,83.4,85.87,-30.8,,63.341,,,,NaN,,,,0 / 0,4007,2014-12-14 04:22:39:554
1.824,-10.3166,5.1387,0.4885,-9.7736,0.6385,1.3355,-0.543,4.5002,-1.1215,-0.2773,0.1894,1177.0,-90.9,28.2,69.2,89.1,85.3,-37.42,,63.341,,,,NaN,,,,0 / 0,4058,2014-12-14 04:22:39:605
3.3343,-6.8352,2.991,1.0944,-9.6279,1.5085,2.2399,2.7927,1.4825,-0.0929,-0.3897,-0.3164,1177.0,-89.6,28.2,69.2,85.83,79.04,-35.96,,63.341,,,,NaN,,,,0 / 0,4107,2014-12-14 04:22:39:654
3.7461,-10.8265,1.4906,1.5054,-9.572,1.5105,2.2408,-1.2546,-0.0199,-0.0929,-0.3897,-0.3164,1177.0,-89.6,28.2,69.2,85.83,79.04,-35.96,,63.341,,,,NaN,,,,0 / 0,4158,2014-12-14 04:22:39:705
3.7265,-13.5626,-8.522,1.8531,-9.6117,0.5936,1.8734,-3.9509,-9.1155,-2.182,1.8534,0.2651,1177.0,-93.1,26.9,74.6,103.37,77.0,-54.84,,63.341,,,,NaN,,,,0 / 0,4207,2014-12-14 04:22:39:754
0.4511,-5.6781,-0.9611,1.7375,-9.6258,-0.7036,-1.2864,3.9478,-0.2574,-0.7856,1.1484,-0.0819,1177.0,-96.1,24.3,79.0,161.61,78.98,-112.05,,62.89,,,,NaN,,,,0 / 0,4257,2014-12-14 04:22:39:804
-1.5691,-4.3443,-4.3443,1.7369,-9.6081,-0.9157,-3.3059,5.2637,-3.4286,-0.9566,0.7782,-0.3763,1177.0,-96.6,24.3,79.5,161.61,78.98,-112.05,,62.89,,,,NaN,,,,0 / 0,4308,2014-12-14 04:22:39:855
0.7747,-9.9636,-0.5982,0.6285,-9.5291,-2.2298,0.1462,-0.4345,1.6316,-0.7844,0.9933,0.485,476.0,-98.3,21.7,83.4,216.16,76.34,-164.26,,62.89,,,,NaN,,,,0 / 0,4357,2014-12-14 04:22:39:904
2.2359,-9.4242,-0.4119,0.7285,-9.5091,-2.2838,1.5074,0.085,1.8719,-0.8503,0.2834,0.0098,476.0,-98.3,21.3,85.3,216.16,76.34,-164.26,,62.89,,,,NaN,,,,0 / 0,4407,2014-12-14 04:22:39:954
2.2359,-9.4242,-0.4119,0.7285,-9.5091,-2.2838,1.5074,0.085,1.8719,-0.6891,1.0091,-0.1087,476.0,-99.2,20.4,86.3,213.32,75.85,-162.31,,62.89,,,,NaN,,,,0 / 0,4457,2014-12-14 04:22:40:004
-0.5099,-9.5517,-3.5108,0.9568,-9.2939,-2.9798,-1.4667,-0.2578,-0.531,-0.8393,0.6548,-0.3286,476.0,-103.5,17.8,88.7,214.16,71.39,-162.2,,62.89,,,,NaN,,,,0 / 0,4508,2014-12-14 04:22:40:055
0.0,-9.6988,-2.0202,0.9886,-9.195,-3.2625,-1.1651,-0.4057,0.4284,-0.9481,0.931,-0.3494,212.0,-105.3,16.5,90.2,214.16,71.39,-162.2,,62.89,,,,NaN,,,,0 / 0,4558,2014-12-14 04:22:40:105
-0.4315,-10.8265,-1.726,1.2134,-9.0885,-3.4781,-1.6449,-1.738,1.7521,-0.6255,0.9175,-0.4484,212.0,-110.0,13.4,91.7,215.14,68.36,-162.08,,62.89,,,,NaN,,,,0 / 0,4608,2014-12-14 04:22:40:155
-0.5296,-10.7971,-1.6181,1.2304,-9.0933,-3.4596,-1.76,-1.7038,1.8415,-0.1747,0.5791,-0.4252,212.0,-112.2,12.6,90.7,214.44,68.01,-160.42,,62.89,,,,NaN,,,,0 / 0,4658,2014-12-14 04:22:40:205
0.7649,-13.4547,3.0793,1.2863,-9.626,-1.3627,-0.5214,-3.8288,4.442,1.2975,0.9395,-0.2896,212.0,-115.3,14.3,85.3,214.44,68.01,-160.42,,62.89,,,,NaN,,,,0 / 0,4708,2014-12-14 04:22:40:255
1.0395,-11.7091,0.4805,1.1199,-9.7404,-0.2038,0.9067,-1.161,-2.3926,2.2504,-0.755,1.0873,212.0,-110.9,24.7,67.8,191.88,78.98,-136.65,,55.104,,,,NaN,,,,0 / 0,4757,2014-12-14 04:22:40:304
-0.3825,-11.6503,-5.4917,0.5911,-9.7368,1.0075,-0.9736,-1.9135,-6.4992,2.1673,-0.2834,1.1118,146.0,-109.6,25.6,64.8,88.44,83.16,-30.4,,55.104,,,,NaN,,,,0 / 0,4807,2014-12-14 04:22:40:354
1.9908,-8.6985,-1.4808,0.1516,-9.6944,1.4717,1.8392,0.9959,-2.9525,1.8705,-1.576,0.7208,146.0,-104.8,27.3,56.0,66.24,81.32,-5.88,,55.104,,,,NaN,,,,0 / 0,4858,2014-12-14 04:22:40:405
0.2942,-6.8352,-2.589,0.1168,-9.6613,1.6782,0.1774,2.826,-4.2672,1.2669,-1.7642,0.8564,146.0,-102.2,28.6,51.2,66.24,81.32,-5.88,,55.104,,,,NaN,,,,0 / 0,4908,2014-12-14 04:22:40:455
0.9022,-6.7274,-2.3046,-0.0677,-9.6902,1.5054,0.9699,2.9628,-3.8099,0.8112,-1.6261,0.6768,146.0,-100.0,28.2,48.7,59.69,81.16,2.57,,55.104,,,,NaN,,,,0 / 0,4958,2014-12-14 04:22:40:505
0.9022,-6.7274,-2.3046,-0.0677,-9.6902,1.5054,0.9699,2.9628,-3.8099,0.8112,-1.6261,0.6768,146.0,-100.0,28.2,48.7,59.69,81.16,2.57,,55.104,,,,NaN,,,,0 / 0,5086,2014-12-14 04:22:40:633
0.9022,-6.7274,-2.3046,-0.0677,-9.6902,1.5054,0.9699,2.9628,-3.8099,0.8112,-1.6261,0.6768,146.0,-100.0,28.2,48.7,59.69,81.16,2.57,,55.104,,,,NaN,,,,0 / 0,5089,2014-12-14 04:22:40:636
1.8633,-6.6587,-1.1278,-0.0806,-9.7392,1.1454,1.9439,3.0805,-2.2732,0.033,-1.2853,0.5974,1063.0,-98.3,28.2,48.2,58.58,83.28,4.03,,55.104,,,,NaN,,,,0 / 0,5107,2014-12-14 04:22:40:654
1.422,-13.5724,5.0798,0.9165,-9.7291,0.8213,0.5055,-3.8433,4.2586,-0.0599,-1.3671,-0.0354,1509.0,-96.6,24.7,53.1,107.79,82.79,-48.14,,55.104,,,,NaN,,,,0 / 0,5157,2014-12-14 04:22:40:704
2.4517,-9.1104,4.8053,1.0378,-9.6681,1.2734,1.4139,0.5577,3.5318,-0.0599,-1.3671,-0.0354,1509.0,-96.6,23.9,52.6,107.79,82.79,-48.14,,58.858,,,,NaN,,,,0 / 0,5207,2014-12-14 04:22:40:754
2.5595,-7.4629,3.9521,1.1054,-9.6485,1.3618,1.4541,2.1857,2.5902,-0.226,-0.2407,-0.2309,1509.0,-97.0,24.3,53.1,98.05,79.7,-39.07,,58.858,,,,NaN,,,,0 / 0,5258,2014-12-14 04:22:40:805
1.0787,-9.1202,-6.5705,1.3053,-9.7193,-0.0361,-0.2266,0.5991,-6.5344,-1.7471,2.8259,0.5534,1509.0,-99.2,21.3,57.5,150.31,82.35,-91.58,,58.858,,,,NaN,,,,0 / 0,5307,2014-12-14 04:22:40:854
-1.2651,-3.501,-5.7075,1.6823,-9.6195,-0.8975,-2.9474,6.1185,-4.81,-1.4148,0.259,-0.5608,1509.0,-100.0,19.9,58.5,150.31,82.35,-91.58,,58.858,,,,NaN,,,,0 / 0,5357,2014-12-14 04:22:40:904
-4.5405,-10.6304,-7.6884,1.6323,-9.5565,-1.4763,-7.2221,-3.5256,-5.0059,-0.8125,1.1936,0.4019,1509.0,-100.9,18.2,61.4,191.68,77.03,-132.13,,58.858,,,,NaN,,,,0 / 0,5407,2014-12-14 04:22:40:954
1.0689,-9.3163,-0.9709,0.7423,-9.525,-2.2122,0.3266,0.2087,1.2414,-0.7685,0.2028,0.1295,656.0,-100.9,16.9,62.9,191.68,77.03,-132.13,,58.858,,,,NaN,,,,0 / 0,5457,2014-12-14 04:22:41:004
1.0689,-9.3163,-0.9709,0.7423,-9.525,-2.2122,0.3266,0.2087,1.2414,-0.6267,0.5962,-0.044,656.0,-101.4,16.5,63.4,221.63,76.23,-161.45,,58.858,,,,NaN,,,,0 / 0,5507,2014-12-14 04:22:41:054
-0.1373,-9.993,-2.3634,0.861,-9.477,-2.3695,-0.9983,-0.5159,0.0061,-0.6671,1.0201,-0.1063,656.0,-102.2,15.6,64.8,219.75,75.1,-160.03,,58.858,,,,NaN,,,,0 / 0,5557,2014-12-14 04:22:41:104
-0.1863,-10.0616,-3.0204,0.8837,-9.401,-2.6476,-1.0701,-0.6606,-0.3728,-0.6634,0.5253,-0.2676,656.0,-103.1,13.9,64.8,221.76,73.46,-161.54,,64.473,,,,NaN,,,,0 / 0,5607,2014-12-14 04:22:41:154
0.0686,-9.8361,-2.5399,0.9106,-9.3361,-2.8597,-0.842,-0.5,0.3198,-0.6952,0.6891,-0.3067,656.0,-104.8,13.0,65.8,221.76,73.46,-161.54,,64.473,,,,NaN,,,,0 / 0,5657,2014-12-14 04:22:41:204
0.6178,-10.0224,-2.1477,1.1327,-9.2413,-3.0799,-0.5148,-0.7811,0.9323,-0.6292,0.8919,-0.3775,305.0,-106.1,11.7,66.8,220.4,70.45,-159.81,,64.473,,,,NaN,,,,0 / 0,5707,2014-12-14 04:22:41:254
-1.3043,-10.5029,-1.167,1.347,-9.2421,-2.99,-2.6513,-1.2609,1.823,-0.2773,0.7184,-0.5046,305.0,-108.3,9.9,65.8,216.86,70.46,-155.75,,64.473,,,,NaN,,,,0 / 0,5758,2014-12-14 04:22:41:305
-1.3435,-10.552,-1.1474,1.3348,-9.2579,-2.946,-2.6783,-1.294,1.7987,-0.0648,0.4386,-0.4044,305.0,-109.2,9.5,66.3,216.86,70.46,-155.75,,64.473,,,,NaN,,,,0 / 0,5807,2014-12-14 04:22:41:354
-0.5492,-14.2883,1.422,1.197,-9.5467,-1.8971,-1.5304,-4.5357,3.9467,0.4899,0.4435,-0.4801,142.0,-110.0,9.1,64.3,214.36,74.39,-152.93,,64.473,,,,NaN,,,,0 / 0,5857,2014-12-14 04:22:41:404
1.8437,-13.1213,2.4124,1.015,-9.7435,-0.4528,0.8286,-3.3778,2.8652,2.8747,0.237,0.2358,142.0,-109.6,10.8,56.0,177.01,83.49,-114.04,,64.473,,,,NaN,,,,0 / 0,5907,2014-12-14 04:22:41:454
1.8437,-13.1213,2.4124,1.015,-9.7435,-0.4528,0.8286,-3.3778,2.8652,2.8747,0.237,0.2358,142.0,-109.6,10.8,56.0,177.01,83.49,-114.04,,64.473,,,,NaN,,,,0 / 0,5957,2014-12-14 04:22:41:504
2.8341,-13.6705,-6.0997,0.7655,-9.7018,1.2078,2.0687,-3.9686,-7.3075,2.1722,-0.3995,1.2413,142.0,-106.6,13.0,49.7,96.33,81.62,-32.37,,64.473,,,,NaN,,,,0 / 0,6007,2014-12-14 04:22:41:554
0.6865,-10.65,-1.5102,0.2783,-9.7376,1.1276,0.4082,-0.9124,-2.6378,1.8192,-0.8149,1.0873,951.0,-103.1,14.3,44.3,79.96,83.2,-13.86,,58.988,,,,NaN,,,,0 / 0,6057,2014-12-14 04:22:41:604
1.9711,-7.0019,-1.5102,0.1855,-9.6361,1.8112,1.7857,2.6342,-3.3215,1.4087,-1.5479,0.7844,951.0,-100.5,14.3,39.9,72.98,79.3,-5.85,,58.988,,,,NaN,,,,0 / 0,6107,2014-12-14 04:22:41:654
1.6475,-5.5211,-1.1082,0.2743,-9.6252,1.8576,1.3733,4.1041,-2.9658,0.9077,-1.3292,0.5644,951.0,-98.7,13.9,38.0,72.98,79.3,-5.85,,58.988,,,,NaN,,,,0 / 0,6157,2014-12-14 04:22:41:704
1.6671,-5.7271,-0.9709,0.41,-9.6414,1.7453,1.2571,3.9143,-2.7162,0.4276,-0.9749,0.4129,951.0,-98.3,13.4,37.5,78.1,79.14,-10.41,,58.988,,,,NaN,,,,0 / 0,6207,2014-12-14 04:22:41:754
1.3337,-7.5021,-0.2746,0.4826,-9.66,1.6194,0.5287,1.2597,-0.5836,-0.226,-1.0311,0.4618,2824.0,-97.0,12.6,37.5,84.05,80.08,-16.59,,58.988,,,,NaN,,,,0 / 0,6257,2014-12-14 04:22:41:804
1.1964,-8.3553,1.4122,0.526,-9.71,1.2685,0.6704,1.3548,0.1437,-0.4472,-0.7489,0.5058,2824.0,-96.1,12.6,37.5,84.05,80.08,-16.59,,58.988,,,,NaN,,,,0 / 0,6307,2014-12-14 04:22:41:854
2.2065,-8.8652,3.0499,0.5599,-9.7314,1.0754,1.6466,0.8662,1.9744,-0.8943,0.2016,0.3262,2824.0,-95.3,11.7,39.0,94.32,82.9,-27.5,,58.988,,,,NaN,,,,0 / 0,6358,2014-12-14 04:22:41:905
1.3631,-13.1703,5.0602,1.0015,-9.6639,1.3331,0.3616,-3.5065,3.7272,-0.5718,-0.92,-0.1869,2824.0,-94.8,10.8,40.9,94.32,82.9,-27.5,,58.988,,,,NaN,,,,0 / 0,6408,2014-12-14 04:22:41:955
4.1482,-10.4539,2.6478,1.4541,-9.5522,1.6768,2.6941,-0.9017,0.971,-0.066,-1.4123,-0.1527,2824.0,-94.4,10.8,40.9,101.38,79.61,-36.24,,58.988,,,,NaN,,,,0 / 0,6458,2014-12-14 04:22:42:005
5.2368,-18.7993,-2.8733,1.9464,-9.5098,1.3947,3.2904,-9.2895,-4.2681,-1.0177,0.3995,-0.821,1769.0,-94.8,9.1,43.9,105.09,76.92,-40.93,,58.988,,,,NaN,,,,0 / 0,6507,2014-12-14 04:22:42:054
0.1961,-4.0109,-3.501,1.7627,-9.6429,-0.2793,-1.5665,5.632,-3.2216,-0.887,1.2303,0.0672,1769.0,-94.0,8.2,46.8,161.91,79.51,-99.01,,63.321,,,,NaN,,,,0 / 0,6557,2014-12-14 04:22:42:104
-4.6876,-11.4542,-3.8736,1.7344,-9.6399,-0.4847,-4.2871,3.6307,-3.2378,-1.0446,-0.0098,0.0867,1769.0,-94.0,7.3,49.7,167.24,79.42,-105.61,,63.321,,,,NaN,,,,0 / 0,6607,2014-12-14 04:22:42:154
-2.3732,-12.2485,-1.2749,0.9196,-9.632,-1.5968,-3.2929,-2.6165,0.322,-0.6158,0.6402,0.3189,1166.0,-93.5,6.9,51.2,167.24,79.42,-105.61,,63.321,,,,NaN,,,,0 / 0,6657,2014-12-14 04:22:42:204
1.4514,-9.3065,-0.0196,0.6351,-9.6237,-1.7752,0.8163,0.3172,1.7556,-0.5889,0.0611,-0.0525,1166.0,-93.1,6.0,52.6,221.58,78.92,-160.31,,63.321,,,,NaN,,,,0 / 0,6708,2014-12-14 04:22:42:255
1.4514,-9.3065,-0.0196,0.6351,-9.6237,-1.7752,0.8163,0.3172,1.7556,-0.5889,0.0611,-0.0525,1166.0,-93.1,6.0,52.6,221.58,78.92,-160.31,,63.321,,,,NaN,,,,0 / 0,6757,2014-12-14 04:22:42:304
0.0098,-9.7086,-1.7162,0.5758,-9.5807,-2.0124,-0.6151,-0.1377,0.2276,-0.5901,1.014,0.1002,1166.0,-93.5,5.2,53.6,219.43,78.51,-158.66,,63.321,,,,NaN,,,,0 / 0,6807,2014-12-14 04:22:42:354
0.0,-9.6301,-1.6083,0.5671,-9.5658,-2.0843,-0.5671,-0.0643,0.476,-0.4398,0.4753,-0.055,614.0,-93.1,4.3,54.6,225.23,77.28,-164.78,,63.321,,,,NaN,,,,0 / 0,6857,2014-12-14 04:22:42:404
0.255,-9.4732,-2.8537,0.6025,-9.5315,-2.2267,-0.0435,0.4701,0.0398,-0.4716,0.8699,-0.1759,614.0,-93.1,3.4,55.1,225.34,76.4,-164.86,,63.321,,,,NaN,,,,0 / 0,6907,2014-12-14 04:22:42:454
-0.1667,-9.5517,-2.991,0.7716,-9.4589,-2.4705,-0.9383,-0.0927,-0.5205,-0.4679,0.8125,-0.2126,614.0,-93.5,3.0,55.6,222.92,74.7,-162.65,,63.321,,,,NaN,,,,0 / 0,6958,2014-12-14 04:22:42:505
-0.3334,-10.1303,-3.0499,0.8084,-9.3566,-2.8234,-1.375,-0.7366,-0.2943,-0.5168,0.7892,-0.3152,342.0,-94.8,1.7,56.5,222.92,74.7,-162.65,,63.321,,,,NaN,,,,0 / 0,7008,2014-12-14 04:22:42:555
0.4903,-10.0616,-2.2457,0.8084,-9.3566,-2.8234,-0.4849,-0.8895,0.095,-0.5168,0.7892,-0.3152,342.0,-94.8,1.7,56.5,224.63,72.57,-164.02,,55.553,,,,NaN,,,,0 / 0,7058,2014-12-14 04:22:42:605
-0.5786,-12.1504,-2.6282,1.0025,-9.2711,-3.0352,-0.5122,-0.7905,0.7895,-0.099,1.1924,-0.4349,342.0,-95.3,0.8,56.5,222.47,70.98,-161.72,,55.553,,,,NaN,,,,0 / 0,7108,2014-12-14 04:22:42:655
-0.1569,-13.0428,-2.638,1.2332,-9.2715,-2.9477,-1.8314,-3.7223,-0.0335,-0.099,1.1924,-0.4349,342.0,-96.6,0.0,57.0,222.47,70.98,-161.72,,55.553,,,,NaN,,,,0 / 0,7157,2014-12-14 04:22:42:704
2.2555,-13.7097,0.1177,1.1533,-9.4299,-2.4324,1.1022,-4.2798,2.5501,0.7453,0.4019,0.2187,208.0,-97.0,0.0,56.0,215.69,74.07,-154.63,,55.553,,,,NaN,,,,0 / 0,7208,2014-12-14 04:22:42:755
3.2362,-9.1202,-1.9907,1.3475,-9.6497,-1.1128,1.8887,0.5295,-0.878,2.0146,-0.0318,-0.1967,208.0,-96.1,0.4,52.6,190.82,79.74,-129.55,,55.553,,,,NaN,,,,0 / 0,7257,2014-12-14 04:22:42:804
3.0695,-7.8061,-3.599,1.6581,-9.6477,-0.5856,1.4114,1.8416,-3.0134,1.1374,0.6866,0.3103,208.0,-95.7,0.8,48.7,172.28,79.67,-109.45,,55.553,,,,NaN,,,,0 / 0,7307,2014-12-14 04:22:42:854
1.3729,-10.2185,-3.3931,1.563,-9.6606,-0.6326,-0.19,-0.5579,-2.7605,0.9737,-0.4814,0.672,594.0,-95.3,0.8,47.3,175.64,80.1,-112.03,,55.553,,,,NaN,,,,0 / 0,7357,2014-12-14 04:22:42:904
1.9613,-8.9829,-4.0796,1.2621,-9.6991,-0.7108,0.6993,0.7162,-3.3688,0.9468,-0.4618,0.4899,594.0,-94.0,1.3,46.8,175.64,80.1,-112.03,,55.553,,,,NaN,,,,0 / 0,7407,2014-12-14 04:22:42:954
2.3438,-8.5906,-3.8148,1.232,-9.7001,-0.7484,1.1117,1.1095,-3.0663,0.8906,-0.3128,0.4508,594.0,-93.5,0.4,47.3,184.52,81.55,-121.28,,55.553,,,,NaN,,,,0 / 0,7457,2014-12-14 04:22:43:004
1.2356,-8.8358,-0.353,1.5677,-9.6345,-0.9428,-0.332,0.7987,0.5898,0.1772,0.1881,0.2688,594.0,-93.5,0.8,44.8,184.52,81.55,-121.28,,55.553,,,,NaN,,,,0 / 0,7508,2014-12-14 04:22:43:055
1.3141,-8.4828,-0.8924,1.5033,-9.6452,-0.9386,-0.1892,1.1624,0.0462,0.0,-1.2315,0.2896,1089.0,-92.2,-0.5,45.3,186.01,79.59,-121.98,,53.425,,,,NaN,,,,0 / 0,7558,2014-12-14 04:22:43:105
2.5497,-10.2676,-0.0196,1.357,-9.6482,-1.1139,1.026,-0.2565,0.8099,-0.474,0.7648,0.4252,1089.0,-91.4,0.0,46.3,192.76,79.69,-129.38,,53.425,,,,NaN,,,,0 / 0,7608,2014-12-14 04:22:43:155
2.5497,-10.2676,-0.0196,1.357,-9.6482,-1.1139,1.026,-0.2565,0.8099,-0.474,0.7648,0.4252,1089.0,-91.4,0.0,46.3,192.76,79.69,-129.38,,53.425,,,,NaN,,,,0 / 0,7658,2014-12-14 04:22:43:205
1.8731,-10.6991,0.0196,1.4119,-9.6599,-0.929,0.4611,-1.0391,0.9486,0.0916,-0.8748,0.226,1089.0,-91.4,-0.5,46.8,186.12,80.08,-123.34,,53.425,,,,NaN,,,,0 / 0,7707,2014-12-14 04:22:43:254
3.1479,-10.1303,-1.5593,1.5954,-9.6277,-0.9657,1.5525,-0.5026,-0.5936,-0.1796,0.1368,-0.3848,1089.0,-91.4,-0.9,47.3,183.94,79.04,-121.19,,53.425,,,,NaN,,,,0 / 0,7758,2014-12-14 04:22:43:305
2.8635,-9.8361,-0.6669,1.7786,-9.5869,-1.0484,1.085,-0.2492,0.3816,-0.1845,-0.0208,-0.3983,1089.0,-90.9,-0.9,46.8,183.94,79.04,-121.19,,53.425,,,,NaN,,,,0 / 0,7808,2014-12-14 04:22:43:355
-1.3925,-10.1989,0.255,1.2356,-9.6975,-0.7755,-2.6281,-0.5014,1.0305,0.0709,-0.2431,0.3983,882.0,-90.0,-0.9,46.3,181.39,79.58,-118.44,,53.425,,,,NaN,,,,0 / 0,7867,2014-12-14 04:22:43:414
0.3236,-10.8265,0.9807,0.7778,-9.7661,-0.4349,-0.4542,-1.0605,1.4156,0.4618,-0.7184,0.0464,882.0,-89.6,-0.5,46.3,182.15,84.79,-119.21,,53.425,,,,NaN,,,,0 / 0,7907,2014-12-14 04:22:43:454
0.657,-10.1205,0.2452,0.7778,-9.7661,-0.4349,-0.4542,-1.0605,1.4156,0.4826,-0.7734,0.022,882.0,-89.6,-0.5,46.3,182.15,84.79,-119.21,,53.425,,,,NaN,,,,0 / 0,7958,2014-12-14 04:22:43:505
0.8728,-9.7772,0.1177,0.7323,-9.7763,-0.2421,-0.0753,-0.3442,0.4873,0.4533,-0.7294,0.0464,882.0,-90.0,-0.5,45.8,171.2,85.49,-108.29,,53.425,,,,NaN,,,,0 / 0,8008,2014-12-14 04:22:43:555
1.2651,-10.395,-0.1765,0.7618,-9.777,-0.0232,0.5033,-0.6181,-0.1533,0.1979,0.0232,0.1271,882.0,-88.7,-0.5,45.3,171.2,85.49,-108.29,,53.425,,,,NaN,,,,0 / 0,8057,2014-12-14 04:22:43:604
0.9218,-10.042,0.3825,0.7741,-9.7761,-0.0012,0.1477,-0.266,0.3836,0.2786,0.0586,0.1784,882.0,-88.7,0.0,45.3,153.19,85.47,-90.09,,52.031,,,,NaN,,,,0 / 0,8107,2014-12-14 04:22:43:654
-0.912,-9.9636,0.4021,0.5029,-9.7926,0.1502,-1.4149,-0.171,0.2519,0.0122,0.1552,0.1686,882.0,-88.3,0.4,44.8,136.24,86.93,-73.37,,52.031,,,,NaN,,,,0 / 0,8157,2014-12-14 04:22:43:704
-0.3825,-9.9047,0.8041,0.149,-9.802,0.2639,-0.5903,0.0149,0.452,0.1087,-0.0916,0.1246,882.0,-87.9,0.0,45.3,136.24,86.93,-73.37,,52.031,,,,NaN,,,,0 / 0,8207,2014-12-14 04:22:43:754
0.0785,-10.0028,0.6472,0.0374,-9.7982,0.4064,0.0411,-0.2046,0.2408,0.0965,-0.0476,0.0672,882.0,-87.9,0.0,44.3,68.71,87.61,-5.26,,52.031,,,,NaN,,,,0 / 0,8257,2014-12-14 04:22:43:804
0.1765,-10.0224,0.4805,0.0537,-9.797,0.4325,0.1228,-0.2254,0.048,0.0073,0.0122,0.0281,882.0,-88.3,0.0,45.8,69.5,87.45,-7.08,,52.031,,,,NaN,,,,0 / 0,8307,2014-12-14 04:22:43:854
-0.2942,-9.8851,0.4511,0.0632,-9.7972,0.4248,-0.3574,-0.0879,0.0263,-0.0269,0.1258,0.044,882.0,-87.9,0.4,44.8,71.4,87.49,-8.46,,52.031,,,,NaN,,,,0 / 0,8358,2014-12-14 04:22:43:905
-0.3628,-10.0812,0.6276,0.0011,-9.7988,0.3912,-0.3639,-0.2824,0.2364,-0.0244,0.1307,0.0195,882.0,-87.9,0.0,45.3,63.1,87.71,-0.16,,52.031,,,,NaN,,,,0 / 0,8407,2014-12-14 04:22:43:954
-0.4021,-9.8949,0.559,-0.0328,-9.7979,0.4118,-0.3693,-0.097,0.1472,0.0293,0.099,0.0293,882.0,-87.4,0.0,44.8,58.12,87.59,4.55,,52.031,,,,NaN,,,,0 / 0,8458,2014-12-14 04:22:44:005
-0.353,-9.9341,0.4021,-0.0912,-9.7975,0.414,-0.2619,-0.1367,-0.0119,0.011,0.0855,0.022,882.0,-87.4,0.0,45.8,58.12,87.59,4.55,,52.031,,,,NaN,,,,0 / 0,8508,2014-12-14 04:22:44:055
-0.3432,-9.9145,0.4119,-0.0988,-9.7976,0.4091,-0.2444,-0.1169,0.0028,0.0159,0.0782,0.0086,882.0,-87.9,0.0,45.8,48.84,87.54,13.58,,52.031,,,,NaN,,,,0 / 0,8557,2014-12-14 04:22:44:104
-0.304,-10.0028,0.2256,-0.1244,-9.7976,0.4031,-0.1796,-0.2052,-0.1776,0.0257,0.0379,0.0012,1060.0,-87.4,0.4,44.8,48.84,87.54,13.58,,41.862,,,,NaN,,,,0 / 0,8607,2014-12-14 04:22:44:154
-0.304,-9.9734,0.4217,-0.1329,-9.7979,0.3927,-0.181,-0.1559,0.0486,0.044,0.0281,0.0061,1060.0,-87.9,0.4,46.3,45.0,87.53,17.16,,41.862,,,,NaN,,,,0 / 0,8658,2014-12-14 04:22:44:205
-0.353,-9.9734,0.4217,-0.1407,-9.7974,0.4022,-0.1241,-0.1564,-0.0296,0.044,0.0281,0.0061,1060.0,-87.9,0.4,46.3,45.0,87.53,17.16,,41.862,,,,NaN,,,,0 / 0,8707,2014-12-14 04:22:44:254
-0.2648,-9.9832,0.353,-0.1405,-9.7975,0.3988,-0.1242,-0.1856,-0.0458,0.033,0.011,0.0061,1060.0,-87.4,0.4,44.8,43.27,87.53,19.41,,41.862,,,,NaN,,,,0 / 0,8757,2014-12-14 04:22:44:304
-0.1863,-9.9538,0.353,-0.1366,-9.798,0.3886,-0.0497,-0.1558,-0.0356,0.0305,-0.0244,-0.0024,1060.0,-87.4,0.0,45.8,42.79,87.59,19.37,,41.862,,,,NaN,,,,0 / 0,8807,2014-12-14 04:22:44:354
-0.255,-9.9734,0.3923,-0.1251,-9.7984,0.3832,-0.1299,-0.175,0.0091,0.0208,0.0208,-0.0159,1060.0,-87.4,0.0,44.8,44.6,87.64,18.08,,41.862,,,,NaN,,,,0 / 0,8858,2014-12-14 04:22:44:405
-0.3727,-9.9538,0.4315,-0.1059,-9.7986,0.3824,-0.2668,-0.1551,0.0491,0.0061,-0.0538,-0.022,1060.0,-87.4,0.4,45.3,46.37,87.65,16.57,,41.862,,,,NaN,,,,0 / 0,8908,2014-12-14 04:22:44:455
-0.3727,-10.0224,0.5198,-0.1064,-9.7987,0.3808,-0.2662,-0.2237,0.1389,0.0244,-0.0538,-0.0232,1060.0,-87.9,0.0,45.8,46.81,87.69,15.61,,41.862,,,,NaN,,,,0 / 0,8957,2014-12-14 04:22:44:504
-0.2746,-9.9341,0.5492,-0.1117,-9.7984,0.3859,-0.1237,-0.1749,0.173,0.0623,0.0147,-0.0134,1060.0,-87.4,0.0,44.8,46.81,87.69,15.61,,41.862,,,,NaN,,,,0 / 0,9007,2014-12-14 04:22:44:554
-0.2648,-9.8851,0.3825,-0.1185,-9.7974,0.4098,-0.1463,-0.0877,-0.0273,0.0403,0.0086,0.0024,1060.0,-87.4,0.0,45.3,46.54,87.51,16.13,,41.862,,,,NaN,,,,0 / 0,9058,2014-12-14 04:22:44:605