ACCELEROMETER X (m/s²),ACCELEROMETER Y (m/s²),ACCELEROMETER Z (m/s²),GRAVITY X (m/s²),GRAVITY Y (m/s²),GRAVITY Z (m/s²),LINEAR ACCELERATION X (m/s²),LINEAR ACCELERATION Y (m/s²),LINEAR ACCELERATION Z (m/s²),GYROSCOPE X (rad/s),GYROSCOPE Y (rad/s),GYROSCOPE Z (rad/s),LIGHT ( lux),MAGNETIC FIELD X (μT),MAGNETIC FIELD Y (μT),MAGNETIC FIELD Z (μT),ORIENTATION X (°),ORIENTATION Y (°),ORIENTATION Z (°),PROXIMITY ( cm),SOUND LEVEL (dB),LOCATION Latitude : ,LOCATION Longitude : ,LOCATION Altitude ( m),LOCATION Altitude-google ( m),LOCATION Speed ( Kmh),LOCATION Accuracy ( m),LOCATION ORIENTATION (°),Satellites in range,Time since start in ms ,YYYY-MO-DD HH-MI-SS_SSS
0.1079,-10.0126,0.6178,-3.3955,-8.4842,3.558,3.523,-1.499,-2.9304,1.2266,1.2022,1.2046,534.0,-86.6,3.4,31.2,29.68,59.9,43.66,,54.885,,,,NaN,,,,0 / 0,11,2014-12-14 04:23:43:422
0.049,-9.9538,0.6178,-3.3806,-8.5017,3.5303,3.3904,-1.4717,-2.9713,1.2291,1.2339,1.1863,534.0,-87.0,3.4,31.7,28.91,60.1,43.76,,54.885,,,,NaN,,,,0 / 0,62,2014-12-14 04:23:43:473
0.0785,-9.9538,0.5982,-3.3797,-8.506,3.5209,3.3904,-1.4717,-2.9713,1.2291,1.2339,1.1863,534.0,-87.0,3.4,31.7,28.91,60.1,43.76,,54.885,,,,NaN,,,,0 / 0,111,2014-12-14 04:23:43:522
0.0588,-9.8753,0.6767,-3.38,-8.5052,3.5224,3.4389,-1.3701,-2.8457,1.2291,1.2168,1.2058,534.0,-86.1,3.4,31.2,29.23,60.15,43.82,,40.88,,,,NaN,,,,0 / 0,161,2014-12-14 04:23:43:572
0.2059,-9.9341,1.0101,-3.3704,-8.5014,3.5407,3.5763,-1.4327,-2.5306,1.2364,1.2168,1.1655,534.0,-87.0,3.4,31.7,29.1,60.1,43.59,,40.88,,,,NaN,,,,0 / 0,211,2014-12-14 04:23:43:622
0.0392,-9.8851,0.9611,-3.271,-8.5081,3.617,3.3102,-1.377,-2.656,1.1154,1.2388,1.0788,534.0,-87.0,3.4,31.2,31.25,60.18,42.12,,40.88,,,,NaN,,,,0 / 0,261,2014-12-14 04:23:43:672
-0.3825,-9.9145,1.1768,-3.2631,-8.5233,3.5883,2.8807,-1.3912,-2.4115,1.1081,1.3402,1.0678,534.0,-87.0,3.9,32.1,30.26,60.36,42.28,,40.88,,,,NaN,,,,0 / 0,312,2014-12-14 04:23:43:723
-0.353,-10.091,1.5396,-3.2927,-8.4952,3.6277,2.8459,-1.5461,-2.1665,1.2963,1.2217,1.0165,534.0,-87.0,3.9,32.1,30.39,60.03,42.23,,40.88,,,,NaN,,,,0 / 0,362,2014-12-14 04:23:43:773
-0.353,-10.091,1.5396,-3.2927,-8.4952,3.6277,3.1221,-1.4885,-2.2668,1.3024,1.3525,1.0116,534.0,-87.0,3.9,32.1,30.39,60.03,42.23,,40.88,,,,NaN,,,,0 / 0,412,2014-12-14 04:23:43:823
-0.1275,-9.8066,1.2454,-3.2959,-8.4604,3.7053,3.1684,-1.3463,-2.4599,1.3024,1.3525,1.0116,534.0,-87.9,3.9,32.1,31.32,59.62,41.65,,40.88,,,,NaN,,,,0 / 0,461,2014-12-14 04:23:43:872
-0.5492,-10.1303,0.9022,-3.2852,-8.5069,3.607,2.6772,-1.6724,-2.5577,1.0629,1.4563,0.8882,534.0,-88.3,3.9,32.6,29.88,60.16,42.33,,40.88,,,,NaN,,,,0 / 0,512,2014-12-14 04:23:43:923
0.0098,-9.8753,1.2062,-3.2473,-8.554,3.5291,2.8394,-1.596,-2.0555,1.1118,1.4258,0.8088,534.0,-88.3,4.3,32.1,29.94,60.49,42.77,,40.88,,,,NaN,,,,0 / 0,561,2014-12-14 04:23:43:972
0.3923,-9.3654,0.7943,-3.187,-8.5807,3.5192,3.5792,-0.7846,-2.7249,1.0592,1.6347,0.9652,534.0,-89.2,5.2,32.6,29.61,60.79,42.52,,39.138,,,,NaN,,,,0 / 0,612,2014-12-14 04:23:44:023
0.1471,-9.7576,0.8434,-3.1616,-8.5792,3.5458,3.3087,-1.1784,-2.7024,1.168,1.4722,1.0617,534.0,-89.6,5.2,32.6,30.63,61.03,41.72,,39.138,,,,NaN,,,,0 / 0,661,2014-12-14 04:23:44:072
-0.0588,-11.1305,0.8728,-3.1205,-8.5198,3.7211,3.0616,-2.6108,-2.8483,1.471,0.8833,1.2022,534.0,-89.2,5.6,32.1,32.78,60.32,39.98,,39.138,,,,NaN,,,,0 / 0,712,2014-12-14 04:23:44:123
-0.0098,-11.513,0.7845,-3.1086,-8.5039,3.7671,3.0988,-3.0091,-2.9826,1.5516,0.8344,1.2291,534.0,-89.6,5.6,32.6,32.78,60.32,39.98,,39.138,,,,NaN,,,,0 / 0,762,2014-12-14 04:23:44:173
3.1872,-10.4931,2.079,-2.7792,-8.3308,4.3639,5.9664,-2.1623,-2.2849,2.0867,0.4215,1.3708,534.0,-89.2,5.6,29.2,36.14,59.38,37.71,,39.138,,,,NaN,,,,0 / 0,812,2014-12-14 04:23:44:223
2.8341,-9.4928,1.3239,-2.6285,-8.2537,4.5976,5.7467,-1.6994,-2.7492,2.055,0.7282,1.3952,534.0,-89.6,5.6,29.7,42.29,58.16,32.49,,39.138,,,,NaN,,,,0 / 0,862,2014-12-14 04:23:44:273
0.6472,-8.777,0.6767,-2.6053,-8.1036,4.8698,3.2525,-0.6733,-4.1931,1.846,1.317,1.4575,534.0,-88.7,5.6,27.8,42.29,58.16,32.49,,39.138,,,,NaN,,,,0 / 0,911,2014-12-14 04:23:44:322
-0.2648,-7.8551,1.8535,-3.2028,-7.7899,5.023,2.3339,-0.401,-3.6429,1.6188,0.8198,1.5321,534.0,-87.9,6.0,25.8,46.76,53.52,31.2,,39.138,,,,NaN,,,,0 / 0,961,2014-12-14 04:23:44:372
1.422,-7.6198,2.4124,-3.2655,-7.6876,5.1388,3.0763,0.1063,-3.0642,1.3476,0.7453,1.3476,813.0,-87.9,6.0,25.8,45.58,52.36,32.78,,39.138,,,,NaN,,,,0 / 0,1011,2014-12-14 04:23:44:422
1.422,-7.6198,2.4124,-3.1042,-7.6816,5.2467,4.8007,-1.2425,-2.2655,0.9591,0.744,1.295,813.0,-87.9,7.3,26.3,47.64,51.56,30.61,,39.138,,,,NaN,,,,0 / 0,1062,2014-12-14 04:23:44:473
0.9512,-9.8263,2.687,-2.8928,-7.6917,5.3515,4.0946,-2.3534,-2.7659,1.0666,0.7123,1.3341,813.0,-87.4,7.8,26.3,49.22,51.66,28.39,,39.138,,,,NaN,,,,0 / 0,1111,2014-12-14 04:23:44:522
1.775,-10.0518,2.6184,-2.7444,-7.7523,5.3424,4.5194,-2.2995,-2.724,1.0898,0.5815,1.2792,813.0,-87.9,8.2,26.3,49.22,51.66,28.39,,39.138,,,,NaN,,,,0 / 0,1162,2014-12-14 04:23:44:573
1.775,-9.5811,2.2653,-2.4616,-7.965,5.1643,3.7806,-1.2549,-3.3183,0.9102,0.6304,1.2853,813.0,-87.9,9.1,27.3,50.78,52.85,25.66,,43.812,,,,NaN,,,,0 / 0,1212,2014-12-14 04:23:44:623
2.1575,-9.8753,2.1771,-2.4218,-8.0225,5.0936,4.5792,-1.8528,-2.9166,0.2602,0.8442,1.0055,813.0,-88.3,9.5,29.2,49.08,54.89,25.43,,43.812,,,,NaN,,,,0 / 0,1261,2014-12-14 04:23:44:672
2.6282,-10.5323,1.824,-2.3669,-8.0892,5.0132,4.995,-2.4431,-3.1892,0.2016,0.9945,0.8772,813.0,-87.4,9.9,28.2,49.08,54.89,25.43,,43.812,,,,NaN,,,,0 / 0,1311,2014-12-14 04:23:44:722
1.5789,-13.0232,0.304,-1.8273,-8.7498,4.0339,3.4062,-4.2735,-3.7299,0.4374,1.5528,1.2498,460.0,-88.3,12.6,33.6,45.1,63.15,24.37,,43.812,,,,NaN,,,,0 / 0,1362,2014-12-14 04:23:44:773
1.0983,-7.3158,-2.5988,-2.0653,-8.8977,3.5687,3.1637,1.5819,-6.1675,0.3616,2.4728,1.3793,460.0,-87.4,13.0,35.1,45.1,63.15,24.37,,43.812,,,,NaN,,,,0 / 0,1411,2014-12-14 04:23:44:822
-3.3245,-10.8756,-3.3441,-2.6373,-9.2993,1.6545,-0.6872,-1.5762,-4.9986,0.171,1.8033,1.3182,460.0,-86.6,14.7,39.9,18.73,70.21,47.24,,43.812,,,,NaN,,,,0 / 0,1462,2014-12-14 04:23:44:873
-1.2847,-10.4735,-1.1082,-3.1037,-9.243,1.0513,3.0057,-0.7108,-2.1986,0.6744,1.1325,1.1863,460.0,-86.1,14.7,41.9,352.65,70.48,71.29,,43.812,,,,NaN,,,,0 / 0,1512,2014-12-14 04:23:44:923
1.3043,-9.434,-0.8924,-3.1299,-9.2441,0.9592,4.4342,-0.1899,-1.8516,0.5583,1.1435,0.9982,460.0,-86.1,15.2,42.4,352.65,70.48,71.29,,43.812,,,,NaN,,,,0 / 0,1562,2014-12-14 04:23:44:973
0.0294,-9.5321,-0.9414,-2.9938,-9.302,0.8251,3.5822,-0.2105,-1.7469,0.5278,1.6628,1.1741,221.0,-86.1,15.2,44.3,349.38,71.18,74.07,,43.812,,,,NaN,,,,0 / 0,1612,2014-12-14 04:23:45:023
-0.8041,-9.2673,-1.1768,-2.9793,-9.318,0.6843,2.2929,0.09,-1.9788,0.6781,1.7349,1.2181,221.0,-85.7,16.0,46.3,344.84,71.84,77.06,,43.812,,,,NaN,,,,0 / 0,1662,2014-12-14 04:23:45:073
0.5001,-9.2967,-1.4808,-3.0169,-9.3085,0.6484,3.8345,0.1828,-3.0941,0.7391,1.5052,0.9798,221.0,-85.3,16.9,47.8,344.84,71.84,77.06,,43.812,,,,NaN,,,,0 / 0,1712,2014-12-14 04:23:45:123
0.4511,-9.081,-3.7952,-2.7961,-9.3974,0.2014,3.2982,0.2382,-4.1486,0.5205,1.4966,0.9224,221.0,-84.8,17.3,49.7,336.55,73.13,83.73,,58.882,,,,NaN,,,,0 / 0,1761,2014-12-14 04:23:45:172
0.9414,-11.2286,-2.1771,-2.3867,-9.4704,-0.8868,3.476,-0.3436,-3.687,0.3433,1.7459,0.854,130.0,-85.7,17.3,51.7,323.96,73.94,95.4,,58.882,,,,NaN,,,,0 / 0,1811,2014-12-14 04:23:45:222
-0.0196,-11.6405,-0.8434,-2.1035,-9.5473,-0.7715,2.0839,-2.0932,-0.0719,1.0091,1.7068,0.7037,130.0,-86.6,18.6,54.6,308.72,76.79,110.14,,58.882,,,,NaN,,,,0 / 0,1862,2014-12-14 04:23:45:273
-1.3043,-10.856,-1.1474,-2.0062,-9.5826,-0.5649,0.7019,-1.2733,-0.5825,1.4392,1.5577,0.6939,130.0,-87.4,19.1,54.1,308.72,76.79,110.14,,58.882,,,,NaN,,,,0 / 0,1912,2014-12-14 04:23:45:323
-0.5296,-13.6312,0.3138,-2.0852,-9.5809,0.1699,1.5557,-4.0504,0.144,2.2773,1.427,0.9261,130.0,-87.9,21.7,50.2,335.65,77.68,85.34,,58.882,,,,NaN,,,,0 / 0,1962,2014-12-14 04:23:45:373
2.2065,-10.7775,0.1765,-2.0779,-9.1902,2.719,4.6363,-4.0726,1.3798,3.8094,1.2181,1.3292,87.0,-87.4,22.6,47.8,2.18,75.4,58.87,,58.882,,,,NaN,,,,0 / 0,2011,2014-12-14 04:23:45:422
2.1378,-11.8857,-4.5307,-2.6361,-8.8559,3.2854,4.5162,-0.5189,-5.3173,3.3463,1.179,2.1099,87.0,-85.7,24.7,38.5,2.18,75.4,58.87,,58.882,,,,NaN,,,,0 / 0,2061,2014-12-14 04:23:45:472
1.0689,-11.7386,-3.6971,-2.7312,-8.8254,3.2898,3.8001,-2.9131,-6.9869,3.1032,0.7672,2.5278,87.0,-81.8,25.2,28.2,30.28,64.15,39.7,,58.882,,,,NaN,,,,0 / 0,2112,2014-12-14 04:23:45:523
1.7554,-7.4923,-1.726,-3.3347,-8.2967,4.0266,5.0901,0.8045,-5.7526,2.4532,0.1258,2.0611,495.0,-79.2,22.1,14.6,38.64,57.78,39.63,,58.882,,,,NaN,,,,0 / 0,2162,2014-12-14 04:23:45:573
1.6867,-7.306,-1.8731,-3.3594,-8.2574,4.0865,5.0462,0.9515,-5.9596,2.303,0.1747,2.0378,495.0,-78.7,22.1,14.1,38.64,57.78,39.63,,58.882,,,,NaN,,,,0 / 0,2211,2014-12-14 04:23:45:622
1.2258,-6.5705,-1.1082,-3.4951,-8.1467,4.1935,4.7209,1.5763,-5.3017,1.9535,0.1869,1.8876,495.0,-79.2,20.8,10.2,42.09,56.17,39.81,,55.609,,,,NaN,,,,0 / 0,2262,2014-12-14 04:23:45:673
1.3239,-7.149,0.0785,-3.4563,-8.085,4.3426,4.7802,0.9359,-4.2641,1.3427,-0.0171,1.6493,495.0,-80.5,19.9,6.8,45.66,55.53,38.52,,55.609,,,,NaN,,,,0 / 0,2312,2014-12-14 04:23:45:723
1.2749,-8.3553,1.8535,-3.1715,-8.229,4.289,4.647,0.2432,-3.451,1.1362,-0.1124,1.6237,495.0,-80.5,19.5,6.8,45.66,55.53,38.52,,55.609,,,,NaN,,,,0 / 0,2361,2014-12-14 04:23:45:772
1.6083,-10.2283,3.4519,-2.8481,-8.3253,4.3299,4.8049,-0.3598,-1.2966,0.281,1.091,1.5699,495.0,-81.4,20.4,7.3,47.42,57.05,36.48,,55.609,,,,NaN,,,,0 / 0,2411,2014-12-14 04:23:45:822
1.8338,-11.6797,3.4912,-2.6041,-8.3458,4.4426,4.438,-3.3339,-0.9514,0.8564,0.2407,1.1277,495.0,-82.7,21.3,8.2,52.09,58.32,30.38,,55.609,,,,NaN,,,,0 / 0,2462,2014-12-14 04:23:45:873
2.2849,-10.4147,4.5307,-1.9297,-8.3696,4.7325,4.9011,0.6027,-0.5058,0.7257,1.1154,1.2046,165.0,-86.1,21.7,7.3,59.86,58.59,22.18,,55.609,,,,NaN,,,,0 / 0,2512,2014-12-14 04:23:45:923
0.8532,-15.4161,-7.7178,-1.8318,-8.7447,4.043,2.685,-6.6714,-11.7608,-0.5021,2.9322,1.3598,165.0,-86.1,24.7,10.7,54.88,63.09,24.37,,55.609,,,,NaN,,,,0 / 0,2562,2014-12-14 04:23:45:973
2.0006,-6.2174,-1.1376,-2.5873,-9.3108,1.669,1.9311,-1.3026,-7.8987,-0.2077,2.9517,1.7031,165.0,-84.8,25.6,13.6,54.88,63.09,24.37,,55.609,,,,NaN,,,,0 / 0,2612,2014-12-14 04:23:46:023
2.0006,-6.2174,-1.1376,-2.5873,-9.3108,1.669,2.3901,4.1194,-5.4835,0.0086,1.4306,0.6243,165.0,-85.3,27.3,15.6,21.11,71.7,57.17,,55.609,,,,NaN,,,,0 / 0,2661,2014-12-14 04:23:46:072
-3.3735,-10.8069,-4.7955,-2.5418,-9.4137,1.0453,-0.4297,0.3719,-6.3115,-0.38,1.8631,1.2266,165.0,-86.1,27.8,17.5,21.11,71.7,57.17,,55.609,,,,NaN,,,,0 / 0,2711,2014-12-14 04:23:46:122
-0.5786,-10.7775,-2.1575,-2.691,-9.4024,0.7234,-0.6825,-1.4045,-5.5188,0.2443,2.4154,1.5528,165.0,-85.7,28.2,18.0,3.07,73.49,74.95,,63.618,,,,NaN,,,,0 / 0,2761,2014-12-14 04:23:46:172
-0.5786,-10.248,-2.1575,-3.1156,-9.2984,-0.0458,2.537,-0.9495,-2.1117,0.3751,2.8808,1.4991,165.0,-84.8,29.1,19.9,346.65,71.47,90.84,,63.618,,,,NaN,,,,0 / 0,2811,2014-12-14 04:23:46:222
-0.0686,-9.9734,-2.1673,-2.963,-9.3405,-0.3836,2.8943,-0.6329,-1.7836,0.6292,2.1307,1.1802,165.0,-83.1,29.9,23.9,337.84,72.26,97.38,,63.618,,,,NaN,,,,0 / 0,2862,2014-12-14 04:23:46:273
0.353,-9.2575,-2.9714,-2.902,-9.3458,-0.6366,3.255,0.0883,-2.3349,0.5278,2.3054,1.1069,165.0,-83.5,30.8,24.8,332.64,72.36,102.37,,63.618,,,,NaN,,,,0 / 0,2911,2014-12-14 04:23:46:322
0.353,-9.2575,-2.9714,-2.902,-9.3458,-0.6366,3.255,0.0883,-2.3349,0.5278,2.3054,1.1069,165.0,-83.5,30.8,24.8,332.64,72.36,102.37,,63.618,,,,NaN,,,,0 / 0,2962,2014-12-14 04:23:46:373
0.1569,-10.2676,-1.6083,-2.2052,-9.4003,-1.7149,2.3621,-0.8672,0.1066,0.5461,2.3885,0.8406,165.0,-84.4,32.1,31.7,317.55,72.58,116.66,,63.618,,,,NaN,,,,0 / 0,3012,2014-12-14 04:23:46:423
-0.6472,-10.4049,-2.079,-2.0728,-9.4354,-1.6875,1.4256,-0.9695,-0.3916,0.6475,2.2626,0.8247,165.0,-85.7,32.6,32.6,303.62,74.18,129.15,,63.618,,,,NaN,,,,0 / 0,3061,2014-12-14 04:23:46:472
-0.2844,-11.7582,1.0003,-2.0401,-9.5429,-0.9704,1.7557,-2.2153,1.9707,2.0146,1.4942,0.832,169.0,-87.4,33.4,32.6,316.29,76.68,115.44,,63.618,,,,NaN,,,,0 / 0,3111,2014-12-14 04:23:46:522
-1.5004,-15.9554,4.7758,-2.0411,-9.5461,0.9363,0.5407,-6.4093,3.8396,3.8313,1.6383,1.0177,169.0,-87.9,33.9,26.3,316.29,76.68,115.44,,63.618,,,,NaN,,,,0 / 0,3161,2014-12-14 04:23:46:572
2.2751,-11.817,-0.6767,-2.2717,-8.9733,3.2389,2.893,-5.5569,2.5661,4.7672,1.1887,1.3903,169.0,-88.3,32.6,21.9,26.39,72.82,47.84,,63.618,,,,NaN,,,,0 / 0,3211,2014-12-14 04:23:46:622
-1.9417,-13.3567,-8.2376,-3.0052,-8.6383,3.5382,1.0635,-4.7184,-11.7758,3.328,-0.347,3.0714,169.0,-83.5,26.5,4.3,44.01,61.75,40.34,,63.618,,,,NaN,,,,0 / 0,3261,2014-12-14 04:23:46:672
0.0098,-11.7386,-1.0297,-4.1081,-8.188,3.5001,4.1179,-3.5506,-4.5298,3.328,-0.347,3.0714,169.0,-81.8,22.6,-3.0,44.01,61.75,40.34,,55.759,,,,NaN,,,,0 / 0,3312,2014-12-14 04:23:46:723
2.5791,-8.2474,-0.3923,-4.0599,-7.9227,4.1133,6.6391,-0.3247,-4.5055,3.1826,-1.1509,1.9022,390.0,-83.5,18.2,-7.4,46.15,54.72,46.76,,55.759,,,,NaN,,,,0 / 0,3362,2014-12-14 04:23:46:773
2.3242,-5.7271,-1.4318,-3.7951,-7.7273,4.6963,6.1193,2.0002,-6.1281,2.5351,-0.7489,1.9157,390.0,-84.8,16.5,-10.3,57.32,52.0,38.94,,55.759,,,,NaN,,,,0 / 0,3411,2014-12-14 04:23:46:822
1.5985,-4.7562,-1.4612,-3.6223,-7.5388,5.1201,5.2208,2.7826,-6.5813,1.8851,-0.529,1.8314,390.0,-87.0,14.3,-12.2,57.32,52.0,38.94,,55.759,,,,NaN,,,,0 / 0,3462,2014-12-14 04:23:46:873
2.3144,-5.4819,-1.3435,-3.4734,-7.5097,5.2641,5.7878,2.0277,-6.6076,1.3292,-0.347,1.5235,390.0,-88.3,13.4,-13.7,65.77,49.98,33.42,,55.759,,,,NaN,,,,0 / 0,3511,2014-12-14 04:23:46:922
1.1278,-6.3351,-0.1863,-3.0483,-7.7594,5.1642,4.1761,1.4243,-5.3506,0.8479,0.1674,1.3977,390.0,-92.2,13.0,-13.2,67.19,52.3,30.55,,55.759,,,,NaN,,,,0 / 0,3561,2014-12-14 04:23:46:972
1.5985,-7.7178,2.0006,-3.1011,-7.9791,4.7841,4.6996,0.2612,-2.7836,0.2199,1.5773,1.6066,390.0,-93.5,14.3,-12.7,67.19,52.3,30.55,,55.759,,,,NaN,,,,0 / 0,3611,2014-12-14 04:23:47:022
1.3729,-11.2875,3.1872,-2.6929,-8.2754,4.5207,4.0658,-3.012,-1.3335,0.2053,0.5266,1.124,390.0,-92.2,16.0,-10.3,63.99,57.55,30.78,,55.759,,,,NaN,,,,0 / 0,3662,2014-12-14 04:23:47:073
2.6478,-10.5716,4.3542,-1.836,-8.4886,4.5544,4.4838,-2.0829,-0.2002,0.5779,1.1423,1.2278,8428.0,-96.6,17.3,-7.4,69.68,59.95,21.96,,55.759,,,,NaN,,,,0 / 0,3711,2014-12-14 04:23:47:122
4.0305,-12.6996,0.9218,-1.612,-8.6142,4.4008,5.6425,-4.0854,-3.479,-0.0147,1.9096,0.4215,8428.0,-97.4,18.6,-5.9,70.25,61.45,20.12,,55.759,,,,NaN,,,,0 / 0,3762,2014-12-14 04:23:47:173
4.0305,-12.6996,0.9218,-1.612,-8.6142,4.4008,5.6425,-4.0854,-3.479,-0.0147,1.9096,0.4215,8428.0,-97.4,18.6,-5.9,70.25,61.45,20.12,,55.759,,,,NaN,,,,0 / 0,3811,2014-12-14 04:23:47:222
4.0305,-12.6996,0.9218,-1.612,-8.6142,4.4008,5.6425,-4.0854,-3.479,-0.0147,1.9096,0.4215,8428.0,-97.4,18.6,-5.9,70.25,61.45,20.12,,55.759,,,,NaN,,,,0 / 0,3861,2014-12-14 04:23:47:272
-1.3141,-12.3662,-1.4318,-1.3725,-8.9482,3.7705,0.0584,-3.418,-5.2022,-0.1515,0.9749,1.2486,8428.0,-98.3,19.9,-3.5,68.76,65.85,20.0,,55.759,,,,NaN,,,,0 / 0,3912,2014-12-14 04:23:47:323
1.9221,-6.6685,-2.8635,-2.2903,-9.2452,2.3347,5.3794,4.1262,-4.7766,0.6512,1.328,0.9603,8428.0,-97.4,22.1,-0.5,44.13,70.52,44.45,,60.294,,,,NaN,,,,0 / 0,3961,2014-12-14 04:23:47:372
-3.4716,-11.9445,-1.3729,-2.2922,-9.4518,1.2571,-1.1794,-2.4927,-2.63,0.0672,1.7764,1.3683,4588.0,-97.9,24.7,3.9,44.13,70.52,44.45,,60.294,,,,NaN,,,,0 / 0,4011,2014-12-14 04:23:47:422
0.4707,-8.9437,-1.471,-2.9344,-9.343,0.5171,3.4051,0.3994,-1.9881,0.5657,1.6945,1.1509,4588.0,-95.7,27.8,7.3,5.59,72.31,80.01,,60.294,,,,NaN,,,,0 / 0,4061,2014-12-14 04:23:47:472
0.6865,-9.9832,-3.2264,-2.8202,-9.3919,-0.0979,3.5067,-0.5913,-3.1285,0.5156,1.7373,0.9517,4588.0,-95.7,28.6,10.2,352.4,73.28,91.99,,60.294,,,,NaN,,,,0 / 0,4111,2014-12-14 04:23:47:522
0.5982,-9.689,-3.3833,-2.5459,-9.4422,-0.7304,3.1539,-0.1095,-2.4764,0.4508,1.6017,0.8931,512.0,-96.1,30.4,12.6,337.38,74.33,106.01,,60.294,,,,NaN,,,,0 / 0,4162,2014-12-14 04:23:47:573
0.5099,-9.9145,-2.2948,-2.4323,-9.4484,-0.9904,2.9423,-0.4661,-1.3043,0.27,1.9719,0.8662,512.0,-96.6,31.3,15.1,337.38,74.33,106.01,,60.294,,,,NaN,,,,0 / 0,4211,2014-12-14 04:23:47:622
-0.7747,-10.9933,-0.7551,-2.0536,-9.5248,-1.1099,1.2789,-1.4685,0.3548,0.7721,1.9193,0.7294,512.0,-96.6,32.1,16.0,324.08,76.23,118.39,,60.294,,,,NaN,,,,0 / 0,4261,2014-12-14 04:23:47:672
0.0098,-10.954,1.5004,-2.009,-9.5926,-0.3424,2.0188,-1.3615,1.8428,1.2376,1.6591,0.7514,154.0,-97.4,33.0,16.5,324.08,76.23,118.39,,60.294,,,,NaN,,,,0 / 0,4311,2014-12-14 04:23:47:722
0.5982,-14.3079,3.1185,-2.0163,-9.4896,1.4329,2.6145,-4.8183,1.6857,4.0024,1.9951,1.3598,154.0,-97.4,29.5,5.8,30.4,75.39,54.6,,60.294,,,,NaN,,,,0 / 0,4362,2014-12-14 04:23:47:773
2.7459,-12.7192,-4.5895,-3.0885,-8.7325,3.2211,3.0905,-3.6334,-8.2401,3.3121,0.3286,2.6548,154.0,-90.9,17.3,-10.8,30.4,75.39,54.6,,60.294,,,,NaN,,,,0 / 0,4411,2014-12-14 04:23:47:822
0.7061,-11.7288,-2.7459,-3.3738,-8.6398,3.1847,4.0798,-3.089,-5.9306,3.3133,0.0867,2.4606,154.0,-90.5,16.5,-12.7,50.92,61.76,46.65,,59.098,,,,NaN,,,,0 / 0,4462,2014-12-14 04:23:47:873
2.0986,-7.1098,-1.7064,-3.5733,-8.1553,4.1101,5.672,1.0455,-5.8165,2.6365,-0.2651,2.2284,154.0,-92.7,8.2,-17.1,61.31,56.26,41.0,,59.098,,,,NaN,,,,0 / 0,4512,2014-12-14 04:23:47:923
2.128,-6.5901,-2.0202,-3.5898,-8.0839,4.2349,5.7179,1.4938,-6.2551,2.4642,-0.1564,2.2297,154.0,-93.1,7.3,-18.6,61.31,56.26,41.0,,59.098,,,,NaN,,,,0 / 0,4561,2014-12-14 04:23:47:972
1.8338,-5.3054,-1.8437,-3.7669,-7.8093,4.5821,5.6007,2.5039,-6.4258,1.6652,-0.5376,1.7214,154.0,-97.0,3.0,-19.1,65.75,52.78,39.42,,59.098,,,,NaN,,,,0 / 0,4612,2014-12-14 04:23:48:023
1.471,-8.6004,0.9709,-3.7492,-7.8074,4.5999,5.6124,2.6883,-6.4926,1.5211,-0.496,1.6359,154.0,-97.9,2.6,-19.1,65.75,52.78,39.42,,59.098,,,,NaN,,,,0 / 0,4662,2014-12-14 04:23:48:073
1.2062,-9.6596,2.638,-3.6321,-8.1627,4.0435,4.8383,-1.4969,-1.4055,0.1894,1.2963,1.846,154.0,-103.5,3.0,-15.2,61.44,55.8,41.24,,59.098,,,,NaN,,,,0 / 0,4711,2014-12-14 04:23:48:122
1.1964,-11.0129,3.8932,-3.3389,-8.288,4.0413,4.5353,-2.7249,-0.1481,0.1894,1.2963,1.846,57.0,-103.5,3.0,-15.2,61.44,55.8,41.24,,59.098,,,,NaN,,,,0 / 0,4761,2014-12-14 04:23:48:172
2.2163,-10.6794,3.9521,-2.7459,-8.4096,4.2319,4.9622,-2.2698,-0.2799,0.7734,0.6182,1.0397,57.0,-108.3,5.2,-8.8,61.82,57.94,36.84,,59.098,,,,NaN,,,,0 / 0,4812,2014-12-14 04:23:48:223
4.2659,-12.3466,1.6671,-2.3904,-8.5323,4.2019,6.6563,-3.8142,-2.5347,0.099,2.0782,0.4203,57.0,-109.6,5.2,-6.4,65.34,60.47,29.63,,59.098,,,,NaN,,,,0 / 0,4862,2014-12-14 04:23:48:273
2.5595,-15.1611,-5.8938,-2.1414,-9.0772,3.0313,6.6563,-3.8142,-2.5347,0.099,2.0782,0.4203,57.0,-109.6,5.2,-6.4,65.34,60.47,29.63,,62.32,,,,NaN,,,,0 / 0,4912,2014-12-14 04:23:48:323
0.1177,-7.306,-4.6974,-2.3288,-9.2669,2.2074,2.4465,1.9609,-6.9048,0.1906,2.1564,1.2633,38.0,-107.9,7.3,-3.0,45.78,70.9,46.53,,62.32,,,,NaN,,,,0 / 0,4961,2014-12-14 04:23:48:372
0.9709,-9.6792,-1.1278,-3.4608,-9.1454,-0.7453,-0.02,1.7951,-5.0317,-0.2822,1.813,1.0825,38.0,-107.4,9.1,0.0,12.47,72.37,77.78,,62.32,,,,NaN,,,,0 / 0,5109,2014-12-14 04:23:48:520
0.9709,-9.6792,-1.1278,-3.4608,-9.1454,-0.7453,-0.02,1.7951,-5.0317,-0.2822,1.813,1.0825,38.0,-107.4,9.1,0.0,12.47,72.37,77.78,,62.32,,,,NaN,,,,0 / 0,5112,2014-12-14 04:23:48:523
0.9709,-9.6792,-1.1278,-3.4608,-9.1454,-0.7453,-0.02,1.7951,-5.0317,-0.2822,1.813,1.0825,38.0,-107.4,9.1,0.0,12.47,72.37,77.78,,62.32,,,,NaN,,,,0 / 0,5114,2014-12-14 04:23:48:525
2.1673,-8.9241,-1.3435,-3.3588,-9.1805,-0.7793,5.5261,0.2565,-0.5642,0.3677,2.055,1.1875,26.0,-106.1,12.1,4.8,343.89,69.41,103.06,,62.32,,,,NaN,,,,0 / 0,5161,2014-12-14 04:23:48:572
0.1961,-9.7282,-3.0597,-2.8565,-9.2413,-1.6152,3.0527,-0.4869,-1.4445,0.4655,1.9829,0.9468,26.0,-105.3,13.4,8.2,325.95,70.45,119.49,,62.32,,,,NaN,,,,0 / 0,5211,2014-12-14 04:23:48:622
0.7845,-9.8851,-2.5399,-2.4509,-9.2319,-2.2215,3.2354,-0.6532,-0.3185,0.4252,2.4007,0.8601,26.0,-105.7,14.3,11.2,312.11,70.29,132.19,,62.32,,,,NaN,,,,0 / 0,5261,2014-12-14 04:23:48:672
0.9316,-9.9636,-2.2653,-2.3657,-9.2412,-2.2746,3.2973,-0.7223,0.0092,0.4655,2.4044,0.843,26.0,-105.3,14.7,11.7,312.11,70.29,132.19,,62.32,,,,NaN,,,,0 / 0,5312,2014-12-14 04:23:48:723
-0.5001,-10.9344,-1.8044,-1.7798,-9.3726,-2.2709,1.2796,-1.5618,0.4664,0.7098,2.2993,0.7379,26.0,-105.7,14.7,14.1,301.48,72.89,141.91,,59.341,,,,NaN,,,,0 / 0,5362,2014-12-14 04:23:48:773
-0.5001,-10.9344,-1.8044,-1.7798,-9.3726,-2.2709,1.2796,-1.5618,0.4664,0.7098,2.2993,0.7379,20.0,-105.7,14.7,14.1,301.48,72.89,141.91,,59.341,,,,NaN,,,,0 / 0,5412,2014-12-14 04:23:48:823
-0.608,-11.1796,0.0196,-1.5858,-9.508,-1.8039,0.9778,-1.6716,1.8235,1.2266,1.9597,0.7294,20.0,-107.4,14.7,15.6,303.65,75.82,138.68,,59.341,,,,NaN,,,,0 / 0,5462,2014-12-14 04:23:48:873
0.6374,-13.847,2.8243,-1.9843,-9.595,0.4102,2.6218,-4.252,2.4141,3.8656,1.4404,1.8326,20.0,-108.3,12.6,13.6,303.65,75.82,138.68,,59.341,,,,NaN,,,,0 / 0,5512,2014-12-14 04:23:48:923
2.9812,-11.9053,-3.1479,-2.4183,-9.2297,2.2659,5.3995,-2.6755,-5.4138,3.477,0.2651,2.16,20.0,-108.3,11.7,9.7,38.17,70.25,46.86,,59.341,,,,NaN,,,,0 / 0,5562,2014-12-14 04:23:48:973
1.6475,-11.3757,-4.5405,-2.884,-9.0057,2.5982,4.5315,-2.37,-7.1387,3.3866,1.1802,2.452,20.0,-107.4,11.7,7.3,38.99,66.68,47.98,,59.341,,,,NaN,,,,0 / 0,5612,2014-12-14 04:23:49:023
2.0888,-10.1597,-0.3236,-3.43,-8.5772,3.2921,5.5188,-1.5825,-3.6157,3.2339,-0.2834,2.4887,20.0,-105.3,11.3,2.9,43.86,61.0,46.18,,59.341,,,,NaN,,,,0 / 0,5661,2014-12-14 04:23:49:072
1.118,-7.6688,-3.0695,-3.621,-8.2101,3.9563,4.739,0.5413,-7.0258,2.7074,-0.6842,2.1576,20.0,-105.7,10.8,0.0,49.86,56.85,42.47,,59.341,,,,NaN,,,,0 / 0,5711,2014-12-14 04:23:49:122
1.3925,-6.0703,-2.0104,-3.9745,-8.0839,3.8761,5.3671,2.0136,-5.8864,1.8448,-0.0476,1.7312,41.0,-107.0,10.8,-2.0,48.14,55.52,45.72,,59.55,,,,NaN,,,,0 / 0,5761,2014-12-14 04:23:49:172
2.1869,-6.9823,-0.9709,-4.0895,-8.1587,3.589,6.2764,1.1764,-4.5599,0.8821,-0.0098,1.697,41.0,-107.9,12.1,-2.0,48.14,55.52,45.72,,59.55,,,,NaN,,,,0 / 0,5811,2014-12-14 04:23:49:222
1.9417,-7.1883,-0.5001,-4.0542,-8.2014,3.5316,5.9959,1.0131,-4.0317,0.7782,-0.0904,1.708,41.0,-108.3,12.6,-1.0,43.83,56.75,48.94,,59.55,,,,NaN,,,,0 / 0,5862,2014-12-14 04:23:49:273
2.3634,-7.6688,3.1774,-3.8492,-8.4437,3.1716,6.2126,0.7749,0.0057,0.0171,1.3867,1.3989,41.0,-108.7,16.9,1.9,39.51,59.43,50.51,,59.55,,,,NaN,,,,0 / 0,5912,2014-12-14 04:23:49:323
0.657,-13.033,6.188,-3.0221,-8.5498,3.7334,3.6792,-4.4833,2.4546,1.1985,-0.0379,0.8772,41.0,-110.5,19.5,4.3,48.72,60.67,38.99,,59.55,,,,NaN,,,,0 / 0,5962,2014-12-14 04:23:49:373
0.4315,-13.6116,6.2468,-2.8796,-8.5155,3.9197,3.3111,-5.0961,2.3272,1.4991,-0.1087,0.9297,41.0,-111.3,19.9,4.3,48.72,60.67,38.99,,59.55,,,,NaN,,,,0 / 0,6012,2014-12-14 04:23:49:423
2.9714,-17.3382,-1.8829,-2.342,-8.3921,4.501,5.3134,-8.9461,-6.3838,0.3665,0.9847,0.3018,28.0,-113.5,21.3,3.4,59.7,58.84,27.49,,59.55,,,,NaN,,,,0 / 0,6061,2014-12-14 04:23:49:472
2.1673,-0.7551,1.2553,-3.266,-8.9823,2.1957,5.4333,8.2272,-0.9404,1.0067,1.9083,1.4856,28.0,-109.2,21.3,0.0,33.67,66.34,56.09,,59.55,,,,NaN,,,,0 / 0,6111,2014-12-14 04:23:49:522
2.6184,0.912,-0.6276,-3.3486,-8.9291,2.2865,5.967,9.8411,-2.9141,0.9468,0.11,1.0678,28.0,-109.2,21.3,0.9,33.67,66.34,56.09,,59.55,,,,NaN,,,,0 / 0,6162,2014-12-14 04:23:49:573
2.9126,-12.4054,0.8826,-3.9216,-8.8493,1.5753,-3.8453,-1.6046,-9.6462,-1.2034,2.1112,1.3182,28.0,-109.6,23.0,2.9,20.35,64.47,68.11,,59.55,,,,NaN,,,,0 / 0,6212,2014-12-14 04:23:49:623
4.668,-8.3847,-0.5296,-4.1755,-8.8733,-3.0E-4,8.8435,0.4886,-0.5293,0.1014,2.1564,1.168,28.0,-109.2,25.2,4.8,357.38,64.8,90.0,,59.55,,,,NaN,,,,0 / 0,6261,2014-12-14 04:23:49:672
-2.1378,-9.8949,-0.0883,-3.4545,-9.1651,-0.4874,1.3167,-0.7298,0.3991,0.303,2.022,0.8406,28.0,-109.6,27.3,9.2,347.58,69.16,98.03,,67.958,,,,NaN,,,,0 / 0,6311,2014-12-14 04:23:49:722
-2.2163,-10.1793,0.3727,-3.4579,-9.1611,-0.5361,1.2416,-1.0182,0.9087,0.5461,1.7752,0.9859,19.0,-109.6,28.2,10.7,347.58,69.16,98.03,,67.958,,,,NaN,,,,0 / 0,6361,2014-12-14 04:23:49:772
-0.1961,-9.483,-1.2356,-3.5743,-9.1182,-0.5022,3.5547,-0.2029,-0.7757,0.595,1.5479,1.135,19.0,-109.6,28.2,11.2,346.47,68.67,98.16,,67.958,,,,NaN,,,,0 / 0,6412,2014-12-14 04:23:49:823
-0.0883,-9.5321,-1.5298,-3.3886,-9.1652,-0.8291,3.3003,-0.3669,-0.7007,0.5534,2.4044,1.047,19.0,-108.7,29.9,12.6,344.46,68.65,99.77,,67.958,,,,NaN,,,,0 / 0,6462,2014-12-14 04:23:49:873
0.2648,-9.5615,-1.5593,-3.3499,-9.1735,-0.8919,3.6146,-0.388,-0.6674,0.6487,2.3091,1.0702,19.0,-108.3,30.4,12.1,339.5,69.3,104.91,,67.958,,,,NaN,,,,0 / 0,6512,2014-12-14 04:23:49:923
0.2844,-10.8756,-2.1477,-2.5938,-9.3438,-1.4612,2.8782,-1.5317,-0.6864,0.7196,1.6994,0.711,15.0,-108.3,31.7,14.1,339.5,69.3,104.91,,67.958,,,,NaN,,,,0 / 0,6561,2014-12-14 04:23:49:972
0.2648,-10.8069,-1.7162,-2.365,-9.4055,-1.4542,2.6298,-1.4015,-0.262,0.8735,1.9328,0.7001,15.0,-109.2,31.7,15.1,324.46,72.33,119.39,,67.958,,,,NaN,,,,0 / 0,6611,2014-12-14 04:23:50:022
0.5982,-10.2283,0.1765,-1.9805,-9.5435,-1.0816,2.5787,-0.6848,1.2581,1.2999,2.1295,0.6023,15.0,-109.6,31.7,13.6,325.55,76.7,118.64,,67.958,,,,NaN,,,,0 / 0,6662,2014-12-14 04:23:50:073
0.657,-10.1107,0.3923,-1.798,-9.6171,-0.6694,2.5787,-0.6848,1.2581,1.2999,2.1295,0.6023,15.0,-109.6,31.7,13.6,325.55,76.7,118.64,,67.958,,,,NaN,,,,0 / 0,6712,2014-12-14 04:23:50:123
1.9613,-12.1602,-3.3048,-2.3952,-9.3353,1.8124,4.3565,-2.8249,-5.1172,3.3146,0.0586,2.3885,15.0,-104.0,26.5,-1.5,359.64,79.72,86.14,,57.561,,,,NaN,,,,0 / 0,6761,2014-12-14 04:23:50:172
2.9126,-11.4738,-4.9131,-2.4901,-9.2734,1.9934,5.4027,-2.2004,-6.9066,3.0678,0.0525,2.3445,15.0,-103.5,25.6,-2.0,38.36,71.02,51.32,,57.561,,,,NaN,,,,0 / 0,6811,2014-12-14 04:23:50:222
3.1381,-10.7579,-4.6484,-2.6375,-9.1584,2.3103,5.7756,-1.5995,-6.9587,3.1484,0.0342,1.9804,15.0,-102.7,23.0,-6.4,43.27,69.05,48.78,,57.561,,,,NaN,,,,0 / 0,6861,2014-12-14 04:23:50:272
2.7851,-10.7481,-3.0597,-2.6731,-9.1035,2.4802,5.4582,-1.6446,-5.5399,3.2791,0.1466,1.9572,15.0,-102.2,21.3,-7.9,43.27,69.05,48.78,,57.561,,,,NaN,,,,0 / 0,6911,2014-12-14 04:23:50:322
4.3542,-6.4332,-1.2749,-2.5416,-8.8038,3.4934,6.8957,2.3707,-4.7682,2.2077,1.0043,2.2602,15.0,-100.0,16.0,-13.7,57.19,64.94,39.12,,57.561,,,,NaN,,,,0 / 0,6961,2014-12-14 04:23:50:372
3.8344,-6.6097,-1.9221,-2.5044,-8.738,3.6805,6.3388,2.1283,-5.6026,1.9645,0.6695,2.1954,15.0,-99.6,16.0,-14.7,63.04,63.0,34.23,,57.561,,,,NaN,,,,0 / 0,7011,2014-12-14 04:23:50:422
3.2656,-6.9333,-2.3536,-2.4105,-8.7137,3.7989,5.6762,1.7804,-6.1525,1.8521,0.1943,1.6701,22.0,-99.6,14.7,-15.7,63.04,63.0,34.23,,57.561,,,,NaN,,,,0 / 0,7062,2014-12-14 04:23:50:473
0.8336,-7.7963,-0.8924,-2.2646,-8.8873,3.4725,3.0981,1.091,-4.3649,0.9859,0.9982,1.0922,22.0,-100.5,13.9,-16.1,64.93,64.99,33.11,,57.561,,,,NaN,,,,0 / 0,7112,2014-12-14 04:23:50:523
1.0395,-9.6399,0.4217,-2.5535,-9.0233,2.8688,3.593,-0.6167,-2.4471,0.7208,1.3769,1.4331,22.0,-100.0,14.7,-14.7,56.17,66.94,41.67,,57.561,,,,NaN,,,,0 / 0,7161,2014-12-14 04:23:50:572
2.03,-9.1006,0.0,-2.5812,-9.062,2.7182,4.6112,-0.0386,-2.7182,0.9139,0.8919,1.3366,22.0,-100.5,16.0,-14.2,56.17,66.94,41.67,,57.561,,,,NaN,,,,0 / 0,7211,2014-12-14 04:23:50:622
3.1185,-8.6004,-1.2356,-2.257,-9.2417,2.3807,5.3755,0.6412,-3.6163,0.7587,1.0996,0.9725,22.0,-101.8,17.3,-11.8,53.04,68.07,43.39,,57.561,,,,NaN,,,,0 / 0,7261,2014-12-14 04:23:50:672
2.5105,-11.1011,0.8728,-1.913,-9.4019,2.0284,3.081,-4.5774,-0.0984,1.0482,0.733,1.3818,22.0,-102.7,18.6,-10.8,51.55,73.48,43.32,,56.572,,,,NaN,,,,0 / 0,7311,2014-12-14 04:23:50:722
0.3825,-14.6217,1.2454,-1.8553,-9.3816,2.171,2.2377,-5.2401,-0.9256,1.2352,0.854,1.4856,22.0,-102.7,18.6,-10.8,54.24,73.07,40.52,,56.572,,,,NaN,,,,0 / 0,7361,2014-12-14 04:23:50:772
-1.471,-9.9243,-0.1471,-2.234,-9.2273,2.457,2.7244,0.6955,-0.1524,1.5321,1.0409,1.5174,22.0,-101.8,18.2,-10.8,54.24,73.07,40.52,,56.572,,,,NaN,,,,0 / 0,7412,2014-12-14 04:23:50:823
-1.2258,-9.8949,0.4119,-2.606,-8.9835,2.9454,1.743,-0.9898,-3.2298,1.2963,0.788,1.4038,22.0,-102.2,18.2,-11.3,53.65,66.36,41.5,,56.572,,,,NaN,,,,0 / 0,7461,2014-12-14 04:23:50:872
0.1373,-10.3264,0.4119,-2.8824,-8.9421,2.8109,3.9219,-1.4922,-1.4085,1.223,0.7795,1.295,22.0,-103.1,18.2,-10.8,53.65,66.36,41.5,,56.572,,,,NaN,,,,0 / 0,7512,2014-12-14 04:23:50:923
1.0297,-9.8361,0.8434,-2.8824,-8.8838,2.9899,3.9121,-0.9522,-2.1465,1.2413,1.0861,1.4148,22.0,-103.1,18.2,-10.8,51.43,64.94,43.95,,56.572,,,,NaN,,,,0 / 0,7561,2014-12-14 04:23:50:972
-0.4903,-10.3068,0.9512,-3.0406,-8.832,2.9868,2.5503,-1.4748,-2.0356,1.2352,1.2596,1.4245,22.0,-103.5,18.6,-10.8,49.86,64.24,45.51,,56.572,,,,NaN,,,,0 / 0,7611,2014-12-14 04:23:51:022
-0.353,-9.6399,1.0591,-3.3643,-8.7342,2.9268,3.0112,-0.9058,-1.8677,1.1997,1.1997,1.223,22.0,-102.7,18.6,-9.8,46.22,62.95,48.98,,56.572,,,,NaN,,,,0 / 0,7661,2014-12-14 04:23:51:072
0.0981,-10.0714,1.4318,-3.4437,-8.7056,2.9195,3.5418,-1.3658,-1.4877,1.1826,1.2914,1.2303,22.0,-103.1,18.6,-9.3,46.22,62.95,48.98,,56.572,,,,NaN,,,,0 / 0,7711,2014-12-14 04:23:51:122
0.2648,-10.0714,1.3043,-3.4655,-8.6898,2.9407,3.7302,-1.3816,-1.6364,1.1851,1.3024,1.2449,22.0,-102.7,19.1,-9.8,45.63,62.39,49.68,,56.572,,,,NaN,,,,0 / 0,7762,2014-12-14 04:23:51:173
0.2648,-10.0714,1.3043,-3.4655,-8.6898,2.9407,3.7302,-1.3816,-1.6364,1.1851,1.3024,1.2449,22.0,-102.7,19.1,-9.8,45.63,62.39,49.68,,56.572,,,,NaN,,,,0 / 0,7811,2014-12-14 04:23:51:222
0.2942,-9.7968,0.8532,-3.5295,-8.6776,2.9005,3.8237,-1.1193,-2.0473,1.157,1.5247,1.2449,22.0,-101.4,19.5,-10.3,45.23,62.25,50.14,,55.026,,,,NaN,,,,0 / 0,7861,2014-12-14 04:23:51:272
0.0785,-9.8459,0.8041,-3.5379,-8.6784,2.8878,3.6163,-1.1675,-2.0836,1.157,1.4991,1.2242,22.0,-101.8,19.1,-9.8,44.63,62.25,50.78,,55.026,,,,NaN,,,,0 / 0,7912,2014-12-14 04:23:51:323
-0.4609,-9.9439,1.118,-3.6248,-8.6727,2.7957,3.1639,-1.2713,-1.6777,1.2083,1.3647,1.1997,22.0,-100.9,19.5,-10.3,44.63,62.25,50.78,,55.026,,,,NaN,,,,0 / 0,7962,2014-12-14 04:23:51:373
-0.1667,-9.9734,0.7943,-3.6701,-8.6503,2.8059,3.3759,-1.2839,-1.9234,1.2168,1.3977,1.2217,22.0,-100.9,20.4,-10.3,42.79,61.89,52.6,,55.026,,,,NaN,,,,0 / 0,8012,2014-12-14 04:23:51:423
-0.1177,-9.993,0.7845,-3.6995,-8.6394,2.801,3.5327,-1.334,-2.0067,1.2278,1.3415,1.2193,22.0,-100.5,19.5,-10.3,42.57,61.76,52.87,,55.026,,,,NaN,,,,0 / 0,8061,2014-12-14 04:23:51:472
-0.1275,-9.993,0.7747,-3.7477,-8.6115,2.8224,3.6203,-1.3814,-2.0477,1.3341,1.372,1.2278,22.0,-100.0,19.1,-9.8,42.66,61.42,53.02,,55.026,,,,NaN,,,,0 / 0,8112,2014-12-14 04:23:51:523
0.0,-9.8655,0.7257,-3.7575,-8.6063,2.8256,3.7575,-1.2592,-2.0999,1.2511,1.3134,1.2388,22.0,-100.0,19.5,-10.3,42.66,61.42,53.02,,55.026,,,,NaN,,,,0 / 0,8161,2014-12-14 04:23:51:572
0.0294,-9.9734,0.608,-3.7582,-8.608,2.8192,3.7778,-1.3261,-2.1818,1.223,1.2901,1.1936,22.0,-99.6,19.5,-10.3,42.38,61.37,53.12,,55.026,,,,NaN,,,,0 / 0,8212,2014-12-14 04:23:51:623
-0.0588,-9.9538,0.7649,-3.7544,-8.6111,2.8149,3.6956,-1.3427,-2.05,1.2291,1.2498,1.1924,22.0,-99.6,19.1,-10.3,42.55,61.41,53.14,,55.026,,,,NaN,,,,0 / 0,8285,2014-12-14 04:23:51:696
-0.0588,-9.9538,0.7649,-3.7544,-8.6111,2.8149,3.6956,-1.3427,-2.05,1.2291,1.2498,1.1924,22.0,-99.6,19.1,-10.3,42.55,61.41,53.14,,55.026,,,,NaN,,,,0 / 0,8311,2014-12-14 04:23:51:722