ACCELEROMETER X (m/s²),ACCELEROMETER Y (m/s²),ACCELEROMETER Z (m/s²),GRAVITY X (m/s²),GRAVITY Y (m/s²),GRAVITY Z (m/s²),LINEAR ACCELERATION X (m/s²),LINEAR ACCELERATION Y (m/s²),LINEAR ACCELERATION Z (m/s²),GYROSCOPE X (rad/s),GYROSCOPE Y (rad/s),GYROSCOPE Z (rad/s),LIGHT (lux),MAGNETIC FIELD X (μT),MAGNETIC FIELD Y (μT),MAGNETIC FIELD Z (μT),ORIENTATION X (°),ORIENTATION Y (°),ORIENTATION Z (°),PROXIMITY (i),SOUND LEVEL (dB),LOCATION Latitude : ,LOCATION Longitude : ,LOCATION Altitude ( m),LOCATION Altitude-google ( m),LOCATION Speed ( Kmh),LOCATION Accuracy ( m),LOCATION ORIENTATION (°),Satellites in range,Time since start in ms ,YYYY-MO-DD HH-MI-SS_SSS
0.2452,-9.9341,-0.255,1.3905,-9.1854,-3.141,-1.1454,-0.7488,2.886,-0.7123,-0.7147,-0.6683,125.0,-93.1,28.6,84.8,207.81,69.47,-156.87,,48.074,,,,NaN,,,,0 / 0,14,2014-12-14 04:25:22:036
0.2157,-9.9734,-0.2648,1.4057,-9.1872,-3.1288,-1.19,-0.7861,2.864,-0.6964,-0.7037,-0.6768,125.0,-93.1,28.6,85.8,206.59,69.53,-155.81,,48.074,,,,NaN,,,,0 / 0,63,2014-12-14 04:25:22:085
0.2256,-10.0224,-0.2059,1.4344,-9.1854,-3.1211,-1.2089,-0.837,2.9152,-0.7208,-0.711,-0.672,125.0,-93.1,29.1,85.3,206.44,69.5,-155.32,,48.074,,,,NaN,,,,0 / 0,114,2014-12-14 04:25:22:136
0.2648,-9.9341,-0.2157,1.4707,-9.1856,-3.1034,-1.206,-0.7485,2.8877,-0.7379,-0.7074,-0.6756,125.0,-93.1,28.6,85.3,206.44,69.5,-155.32,,48.074,,,,NaN,,,,0 / 0,163,2014-12-14 04:25:22:185
0.1569,-10.0126,-0.2256,1.4973,-9.1884,-3.0823,-1.3404,-0.8241,2.8568,-0.7196,-0.6964,-0.6732,125.0,-93.1,29.1,85.3,205.16,69.48,-154.19,,48.074,,,,NaN,,,,0 / 0,214,2014-12-14 04:25:22:236
0.2648,-9.9734,-0.2157,1.5061,-9.1898,-3.074,-1.2413,-0.7835,2.8582,-0.7294,-0.6854,-0.6768,125.0,-93.5,29.1,86.3,204.42,69.57,-153.9,,48.074,,,,NaN,,,,0 / 0,264,2014-12-14 04:25:22:286
0.2648,-9.9341,-0.1177,1.5349,-9.1904,-3.0579,-1.3192,-0.7928,2.8422,-0.7049,-0.7062,-0.6671,125.0,-93.1,28.6,85.3,204.42,69.57,-153.9,,48.074,,,,NaN,,,,0 / 0,313,2014-12-14 04:25:22:335
0.2256,-10.0126,-0.049,1.5741,-9.1971,-3.0177,-1.3485,-0.8155,2.9687,-0.6903,-0.7098,-0.6597,125.0,-93.1,29.1,85.3,203.14,69.69,-152.45,,48.074,,,,NaN,,,,0 / 0,363,2014-12-14 04:25:22:385
-0.2354,-9.7576,-0.0588,1.7009,-9.182,-2.9946,-1.9362,-0.5756,2.9358,-0.8968,-0.8027,-0.7648,125.0,-93.5,29.1,85.8,200.47,69.44,-150.4,,48.074,,,,NaN,,,,0 / 0,414,2014-12-14 04:25:22:436
-0.2354,-9.7576,-0.0588,1.6015,-9.1729,-3.0763,-1.9362,-0.5756,2.9358,-0.8968,-0.8027,-0.7648,125.0,-93.5,29.1,85.8,200.47,69.44,-150.4,,35.301,,,,NaN,,,,0 / 0,463,2014-12-14 04:25:22:485
0.5296,-10.3656,0.7845,1.5995,-9.1758,-3.0686,-1.07,-1.1898,3.8531,-0.7746,-0.7489,-0.9126,125.0,-93.5,28.2,87.3,203.06,69.3,-153.04,,35.301,,,,NaN,,,,0 / 0,513,2014-12-14 04:25:22:535
0.5688,-10.2676,0.863,1.6426,-9.1802,-3.0325,-1.0739,-1.0874,3.8955,-0.7624,-0.711,-0.9016,125.0,-93.5,28.2,87.3,201.34,69.41,-151.56,,35.301,,,,NaN,,,,0 / 0,563,2014-12-14 04:25:22:585
-0.255,-9.7968,-0.0785,1.8604,-9.1797,-2.9055,-2.1154,-0.6171,2.8271,-0.9065,-0.5192,-0.92,125.0,-94.4,28.2,86.8,196.89,69.4,-147.37,,35.301,,,,NaN,,,,0 / 0,613,2014-12-14 04:25:22:635
-0.3628,-9.8361,-0.5198,1.9047,-9.1618,-2.9332,-2.2676,-0.6743,2.4135,-0.9517,-0.43,-0.9468,125.0,-94.4,27.8,87.8,196.89,69.4,-147.37,,35.301,,,,NaN,,,,0 / 0,663,2014-12-14 04:25:22:685
0.2354,-9.9243,-0.2059,2.0803,-9.0159,-3.2491,-1.845,-0.9084,3.0431,-1.1264,-0.4679,-1.0934,125.0,-97.0,26.9,88.7,198.12,67.18,-147.56,,35.301,,,,NaN,,,,0 / 0,714,2014-12-14 04:25:22:736
0.1177,-9.9832,-0.1079,2.123,-8.9938,-3.2825,-2.0054,-0.9894,3.1747,-1.1179,-0.3213,-1.08,125.0,-99.2,26.0,90.2,197.56,66.51,-147.11,,35.301,,,,NaN,,,,0 / 0,764,2014-12-14 04:25:22:786
-0.1471,-10.0126,0.2844,2.2321,-8.95,-3.3295,-2.4153,-1.0602,3.8121,-0.981,-0.4753,-1.0556,125.0,-99.6,25.2,90.7,197.56,66.51,-147.11,,35.301,,,,NaN,,,,0 / 0,814,2014-12-14 04:25:22:836
-0.8532,-10.7089,1.3043,2.2723,-9.01,-3.1346,-3.1255,-1.6988,4.4389,-0.8063,-0.8027,-0.9933,125.0,-100.9,25.2,90.7,194.75,65.84,-144.7,,35.301,,,,NaN,,,,0 / 0,864,2014-12-14 04:25:22:886
-0.8532,-10.7089,1.3043,2.2723,-9.01,-3.1346,-3.1255,-1.6988,4.4389,-0.8063,-0.8027,-0.9933,92.0,-100.9,25.2,90.7,194.75,65.84,-144.7,,35.301,,,,NaN,,,,0 / 0,914,2014-12-14 04:25:22:936
0.1961,-12.8957,0.0294,1.8621,-9.3131,-2.4431,-1.6659,-3.5826,2.4725,0.2431,-1.3182,-0.5877,92.0,-97.0,28.6,86.3,192.72,70.57,-143.08,,40.658,,,,NaN,,,,0 / 0,964,2014-12-14 04:25:22:986
0.1961,-12.8957,0.0294,1.8621,-9.3131,-2.4431,-1.6659,-3.5826,2.4725,0.2431,-1.3182,-0.5877,92.0,-97.0,28.6,86.3,192.72,70.57,-143.08,,40.658,,,,NaN,,,,0 / 0,1016,2014-12-14 04:25:23:038
0.3628,-9.1496,-1.1964,2.248,-9.4243,-1.5167,1.4982,0.716,0.7616,0.4801,-1.6933,-0.5143,92.0,-93.5,31.7,79.5,172.47,73.95,-124.01,,40.658,,,,NaN,,,,0 / 0,1064,2014-12-14 04:25:23:086
0.1667,-9.1594,-0.0883,2.377,-9.3567,-1.7241,-1.9357,0.1973,1.6359,-0.1881,-1.1289,-0.2431,265.0,-89.6,34.7,72.6,173.97,72.28,-123.9,,40.658,,,,NaN,,,,0 / 0,1114,2014-12-14 04:25:23:136
1.2356,-8.9339,0.6865,2.2848,-9.3694,-1.7789,-1.9357,0.1973,1.6359,-0.1881,-1.1289,-0.2431,265.0,-89.6,34.7,72.6,173.97,72.28,-123.9,,40.658,,,,NaN,,,,0 / 0,1164,2014-12-14 04:25:23:186
2.2653,-8.6593,0.8924,2.2965,-9.3628,-1.7984,-0.0311,0.7035,2.6908,-0.6182,-1.5455,-0.4093,265.0,-86.1,35.2,69.7,179.54,72.81,-128.03,,40.658,,,,NaN,,,,0 / 0,1214,2014-12-14 04:25:23:236
1.775,-8.9339,1.5691,2.5339,-9.2929,-1.8418,-0.7589,0.359,3.4109,-0.6182,-1.5455,-0.4093,458.0,-86.1,35.2,69.7,179.54,72.81,-128.03,,40.658,,,,NaN,,,,0 / 0,1263,2014-12-14 04:25:23:285
1.1964,-8.9927,1.8044,2.645,-9.2733,-1.7831,-1.4486,0.2806,3.5876,-0.7905,-1.0996,-0.292,458.0,-83.1,34.7,68.2,173.64,71.02,-123.99,,40.658,,,,NaN,,,,0 / 0,1314,2014-12-14 04:25:23:336
1.0101,-9.5026,2.0692,2.7631,-9.2523,-1.712,-1.753,-0.2504,3.7812,-1.091,-1.1985,-0.5266,458.0,-80.5,34.3,67.8,169.75,70.64,-121.78,,40.658,,,,NaN,,,,0 / 0,1364,2014-12-14 04:25:23:386
1.2454,-9.13,2.5007,2.7631,-9.2523,-1.712,-1.753,-0.2504,3.7812,-1.091,-1.1985,-0.5266,458.0,-80.5,34.3,67.8,169.75,70.64,-121.78,,40.658,,,,NaN,,,,0 / 0,1413,2014-12-14 04:25:23:435
1.4612,-8.9633,2.4909,2.9752,-9.1895,-1.6948,-1.7298,0.0595,4.1955,-1.4673,-0.8577,-0.7282,458.0,-80.0,33.4,69.2,166.63,69.56,-119.67,,50.744,,,,NaN,,,,0 / 0,1464,2014-12-14 04:25:23:486
3.7461,-16.9459,-1.3631,3.6064,-8.9018,-1.9804,0.1398,-8.0441,0.6173,-1.9853,0.6304,-1.2376,458.0,-82.2,31.7,73.6,163.21,65.19,-118.77,,50.744,,,,NaN,,,,0 / 0,1513,2014-12-14 04:25:23:535
0.5786,-9.1104,-1.1376,3.608,-8.8186,-2.3206,-3.0294,-0.2918,1.1831,-1.4258,0.6561,-0.5424,458.0,-85.3,29.5,76.5,163.21,65.19,-118.77,,50.744,,,,NaN,,,,0 / 0,1564,2014-12-14 04:25:23:586
1.8437,-6.9823,-0.1569,3.586,-8.7717,-2.5237,-1.7423,1.7893,2.3668,-1.1277,-0.204,-0.8711,458.0,-85.7,29.5,76.5,171.4,63.44,-125.14,,50.744,,,,NaN,,,,0 / 0,1613,2014-12-14 04:25:23:635
-2.4615,-8.5318,-5.933,3.0962,-8.3397,-4.1272,-6.1362,-2.781,1.8128,-1.2022,0.5376,-0.4581,458.0,-87.9,26.5,79.9,194.73,58.26,-143.12,,50.744,,,,NaN,,,,0 / 0,1663,2014-12-14 04:25:23:685
-0.1079,-9.5517,-0.6669,2.812,-8.381,-4.2452,-2.9199,-1.1706,3.5783,-1.295,0.2346,-0.5608,458.0,-87.9,26.5,79.9,194.73,58.26,-143.12,,50.744,,,,NaN,,,,0 / 0,1713,2014-12-14 04:25:23:735
2.0006,-9.483,-0.1079,2.7416,-8.3755,-4.3017,-0.7411,-1.1075,4.1938,-1.3964,-0.3286,-0.6793,212.0,-88.7,25.6,80.9,200.2,58.66,-147.49,,50.744,,,,NaN,,,,0 / 0,1763,2014-12-14 04:25:23:785
1.5495,-9.1986,-3.0695,2.9503,-8.2593,-4.3875,-1.4008,-0.9393,1.318,-1.4832,-0.1808,-0.876,212.0,-89.2,24.3,82.4,200.2,58.66,-147.49,,50.744,,,,NaN,,,,0 / 0,1813,2014-12-14 04:25:23:835
1.0395,-10.6108,-2.991,3.0812,-7.8222,-5.0488,-2.0417,-2.7886,2.0578,-1.4331,-0.3653,-1.0678,212.0,-93.1,22.1,84.8,201.04,54.06,-147.41,,50.744,,,,NaN,,,,0 / 0,1864,2014-12-14 04:25:23:886
0.4217,-10.1597,-3.3146,3.0927,-7.6865,-5.2462,-2.671,-2.4732,1.9316,-1.5821,-0.3225,-1.1264,212.0,-94.0,20.8,86.3,204.35,51.61,-149.48,,50.744,,,,NaN,,,,0 / 0,1914,2014-12-14 04:25:23:936
0.353,-10.8069,-1.4514,3.0664,-7.4642,-5.5725,-2.782,-3.176,3.8465,-1.3305,0.2786,-1.0324,92.0,-97.0,18.2,88.7,206.81,49.56,-151.18,,50.744,,,,NaN,,,,0 / 0,1964,2014-12-14 04:25:23:986
0.304,-10.8167,-1.2749,3.1042,-7.4743,-5.538,-2.8002,-3.3425,4.2632,-1.2877,0.2786,-0.992,92.0,-97.9,16.9,88.2,206.81,49.56,-151.18,,57.623,,,,NaN,,,,0 / 0,2014,2014-12-14 04:25:24:036
-1.0591,-10.5029,-0.6374,3.2186,-7.6684,-5.1969,-4.306,-2.8933,4.4735,-0.7697,0.0611,-1.1961,51.0,-100.5,14.7,88.2,203.18,51.44,-148.23,,57.623,,,,NaN,,,,0 / 0,2064,2014-12-14 04:25:24:086
-0.7845,-10.7579,-0.2354,3.1358,-7.8372,-4.9915,-3.9204,-2.9207,4.7562,-0.4264,-0.2896,-1.0983,51.0,-102.2,15.2,87.3,203.27,53.05,-147.86,,57.623,,,,NaN,,,,0 / 0,2114,2014-12-14 04:25:24:136
-0.5099,-10.6794,0.2256,3.0946,-7.9071,-4.9062,-3.6046,-2.7723,5.1318,-0.1576,-0.5131,-1.1582,51.0,-102.7,15.2,86.8,203.27,53.05,-147.86,,57.623,,,,NaN,,,,0 / 0,2164,2014-12-14 04:25:24:186
-0.0883,-11.8857,0.4707,3.0674,-8.0773,-4.6388,-3.1556,-3.8083,5.1095,0.2138,-0.3946,-1.1631,51.0,-103.1,15.2,85.8,201.56,55.45,-146.53,,57.623,,,,NaN,,,,0 / 0,2214,2014-12-14 04:25:24:236
3.599,-11.1305,-3.7363,2.7153,-9.2669,-1.7095,-2.5546,-2.5107,-4.2947,2.1832,-0.5131,-0.2615,51.0,-103.5,17.3,79.0,201.56,55.45,-146.53,,57.623,,,,NaN,,,,0 / 0,2263,2014-12-14 04:25:24:285
3.599,-11.1305,-3.7363,2.7153,-9.2669,-1.7095,-2.5546,-2.5107,-4.2947,1.0873,-1.6249,0.7159,51.0,-96.6,19.9,69.2,176.37,70.9,-122.19,,57.623,,,,NaN,,,,0 / 0,2314,2014-12-14 04:25:24:336
2.4517,-10.9834,-1.5396,1.635,-9.4755,-1.9268,0.8167,-1.508,0.3872,1.2193,-2.3066,0.5217,51.0,-93.1,20.4,65.3,195.96,75.07,-139.68,,57.623,,,,NaN,,,,0 / 0,2363,2014-12-14 04:25:24:385
2.589,-7.6982,-2.1771,1.4765,-9.5431,-1.7088,1.1124,1.8448,-0.4683,0.4374,-2.4154,0.2505,284.0,-88.3,20.4,61.4,195.96,75.07,-139.68,,57.623,,,,NaN,,,,0 / 0,2414,2014-12-14 04:25:24:436
2.0398,-6.0899,-1.7848,1.4502,-9.4948,-1.9791,0.6484,3.6206,-0.3941,0.0965,-2.1771,0.1222,284.0,-83.5,19.9,59.5,199.41,75.51,-143.77,,57.623,,,,NaN,,,,0 / 0,2464,2014-12-14 04:25:24:486
2.2065,-6.6881,-1.2356,1.5907,-9.3039,-2.6605,0.6158,2.6157,0.7972,-1.0934,-1.8925,-0.2627,284.0,-81.8,19.1,59.9,207.77,69.86,-150.76,,57.623,,,,NaN,,,,0 / 0,2515,2014-12-14 04:25:24:537
2.0496,-8.777,0.7551,1.8173,-8.968,-3.5273,0.0579,-0.2564,5.7792,-1.945,-0.8173,-0.4459,284.0,-79.6,16.9,62.9,207.77,69.86,-150.76,,59.916,,,,NaN,,,,0 / 0,2563,2014-12-14 04:25:24:585
2.0104,-11.7484,4.4032,2.5918,-8.9952,-2.9222,-1.5228,-4.2536,7.3254,-0.854,-1.7837,-0.6939,765.0,-79.6,14.7,66.3,194.94,65.45,-142.27,,59.916,,,,NaN,,,,0 / 0,2638,2014-12-14 04:25:24:660
1.0689,-13.2488,4.4032,2.5918,-8.9952,-2.9222,-1.5228,-4.2536,7.3254,-0.854,-1.7837,-0.6939,765.0,-79.2,14.3,66.3,189.89,66.53,-138.43,,59.916,,,,NaN,,,,0 / 0,2702,2014-12-14 04:25:24:724
1.0689,-13.2488,4.4032,2.5918,-8.9952,-2.9222,-1.5228,-4.2536,7.3254,-0.854,-1.7837,-0.6939,765.0,-79.2,14.3,66.3,189.89,66.53,-138.43,,59.916,,,,NaN,,,,0 / 0,2715,2014-12-14 04:25:24:737
1.0689,-13.2488,4.4032,2.5918,-8.9952,-2.9222,-1.5228,-4.2536,7.3254,-0.854,-1.7837,-0.6939,765.0,-79.2,14.3,66.3,189.89,66.53,-138.43,,59.916,,,,NaN,,,,0 / 0,2763,2014-12-14 04:25:24:785
1.0689,-13.2488,4.4032,2.5918,-8.9952,-2.9222,-1.5228,-4.2536,7.3254,-0.854,-1.7837,-0.6939,765.0,-79.2,14.3,66.3,189.89,66.53,-138.43,,59.916,,,,NaN,,,,0 / 0,2814,2014-12-14 04:25:24:836
2.0006,-9.3654,4.9426,2.6164,-9.1479,-2.3751,-0.6159,-0.2175,7.3177,-0.6585,-0.9652,-0.7257,765.0,-78.7,14.3,67.8,186.98,67.2,-136.8,,59.916,,,,NaN,,,,0 / 0,2863,2014-12-14 04:25:24:885
2.0006,-9.3654,4.9426,2.6164,-9.1479,-2.3751,-0.6159,-0.2175,7.3177,-0.7587,-0.8039,-0.8076,765.0,-78.7,14.3,67.8,186.98,67.2,-136.8,,59.916,,,,NaN,,,,0 / 0,2914,2014-12-14 04:25:24:936
1.9809,-11.2482,0.8336,2.9781,-9.1051,-2.0974,-0.9971,-2.1431,2.9309,-1.2706,-0.2553,-1.284,765.0,-79.2,13.4,68.7,179.08,69.0,-129.9,,59.916,,,,NaN,,,,0 / 0,2964,2014-12-14 04:25:24:986
1.9809,-11.2482,0.8336,2.9781,-9.1051,-2.0974,-0.9971,-2.1431,2.9309,-1.2706,-0.2553,-1.284,765.0,-79.2,13.4,68.7,179.08,69.0,-129.9,,59.916,,,,NaN,,,,0 / 0,3014,2014-12-14 04:25:25:036
1.0787,-8.5612,-3.1675,3.2866,-8.981,-2.1705,-2.2078,0.4198,-0.997,-2.0427,1.124,-0.5034,765.0,-84.4,10.8,75.6,170.1,66.32,-123.44,,59.916,,,,NaN,,,,0 / 0,3064,2014-12-14 04:25:25:086
1.0787,-8.5612,-3.1675,3.2866,-8.981,-2.1705,-2.2078,0.4198,-0.997,-2.0427,1.124,-0.5034,765.0,-84.4,10.8,75.6,170.1,66.32,-123.44,,59.916,,,,NaN,,,,0 / 0,3114,2014-12-14 04:25:25:136
0.9905,-10.1008,-3.3931,3.0069,-8.2524,-4.362,-2.0164,-1.8484,0.9689,-1.6897,0.1442,-0.9737,765.0,-90.5,3.9,86.3,175.61,64.27,-128.42,,59.916,,,,NaN,,,,0 / 0,3164,2014-12-14 04:25:25:186
0.2452,-10.2774,-2.9126,3.0959,-7.7059,-5.2158,-2.8508,-2.5715,2.3032,-1.5638,-0.2847,-1.1179,292.0,-95.3,0.0,89.7,199.87,51.79,-149.31,,59.916,,,,NaN,,,,0 / 0,3213,2014-12-14 04:25:25:235
-0.5982,-10.346,-0.1765,3.1674,-7.467,-5.512,-3.7656,-2.879,5.3355,-1.0372,0.0061,-1.1558,131.0,-101.4,-5.3,94.1,201.18,50.41,-150.06,,59.916,,,,NaN,,,,0 / 0,3263,2014-12-14 04:25:25:285
-0.255,-12.0818,0.4315,3.1073,-7.9894,-4.7628,-3.7656,-2.879,5.3355,-1.0372,0.0061,-1.1558,81.0,-106.1,-6.1,95.1,201.18,50.41,-150.06,,59.916,,,,NaN,,,,0 / 0,3314,2014-12-14 04:25:25:336
-0.4903,-15.4259,1.4122,3.0152,-8.2869,-4.2902,-3.5055,-7.1389,5.7024,1.0324,-0.3128,-0.6964,81.0,-108.7,-4.0,95.1,197.68,54.56,-146.88,,62.991,,,,NaN,,,,0 / 0,3364,2014-12-14 04:25:25:386
2.03,-11.6013,2.5203,2.7329,-8.9423,-2.9559,-0.703,-2.659,5.4762,1.8729,-1.4954,0.2126,81.0,-110.5,2.6,91.7,188.11,65.76,-137.24,,62.991,,,,NaN,,,,0 / 0,3414,2014-12-14 04:25:25:436
0.8532,-12.2877,-3.5402,2.4781,-9.3081,-1.8409,-0.6445,-2.6145,-0.6732,1.2168,-1.7446,0.6805,81.0,-104.8,18.6,82.4,178.47,71.65,-126.61,,62.991,,,,NaN,,,,0 / 0,3463,2014-12-14 04:25:25:485
2.3046,-8.9241,-1.6867,1.9438,-9.4704,-1.6442,0.3608,0.5464,-0.0425,1.124,-1.89,0.5498,81.0,-103.5,20.8,79.5,178.47,71.65,-126.61,,62.991,,,,NaN,,,,0 / 0,3513,2014-12-14 04:25:25:535
2.3928,-8.4337,-2.0398,1.8925,-9.4896,-1.5925,0.5003,1.0559,-0.4473,1.036,-1.8729,0.4789,346.0,-102.7,21.7,79.0,182.8,75.39,-130.08,,62.991,,,,NaN,,,,0 / 0,3563,2014-12-14 04:25:25:585
2.5693,-5.629,-2.3732,1.9242,-9.4554,-1.7501,0.6451,3.8264,-0.6231,0.5058,-2.3164,-0.1845,346.0,-98.3,25.6,73.6,185.76,74.62,-132.29,,62.991,,,,NaN,,,,0 / 0,3613,2014-12-14 04:25:25:635
3.7167,-5.2269,-1.9417,2.296,-9.2447,-2.3313,1.4207,4.0177,0.3896,-0.6439,-1.3011,-0.4032,346.0,-95.7,27.8,70.7,185.76,74.62,-132.29,,62.991,,,,NaN,,,,0 / 0,3663,2014-12-14 04:25:25:685
2.5301,-7.6492,-0.1471,2.5294,-9.082,-2.7,0.5695,2.1879,1.9056,-1.306,-1.2779,-0.4362,346.0,-94.8,27.8,70.2,192.5,67.84,-136.87,,62.991,,,,NaN,,,,0 / 0,3713,2014-12-14 04:25:25:735
2.1771,-7.7178,0.1765,2.6239,-8.9997,-2.8795,-0.0938,1.3505,2.7324,-1.4771,-1.328,-0.3885,346.0,-94.8,27.8,71.2,193.16,66.59,-137.66,,62.991,,,,NaN,,,,0 / 0,3763,2014-12-14 04:25:25:785
1.9319,-9.0123,3.9325,2.9364,-8.691,-3.4661,-1.259,-1.2487,8.4511,-1.9401,-1.1545,-0.2761,948.0,-94.4,27.3,72.1,193.16,66.59,-137.66,,62.991,,,,NaN,,,,0 / 0,3813,2014-12-14 04:25:25:835
2.7262,-16.7694,4.0403,3.2038,-8.6234,-3.3974,-2.2977,-3.6547,7.7225,-1.6383,-0.4068,-1.124,948.0,-95.3,24.7,76.5,189.76,61.56,-136.68,,62.991,,,,NaN,,,,0 / 0,3864,2014-12-14 04:25:25:886
2.5203,-3.6285,-6.9823,3.6121,-8.8421,-2.2225,-1.2364,5.0252,-4.3042,-0.8112,-1.1215,-1.3134,948.0,-97.0,24.7,77.0,189.76,61.56,-136.68,,62.991,,,,NaN,,,,0 / 0,3914,2014-12-14 04:25:25:936
2.1378,-3.3146,-2.5791,3.9629,-8.3182,-3.3577,-1.825,5.0035,0.7786,-2.0794,1.0825,-0.7184,948.0,-101.8,21.7,79.5,182.86,58.02,-130.27,,62.991,,,,NaN,,,,0 / 0,3964,2014-12-14 04:25:25:986
-1.7064,-3.9129,-3.4617,4.2339,-7.8996,-3.9801,-5.9403,3.9867,0.5184,-1.631,-0.5058,-1.0482,948.0,-103.1,20.4,80.9,182.86,58.02,-130.27,,62.991,,,,NaN,,,,0 / 0,4014,2014-12-14 04:25:26:036
3.6677,-9.4046,-1.7162,2.93,-7.672,-5.3596,-7.6049,-5.9623,1.0033,-1.0263,-0.3445,-0.5424,547.0,-103.1,19.1,82.9,205.88,51.26,-147.25,,59.33,,,,NaN,,,,0 / 0,4064,2014-12-14 04:25:26:086
-0.3628,-9.9636,-2.5399,3.3397,-7.2903,-5.6452,-3.3519,-2.7077,1.6607,-1.6738,0.3934,-0.9175,308.0,-105.7,15.2,85.8,210.05,51.47,-151.34,,59.33,,,,NaN,,,,0 / 0,4114,2014-12-14 04:25:26:136
0.5296,-9.9439,-2.7753,3.2337,-7.1521,-5.8789,-2.7042,-2.7919,3.1036,-1.5003,-0.4044,-1.1875,308.0,-109.2,12.1,88.2,209.8,47.66,-149.88,,59.33,,,,NaN,,,,0 / 0,4163,2014-12-14 04:25:26:185
0.0294,-9.8949,-1.9907,3.2019,-7.0088,-6.0659,-3.1725,-2.8861,4.0751,-1.4465,-0.1735,-1.135,308.0,-110.9,9.5,89.7,212.86,45.62,-152.17,,59.33,,,,NaN,,,,0 / 0,4214,2014-12-14 04:25:26:236
0.8238,-10.2283,-1.4808,3.3062,-6.9976,-6.0228,-2.4824,-3.2308,4.542,-1.3097,0.2468,-1.1301,308.0,-113.1,7.3,89.2,212.12,45.52,-151.24,,59.33,,,,NaN,,,,0 / 0,4264,2014-12-14 04:25:26:286
-0.9218,-11.1011,0.6865,3.6158,-7.1385,-5.669,-4.5376,-3.9626,6.3555,-1.0104,0.0623,-1.2376,308.0,-117.0,5.2,88.2,212.12,45.52,-151.24,,59.33,,,,NaN,,,,0 / 0,4314,2014-12-14 04:25:26:336
-1.422,-12.7683,2.8635,3.3736,-7.7063,-5.04,-4.9818,-4.1009,7.2367,0.3482,-0.4618,-1.1203,170.0,-118.7,5.2,89.2,205.79,50.45,-146.59,,59.33,,,,NaN,,,,0 / 0,4364,2014-12-14 04:25:26:386
-1.422,-12.7683,2.8635,3.3736,-7.7063,-5.04,-4.9818,-4.1009,7.2367,0.3482,-0.4618,-1.1203,170.0,-118.7,5.2,89.2,205.79,50.45,-146.59,,59.33,,,,NaN,,,,0 / 0,4414,2014-12-14 04:25:26:436
3.9717,-13.9647,-6.4332,2.5494,-9.2783,-1.8933,-1.4239,-3.029,-5.891,1.2804,-1.5626,0.5754,136.0,-118.3,16.5,79.5,181.65,69.58,-125.61,,59.33,,,,NaN,,,,0 / 0,4463,2014-12-14 04:25:26:485
1.5102,-10.9246,-2.0006,1.6252,-9.4209,-2.1856,-0.1149,-1.5038,0.185,1.4087,-2.1771,0.4068,136.0,-109.6,25.6,70.7,202.55,73.88,-143.37,,55.297,,,,NaN,,,,0 / 0,4514,2014-12-14 04:25:26:536
2.5497,-7.1,-2.2457,1.266,-9.5341,-1.9156,1.2838,2.434,-0.3301,0.5742,-2.149,0.4581,136.0,-103.1,29.9,64.3,206.84,76.46,-146.54,,55.297,,,,NaN,,,,0 / 0,4563,2014-12-14 04:25:26:585
2.0006,-5.3839,-2.8635,1.2432,-9.4544,-2.2889,0.7573,4.0705,-0.5746,-0.1735,-2.9114,-0.0855,773.0,-97.0,33.0,59.0,213.62,74.6,-151.49,,55.297,,,,NaN,,,,0 / 0,4614,2014-12-14 04:25:26:636
3.2656,-5.2269,-2.9322,1.2432,-9.4544,-2.2889,0.7573,4.0705,-0.5746,-0.1735,-2.9114,-0.0855,773.0,-97.0,33.0,59.0,213.62,74.6,-151.49,,55.297,,,,NaN,,,,0 / 0,4663,2014-12-14 04:25:26:685
1.5985,-9.3261,1.6671,1.8906,-8.8163,-3.8561,-0.2921,-0.5099,5.5232,-2.16,-0.4019,-0.3665,773.0,-93.5,32.6,60.4,218.15,69.26,-154.59,,55.297,,,,NaN,,,,0 / 0,4713,2014-12-14 04:25:26:735
1.5691,-9.9636,3.0401,1.9903,-8.7557,-3.9429,-0.4212,-1.2078,6.9829,-2.2407,-0.1344,-0.4325,773.0,-93.5,32.6,60.9,217.96,63.23,-153.22,,55.297,,,,NaN,,,,0 / 0,4767,2014-12-14 04:25:26:789
3.4421,-11.3561,5.1093,2.517,-8.6683,-3.8336,0.9252,-2.6878,8.9428,-2.011,-0.8296,-0.7233,773.0,-94.0,31.3,63.9,217.96,63.23,-153.22,,55.297,,,,NaN,,,,0 / 0,4814,2014-12-14 04:25:26:836
3.3735,-11.9837,4.0207,2.8433,-8.6406,-3.6642,0.5302,-3.3431,7.6849,-1.6322,-1.4184,-0.9004,1150.0,-93.5,31.3,65.3,202.59,61.77,-142.19,,55.297,,,,NaN,,,,0 / 0,4864,2014-12-14 04:25:26:886
2.9616,-12.729,3.5304,3.0052,-8.6181,-3.5872,-0.0436,-4.111,7.1176,-1.4062,-1.5247,-0.9749,1150.0,-94.0,30.8,65.8,202.59,61.77,-142.19,,55.297,,,,NaN,,,,0 / 0,4914,2014-12-14 04:25:26:936
2.03,-10.0616,4.4522,3.4233,-8.5972,-3.2463,-1.3933,-1.4644,7.6986,-0.6732,-1.003,-1.0018,1150.0,-94.0,31.3,65.8,191.21,61.24,-133.48,,55.297,,,,NaN,,,,0 / 0,4964,2014-12-14 04:25:26:986
2.03,-9.5026,-4.4914,3.4233,-8.5972,-3.2463,-1.3933,-1.4644,7.6986,-2.4972,1.4135,-0.2663,1150.0,-94.0,31.3,69.7,191.21,53.49,-133.27,,55.297,,,,NaN,,,,0 / 0,5066,2014-12-14 04:25:27:088
-0.6865,-9.5026,-4.4914,4.2486,-7.8819,-3.9993,-4.9351,-1.6207,-0.4921,-2.4972,1.4135,-0.2663,1150.0,-98.3,27.8,69.7,191.55,53.49,-133.27,,55.297,,,,NaN,,,,0 / 0,5069,2014-12-14 04:25:27:091
-1.118,-5.9526,-0.6963,4.1365,-7.5373,-4.7169,-4.85,0.8142,-1.1827,-1.7935,-0.7306,-1.2022,1150.0,-100.5,25.6,72.6,191.55,53.49,-133.27,,60.549,,,,NaN,,,,0 / 0,5113,2014-12-14 04:25:27:135
1.5495,-10.042,-0.7355,3.2687,-6.9716,-6.0731,-1.7193,-3.0704,5.3376,-1.4966,0.2101,-0.7208,358.0,-100.5,25.6,72.6,191.55,53.49,-133.27,,60.549,,,,NaN,,,,0 / 0,5164,2014-12-14 04:25:27:186
-0.2844,-10.346,-3.0499,3.5495,-6.8558,-6.0473,-3.8339,-3.4902,2.9974,-1.4233,0.4215,-0.7428,358.0,-103.1,20.4,77.5,215.99,45.1,-150.02,,60.549,,,,NaN,,,,0 / 0,5213,2014-12-14 04:25:27:235
0.608,-9.4144,-3.2264,3.433,-6.7781,-6.2002,-2.825,-2.6363,2.9738,-1.4184,0.0318,-0.9749,358.0,-105.3,19.5,78.0,218.55,43.72,-151.03,,60.549,,,,NaN,,,,0 / 0,5263,2014-12-14 04:25:27:285
0.049,-9.4536,-2.9714,3.4521,-6.6015,-6.3776,-3.403,-2.8521,3.4062,-1.5125,-0.0037,-1.091,151.0,-106.1,18.2,79.0,218.55,43.72,-151.03,,60.549,,,,NaN,,,,0 / 0,5314,2014-12-14 04:25:27:336
0.049,-9.4536,-2.9714,3.4521,-6.6015,-6.3776,-3.403,-2.8521,3.4062,-1.383,0.4581,-1.0348,151.0,-109.2,15.6,79.0,219.82,42.31,-151.57,,60.549,,,,NaN,,,,0 / 0,5364,2014-12-14 04:25:27:386
0.4119,-9.8165,-1.3631,3.508,-6.5012,-6.4497,-3.0961,-3.3153,5.0866,-1.2853,0.5217,-1.0336,151.0,-110.0,15.6,79.5,220.06,41.52,-151.46,,60.549,,,,NaN,,,,0 / 0,5413,2014-12-14 04:25:27:435
-0.3628,-10.6206,-0.9414,3.7508,-6.609,-6.1986,-4.1136,-4.0116,5.2572,-1.0678,0.2175,-1.2437,151.0,-112.7,13.9,79.0,220.06,41.52,-151.46,,60.549,,,,NaN,,,,0 / 0,5464,2014-12-14 04:25:27:486
-1.3239,-10.8462,-0.3138,3.4426,-7.1362,-5.7787,-4.9065,-3.9038,5.614,-0.4362,-0.452,-1.1057,151.0,-114.4,13.0,78.0,215.64,45.07,-148.85,,60.549,,,,NaN,,,,0 / 0,5513,2014-12-14 04:25:27:535
3.4225,-11.6405,-1.9613,3.3591,-7.7829,-4.9309,0.2304,-2.8934,1.1158,2.1466,-0.9933,0.0953,84.0,-114.4,17.8,61.9,216.33,52.53,-145.74,,60.549,,,,NaN,,,,0 / 0,5563,2014-12-14 04:25:27:585
-1.0885,-12.4446,-6.845,2.9187,-8.9519,-2.7413,0.6741,-3.6264,-0.822,1.306,-1.3854,0.3726,84.0,-114.0,18.2,60.9,216.33,52.53,-145.74,,63.967,,,,NaN,,,,0 / 0,5614,2014-12-14 04:25:27:636
-1.0885,-12.4446,-6.845,2.9187,-8.9519,-2.7413,-4.3814,-3.1422,-2.8079,1.1985,-1.5186,0.8931,84.0,-110.5,20.4,55.6,199.02,65.9,-133.2,,63.967,,,,NaN,,,,0 / 0,5664,2014-12-14 04:25:27:686
2.3634,-9.7282,-1.1278,1.8879,-9.2214,-2.7517,0.4755,-0.5068,1.6239,1.339,-2.4923,0.3983,84.0,-107.0,21.7,49.7,214.2,70.11,-145.55,,63.967,,,,NaN,,,,0 / 0,5713,2014-12-14 04:25:27:735
1.3337,-6.8058,-2.6968,1.4126,-9.3542,-2.5834,-0.0789,2.5484,-0.1134,0.4496,-2.7245,0.3971,84.0,-102.2,22.6,43.4,222.27,72.53,-151.33,,63.967,,,,NaN,,,,0 / 0,5763,2014-12-14 04:25:27:785
2.8439,-7.1,-1.5789,1.1527,-9.1981,-3.1996,0.789,3.4023,0.9735,-0.5461,-2.3225,-0.1295,906.0,-100.5,22.6,42.9,232.16,69.71,-160.19,,63.967,,,,NaN,,,,0 / 0,5813,2014-12-14 04:25:27:835
2.687,-7.6982,-1.0689,1.1999,-8.9737,-3.7687,1.4872,1.2755,2.6998,-1.2926,-1.8008,-0.0501,906.0,-99.2,22.6,43.4,235.58,66.21,-162.34,,63.967,,,,NaN,,,,0 / 0,5863,2014-12-14 04:25:27:885
1.0983,-9.2379,3.1479,1.3548,-8.7784,-4.1562,-0.2564,-0.4595,7.3042,-1.6591,-0.8271,-0.237,906.0,-97.9,21.7,45.8,235.58,66.21,-162.34,,63.967,,,,NaN,,,,0 / 0,5913,2014-12-14 04:25:27:935
1.0983,-9.2379,3.1479,1.3548,-8.7784,-4.1562,-0.2564,-0.4595,7.3042,-1.6591,-0.8271,-0.237,906.0,-97.9,21.7,45.8,235.58,66.21,-162.34,,63.967,,,,NaN,,,,0 / 0,5963,2014-12-14 04:25:27:985
2.6772,-9.2575,3.6187,1.9056,-8.9611,-3.4982,0.4185,-1.3163,7.0188,-1.0165,-0.5095,-0.8564,1924.0,-97.4,19.1,48.7,230.56,64.05,-160.08,,63.967,,,,NaN,,,,0 / 0,6013,2014-12-14 04:25:28:035
3.0008,-8.4337,3.2754,2.0012,-8.9725,-3.4147,0.676,-0.285,7.0333,-1.047,-0.4459,-0.9261,1924.0,-98.3,19.1,49.2,218.06,66.2,-149.63,,60.703,,,,NaN,,,,0 / 0,6063,2014-12-14 04:25:28:085
4.8249,-15.0336,-7.4138,2.7214,-8.8103,-3.3382,2.3585,-9.587,-1.6632,-2.5424,0.7978,-0.7672,1325.0,-99.2,17.3,50.2,208.38,63.95,-140.81,,60.703,,,,NaN,,,,0 / 0,6115,2014-12-14 04:25:28:137
2.991,-11.8366,-7.8845,2.796,-8.7378,-3.4647,0.195,-3.0989,-4.4198,-2.7049,1.5027,-0.5974,1325.0,-99.2,16.9,51.7,208.38,63.95,-140.81,,60.703,,,,NaN,,,,0 / 0,6164,2014-12-14 04:25:28:186
-1.2651,-4.7268,-4.5895,3.1134,-8.0414,-4.6704,-4.3784,3.3146,0.0809,-2.0708,-0.6292,-1.1301,1325.0,-100.5,14.7,54.6,215.3,55.08,-146.31,,60.703,,,,NaN,,,,0 / 0,6214,2014-12-14 04:25:28:236
2.8733,-9.3457,0.0686,1.9965,-7.4536,-6.0522,0.8768,-1.8922,6.1208,-1.3842,-0.1637,-0.5229,1325.0,-100.0,13.0,57.5,233.31,49.47,-161.74,,60.703,,,,NaN,,,,0 / 0,6263,2014-12-14 04:25:28:285
-0.4903,-9.7184,-2.9322,2.3444,-7.2691,-6.151,-2.8347,-2.4493,3.2188,-1.3134,0.6158,-0.6671,573.0,-100.5,12.1,59.0,230.74,47.84,-159.14,,60.703,,,,NaN,,,,0 / 0,6313,2014-12-14 04:25:28:335
-0.4903,-9.7184,-2.9322,2.3444,-7.2691,-6.151,-2.8347,-2.4493,3.2188,-1.3134,0.6158,-0.6671,573.0,-100.5,12.1,59.0,230.74,47.84,-159.14,,60.703,,,,NaN,,,,0 / 0,6363,2014-12-14 04:25:28:385
0.1177,-9.6399,-2.7361,2.2799,-7.1073,-6.3607,-2.1622,-2.5326,3.6246,-1.2058,0.0916,-0.7599,573.0,-101.8,11.7,59.5,232.75,46.45,-160.28,,60.703,,,,NaN,,,,0 / 0,6414,2014-12-14 04:25:28:436
0.9022,-9.6007,-2.5595,2.0822,-6.7721,-6.7803,-2.113,-2.7341,4.0211,-1.306,0.2309,-0.8809,573.0,-101.8,10.4,59.9,234.53,45.09,-161.89,,63.994,,,,NaN,,,,0 / 0,6464,2014-12-14 04:25:28:486
0.9414,-9.738,-2.4026,2.1061,-6.7422,-6.8028,-1.1745,-2.888,4.3119,-1.2877,0.3409,-0.8796,294.0,-103.5,9.1,61.4,235.87,43.43,-162.8,,63.994,,,,NaN,,,,0 / 0,6513,2014-12-14 04:25:28:535
0.6472,-10.2283,-1.9025,2.2623,-6.6886,-6.8055,-1.6151,-3.5397,4.903,-1.0446,0.3372,-0.9029,294.0,-104.8,8.2,61.4,235.87,43.43,-162.8,,63.994,,,,NaN,,,,0 / 0,6563,2014-12-14 04:25:28:585
-0.3138,-10.1499,-2.2653,2.2867,-6.7029,-6.7833,-1.9042,-3.5451,4.8612,-0.9273,0.1833,-0.9762,294.0,-104.8,7.3,60.9,234.38,43.12,-161.37,,63.994,,,,NaN,,,,0 / 0,6613,2014-12-14 04:25:28:635
-0.3236,-9.8361,-1.6083,2.168,-6.8499,-6.6745,-2.6877,-2.9175,4.772,-0.6707,0.0586,-0.9957,294.0,-106.1,6.9,60.4,234.88,44.07,-161.8,,63.994,,,,NaN,,,,0 / 0,6664,2014-12-14 04:25:28:686
-0.3236,-9.8361,-1.6083,2.168,-6.8499,-6.6745,-2.6877,-2.9175,4.772,-0.3958,0.2077,-1.1741,186.0,-106.1,6.9,60.4,234.88,44.07,-161.8,,63.994,,,,NaN,,,,0 / 0,6713,2014-12-14 04:25:28:735
0.8336,-10.4441,0.8041,2.1816,-7.0834,-6.4215,-1.2892,-3.243,6.6765,-0.3751,0.336,-1.1826,186.0,-107.0,6.5,58.5,233.75,46.25,-161.24,,63.994,,,,NaN,,,,0 / 0,6764,2014-12-14 04:25:28:786
2.7164,-13.9353,-0.7845,2.0273,-8.5063,-4.4389,0.238,-6.4489,5.4195,1.3769,-1.3244,0.2993,186.0,-106.6,7.3,50.7,225.31,60.16,-155.45,,63.994,,,,NaN,,,,0 / 0,6814,2014-12-14 04:25:28:836
1.9809,-10.5029,-4.6876,1.5387,-8.9999,-3.5783,0.4422,-1.503,-1.1092,1.1716,-1.7483,0.2346,186.0,-102.7,9.1,45.8,225.31,60.16,-155.45,,63.994,,,,NaN,,,,0 / 0,6863,2014-12-14 04:25:28:885
2.1084,-10.3558,-4.0305,1.4716,-9.024,-3.5457,0.6369,-1.3318,-0.4848,1.1753,-1.6102,0.2028,964.0,-102.2,9.5,44.8,227.59,66.95,-157.46,,54.841,,,,NaN,,,,0 / 0,6914,2014-12-14 04:25:28:936
3.805,-8.267,-0.7159,1.3077,-9.1747,-3.2072,2.4973,0.9077,2.4913,0.6658,-1.3573,0.2602,964.0,-100.5,9.9,41.4,228.89,69.32,-157.82,,54.841,,,,NaN,,,,0 / 0,6964,2014-12-14 04:25:28:986
3.6873,-7.9238,-0.9218,1.3233,-9.1983,-3.1323,2.364,1.2745,2.2104,0.4667,-1.3158,0.3103,964.0,-100.5,9.5,41.4,228.89,69.32,-157.82,,54.841,,,,NaN,,,,0 / 0,7013,2014-12-14 04:25:29:035
1.5887,-7.1098,-1.216,1.8993,-8.587,-4.339,-0.291,1.8596,2.7209,-1.7849,-1.1558,-0.7477,964.0,-97.4,9.5,39.9,227.6,67.54,-155.45,,54.841,,,,NaN,,,,0 / 0,7063,2014-12-14 04:25:29:085
1.5887,-8.6593,-0.1863,1.9122,-8.3006,-4.8595,0.0589,-0.9961,4.9477,-1.7801,-1.493,-0.7428,2273.0,-98.3,9.1,41.9,232.27,57.82,-158.52,,54.841,,,,NaN,,,,0 / 0,7113,2014-12-14 04:25:29:135
3.3048,-9.3359,0.4217,1.9808,-8.305,-4.8243,1.324,-1.0309,5.246,-1.3415,-0.8821,-0.7233,2273.0,-97.4,9.1,43.4,230.69,57.87,-157.68,,54.841,,,,NaN,,,,0 / 0,7163,2014-12-14 04:25:29:185
3.9717,-18.2208,4.4522,2.5923,-8.2615,-4.6042,2.549,-8.1384,9.8609,-0.9371,-1.3402,-0.3763,2273.0,-97.4,8.6,44.3,222.98,57.4,-150.62,,54.841,,,,NaN,,,,0 / 0,7214,2014-12-14 04:25:29:236
0.863,-14.8767,-1.5887,2.6573,-8.567,-3.9643,-1.5602,-6.0688,1.9778,-0.3372,-1.2058,-0.0733,2273.0,-96.6,8.2,44.8,222.98,57.4,-150.62,,54.841,,,,NaN,,,,0 / 0,7264,2014-12-14 04:25:29:286
-1.3631,-11.1011,-1.6083,2.3067,-8.8568,-3.5224,-3.6698,-2.2444,1.9141,-0.672,-0.4753,-0.0843,2273.0,-95.7,8.6,43.9,216.17,64.57,-146.78,,54.841,,,,NaN,,,,0 / 0,7314,2014-12-14 04:25:29:336
-1.2651,-8.7083,0.1863,1.5505,-8.8976,-3.821,-3.1882,0.15,4.6055,-0.8858,-1.5467,-0.7001,1504.0,-95.3,9.5,45.3,227.12,65.13,-157.91,,54.841,,,,NaN,,,,0 / 0,7364,2014-12-14 04:25:29:386
-1.2651,-8.7083,0.1863,1.5505,-8.8976,-3.821,-3.1882,0.15,4.6055,-0.628,-1.0214,-0.5852,1504.0,-95.3,9.5,45.3,227.12,65.13,-157.91,,56.595,,,,NaN,,,,0 / 0,7413,2014-12-14 04:25:29:435
-0.2157,-10.6598,1.0395,1.0942,-8.9673,-3.8159,-1.4276,-2.3987,4.6397,-0.628,-1.0214,-0.5852,1504.0,-95.3,9.1,44.8,232.82,66.12,-164.0,,56.595,,,,NaN,,,,0 / 0,7464,2014-12-14 04:25:29:486
-0.353,-9.8263,-0.1765,0.9459,-9.1052,-3.5172,-0.7693,-0.2601,3.478,-0.6891,-0.8931,-0.4814,1504.0,-94.0,9.1,45.3,232.82,66.12,-164.0,,56.595,,,,NaN,,,,0 / 0,7514,2014-12-14 04:25:29:536
-0.1863,-10.3754,-0.1863,0.9523,-9.1388,-3.4273,-1.4721,-1.168,3.1821,-0.6194,-0.6781,-0.5498,1504.0,-94.0,9.1,44.8,232.34,68.73,-164.47,,56.595,,,,NaN,,,,0 / 0,7563,2014-12-14 04:25:29:585
0.8532,-9.7576,0.255,1.0001,-9.1804,-3.3001,-0.1469,-0.5772,3.555,-0.6988,-0.7196,-0.617,1504.0,-93.5,9.1,45.3,230.59,69.41,-163.14,,56.595,,,,NaN,,,,0 / 0,7613,2014-12-14 04:25:29:635
-0.6374,-10.1205,0.1863,1.174,-9.2012,-3.1829,-1.8115,-0.9193,3.3692,-0.7758,-0.5449,-0.6622,1504.0,-94.0,9.1,45.8,226.79,69.76,-159.75,,56.595,,,,NaN,,,,0 / 0,7664,2014-12-14 04:25:29:686
-0.255,-9.8655,0.5492,1.1614,-9.2441,-3.0607,-1.4163,-0.6214,3.6099,-0.7477,-0.5754,-0.7147,1504.0,-93.5,9.1,44.3,226.85,70.5,-159.22,,56.595,,,,NaN,,,,0 / 0,7714,2014-12-14 04:25:29:736
-0.3825,-10.0028,0.3923,1.1881,-9.2682,-2.9765,-1.5706,-0.7346,3.3688,-0.6939,-0.6878,-0.6658,1504.0,-93.5,9.1,45.3,225.23,70.92,-158.24,,56.595,,,,NaN,,,,0 / 0,7763,2014-12-14 04:25:29:785
-0.0392,-9.8066,0.7551,1.1971,-9.2837,-2.924,-1.256,-0.6406,3.3456,-0.6915,-0.6561,-0.6939,1504.0,-94.0,8.6,45.3,224.88,71.21,-157.74,,56.595,,,,NaN,,,,0 / 0,7832,2014-12-14 04:25:29:854
-0.0392,-9.8066,0.7551,1.1971,-9.2837,-2.924,-1.256,-0.6406,3.3456,-0.6915,-0.6561,-0.6939,1504.0,-94.0,8.6,45.3,224.88,71.21,-157.74,,56.595,,,,NaN,,,,0 / 0,7863,2014-12-14 04:25:29:885
0.5198,-9.9047,0.4903,1.2812,-9.3213,-2.7646,-0.7615,-0.5835,3.2549,-0.5522,-0.7379,-0.722,1504.0,-93.5,8.6,44.3,222.33,71.9,-155.13,,63.062,,,,NaN,,,,0 / 0,7913,2014-12-14 04:25:29:935
-0.1667,-10.1008,0.1177,1.4446,-9.3254,-2.6684,-1.6113,-0.7754,2.786,-0.6891,-0.6561,-0.7025,1504.0,-94.0,9.5,43.9,222.33,71.9,-155.13,,63.062,,,,NaN,,,,0 / 0,7964,2014-12-14 04:25:29:986
-0.1079,-10.0714,0.1471,1.4546,-9.3255,-2.6625,-1.5625,-0.7459,2.8096,-0.6829,-0.7049,-0.7098,1504.0,-94.0,9.1,44.3,218.64,71.98,-151.35,,63.062,,,,NaN,,,,0 / 0,8014,2014-12-14 04:25:30:036
-0.0196,-10.0616,0.3628,1.5816,-9.3104,-2.643,-1.6012,-0.7512,3.0059,-0.7257,-0.6915,-0.6939,1504.0,-94.0,9.1,44.3,216.37,71.69,-149.1,,63.062,,,,NaN,,,,0 / 0,8064,2014-12-14 04:25:30:086
-0.0196,-10.0616,0.3628,1.5816,-9.3104,-2.643,-1.6012,-0.7512,3.0059,-0.7257,-0.6915,-0.6939,1504.0,-94.0,9.1,44.3,216.37,71.69,-149.1,,63.062,,,,NaN,,,,0 / 0,8114,2014-12-14 04:25:30:136