ACCELEROMETER X (m/s²),ACCELEROMETER Y (m/s²),ACCELEROMETER Z (m/s²),GRAVITY X (m/s²),GRAVITY Y (m/s²),GRAVITY Z (m/s²),LINEAR ACCELERATION X (m/s²),LINEAR ACCELERATION Y (m/s²),LINEAR ACCELERATION Z (m/s²),GYROSCOPE X (rad/s),GYROSCOPE Y (rad/s),GYROSCOPE Z (rad/s),LIGHT (lux),MAGNETIC FIELD X (μT),MAGNETIC FIELD Y (μT),MAGNETIC FIELD Z (μT),ORIENTATION X (°),ORIENTATION Y (°),ORIENTATION Z (°),PROXIMITY (i),SOUND LEVEL (dB),LOCATION Latitude : ,LOCATION Longitude : ,LOCATION Altitude ( m),LOCATION Altitude-google ( m),LOCATION Speed ( Kmh),LOCATION Accuracy ( m),LOCATION ORIENTATION (°),Satellites in range,Time since start in ms ,YYYY-MO-DD HH-MI-SS_SSS
0.4707,-9.9145,0.2746,1.0228,-9.7528,0.0899,-0.5521,-0.1618,0.1846,0.022,-0.0122,-0.0073,299.0,-91.4,27.8,82.4,131.67,83.95,-84.88,,59.953,,,,NaN,,,,0 / 0,9,2014-12-14 04:24:17:782
0.4707,-9.9145,0.2746,1.0228,-9.7528,0.0899,-0.5521,-0.1618,0.1846,0.022,-0.0122,-0.0073,299.0,-91.4,27.8,82.4,131.67,83.95,-84.88,,59.953,,,,NaN,,,,0 / 0,60,2014-12-14 04:24:17:833
0.608,-9.8851,0.2648,1.0248,-9.7528,0.0469,-0.4168,-0.1323,0.2178,0.0024,0.0171,-0.0122,299.0,-90.9,27.3,82.9,133.9,84.0,-87.38,,59.953,,,,NaN,,,,0 / 0,110,2014-12-14 04:24:17:883
0.4119,-9.9734,0.304,1.0334,-9.752,0.0173,-0.6706,-0.2311,0.3455,0.0159,-0.022,-0.0208,299.0,-91.4,27.3,82.9,135.58,83.95,-89.04,,59.953,,,,NaN,,,,0 / 0,160,2014-12-14 04:24:17:933
0.3727,-10.0028,0.3334,1.0334,-9.752,0.0173,-0.6706,-0.2311,0.3455,0.0159,-0.022,-0.0208,299.0,-91.4,27.3,82.9,135.58,83.95,-89.04,,59.953,,,,NaN,,,,0 / 0,212,2014-12-14 04:24:17:985
0.4903,-9.9145,0.5198,1.0257,-9.7528,0.0252,-0.5354,-0.1617,0.4946,0.033,0.0134,-0.0208,299.0,-91.4,27.3,82.4,135.93,83.95,-89.04,,59.953,,,,NaN,,,,0 / 0,260,2014-12-14 04:24:18:033
0.0883,-9.9439,0.2746,1.0225,-9.7531,0.0504,-0.9343,-0.1909,0.2242,0.0415,-0.0709,-0.0086,299.0,-90.9,27.3,82.4,135.93,83.95,-89.04,,59.953,,,,NaN,,,,0 / 0,309,2014-12-14 04:24:18:082
0.9218,-9.8949,0.353,1.0087,-9.7545,0.0514,-0.0869,-0.1404,0.3017,0.0513,-0.0208,-0.0684,299.0,-90.9,27.8,82.9,133.81,84.22,-87.24,,59.953,,,,NaN,,,,0 / 0,359,2014-12-14 04:24:18:132
0.9218,-9.8949,0.353,1.0087,-9.7545,0.0514,-0.0869,-0.1404,0.3017,0.0513,-0.0208,-0.0684,299.0,-90.9,27.8,82.9,133.81,84.22,-87.24,,59.953,,,,NaN,,,,0 / 0,409,2014-12-14 04:24:18:182
0.1373,-9.8263,0.5394,1.1003,-9.7447,-0.0134,-1.0572,-0.0615,0.5425,-0.1258,0.0623,-0.1478,299.0,-91.8,26.9,83.4,135.93,83.58,-89.14,,59.953,,,,NaN,,,,0 / 0,460,2014-12-14 04:24:18:233
-0.049,-10.1499,0.6276,1.1537,-9.738,-0.104,-1.0477,-0.271,0.6475,-0.3311,0.1417,-0.2871,299.0,-92.7,26.5,84.8,137.15,83.56,-90.7,,38.622,,,,NaN,,,,0 / 0,509,2014-12-14 04:24:18:282
-0.2059,-10.0812,1.0101,1.1537,-9.738,-0.104,-1.324,-0.233,0.9257,-0.2138,0.1234,-0.2541,299.0,-94.4,25.6,85.8,137.15,83.56,-90.7,,38.622,,,,NaN,,,,0 / 0,559,2014-12-14 04:24:18:332
-0.0686,-10.3558,1.8927,1.1737,-9.7362,0.0038,-1.2424,-0.6197,1.8888,0.1112,-0.0562,-0.0941,299.0,-95.7,25.6,86.8,140.23,82.87,-93.49,,38.622,,,,NaN,,,,0 / 0,609,2014-12-14 04:24:18:382
-0.0196,-10.4637,1.7946,1.0984,-9.7383,0.3603,-1.118,-0.7254,1.4343,0.1112,-0.0562,-0.0941,299.0,-95.7,25.6,86.8,140.23,82.87,-93.49,,38.622,,,,NaN,,,,0 / 0,659,2014-12-14 04:24:18:432
0.4903,-11.2776,1.2454,1.0438,-9.7277,0.6729,-0.5535,-1.55,0.5726,0.4704,-0.2419,-0.0354,221.0,-96.6,26.5,84.3,104.7,82.72,-57.19,,38.622,,,,NaN,,,,0 / 0,709,2014-12-14 04:24:18:482
1.2258,-11.258,2.6478,1.0448,-9.6951,1.0412,0.181,-1.563,1.6066,0.9187,-0.6414,-0.0049,221.0,-94.0,28.2,82.9,104.7,82.72,-57.19,,38.622,,,,NaN,,,,0 / 0,759,2014-12-14 04:24:18:532
2.1477,-8.8652,0.1471,1.3239,-9.5987,1.5111,0.8238,0.7335,-1.364,0.6927,-0.6854,0.0574,221.0,-92.2,29.9,79.0,87.65,78.18,-41.22,,38.622,,,,NaN,,,,0 / 0,809,2014-12-14 04:24:18:582
0.3923,-9.0417,0.7355,1.4792,-9.5947,1.3872,-1.0869,0.553,-0.6517,0.3519,-0.4191,0.1112,427.0,-90.0,32.1,75.6,93.3,78.07,-46.84,,38.622,,,,NaN,,,,0 / 0,861,2014-12-14 04:24:18:634
1.7652,-8.5808,1.2945,1.4227,-9.6083,1.3515,0.3425,1.0275,-0.057,0.3555,-0.4606,0.1124,427.0,-90.0,32.1,75.1,93.3,78.07,-46.84,,38.622,,,,NaN,,,,0 / 0,909,2014-12-14 04:24:18:682
2.0202,-8.62,1.5789,1.4638,-9.603,1.3453,0.5563,0.983,0.2336,0.2016,-0.6035,0.182,427.0,-87.4,33.4,72.6,93.89,78.3,-47.42,,38.622,,,,NaN,,,,0 / 0,959,2014-12-14 04:24:18:732
1.726,-9.2281,2.128,1.6088,-9.5679,1.4274,0.1171,0.3398,0.7006,0.0977,-0.4105,0.2505,427.0,-86.1,33.4,72.1,93.89,78.3,-47.42,,39.936,,,,NaN,,,,0 / 0,1009,2014-12-14 04:24:18:782
1.726,-8.9927,2.0888,1.6047,-9.5683,1.4291,0.1213,0.5756,0.6597,-0.16,-0.1796,0.3567,552.0,-84.4,33.9,72.1,93.67,77.34,-48.31,,39.936,,,,NaN,,,,0 / 0,1060,2014-12-14 04:24:18:833
1.8437,-8.9339,2.0986,1.6003,-9.5707,1.4184,0.2434,0.6368,0.6802,-0.3958,-0.3286,0.3384,552.0,-83.1,34.3,71.7,93.67,77.34,-48.31,,39.936,,,,NaN,,,,0 / 0,1110,2014-12-14 04:24:18:883
1.0885,-9.3261,2.6968,1.6948,-9.5832,1.2085,-0.6063,0.2571,1.4883,-0.5534,-0.3323,0.1943,552.0,-81.4,33.4,73.6,98.2,77.74,-54.51,,39.936,,,,NaN,,,,0 / 0,1159,2014-12-14 04:24:18:932
1.9417,-13.1801,1.6083,1.7269,-9.6097,0.9176,0.2148,-3.5704,0.6907,-1.2816,0.7587,-0.2944,552.0,-80.5,32.1,77.0,104.58,78.5,-62.02,,39.936,,,,NaN,,,,0 / 0,1210,2014-12-14 04:24:18:983
2.5497,-16.5929,1.422,1.7923,-9.608,0.8028,0.7574,-6.9849,0.6192,-1.3476,0.6878,-0.551,552.0,-82.2,31.3,80.4,104.58,78.5,-62.02,,39.936,,,,NaN,,,,0 / 0,1259,2014-12-14 04:24:19:032
2.3144,-5.6682,-2.3242,1.7513,-9.6489,-0.0401,0.563,3.9807,-2.2841,-0.8833,0.9664,-0.0037,552.0,-84.0,29.9,82.4,134.66,79.71,-91.31,,39.936,,,,NaN,,,,0 / 0,1309,2014-12-14 04:24:19:082
1.3925,-5.2956,-1.9221,1.8843,-9.6159,-0.3931,-0.4918,4.3203,-1.529,-0.9077,-0.4044,-0.3091,552.0,-84.4,29.5,83.4,134.66,79.71,-91.31,,39.936,,,,NaN,,,,0 / 0,1359,2014-12-14 04:24:19:132
-3.3441,-12.5623,-3.3735,1.4977,-9.5762,-1.4912,-4.8417,-2.9861,-1.8823,-0.4655,1.4795,0.4142,259.0,-84.4,28.2,86.3,179.14,77.55,-134.88,,47.989,,,,NaN,,,,0 / 0,1410,2014-12-14 04:24:19:183
1.3631,-9.2183,-3.9129,1.15,-9.5726,-1.7928,0.2131,0.3543,-2.12,-0.5461,0.2981,-0.099,259.0,-86.1,27.3,86.3,193.26,77.46,-147.32,,47.989,,,,NaN,,,,0 / 0,1460,2014-12-14 04:24:19:233
-0.2746,-10.7285,-1.9907,1.2774,-9.4012,-2.481,-1.552,-1.3272,0.4903,-0.6109,1.1582,-0.0428,259.0,-87.4,26.5,87.3,193.26,77.46,-147.32,,47.989,,,,NaN,,,,0 / 0,1510,2014-12-14 04:24:19:283
-0.2452,-10.6794,-1.8829,1.2497,-9.3919,-2.5299,-1.4948,-1.2875,0.647,-0.3616,0.5034,-0.1833,126.0,-90.0,26.0,89.2,201.07,73.28,-153.71,,47.989,,,,NaN,,,,0 / 0,1559,2014-12-14 04:24:19:332
-0.4707,-9.9538,-2.3242,1.1806,-9.3821,-2.5986,-1.6513,-0.5717,0.2745,-0.3555,0.0073,-0.2456,126.0,-90.5,25.6,89.2,201.07,73.28,-153.71,,47.989,,,,NaN,,,,0 / 0,1609,2014-12-14 04:24:19:382
0.2157,-9.2575,-1.9907,1.1173,-9.3423,-2.7647,-0.9016,0.0848,0.7739,-0.4398,0.2578,-0.3409,126.0,-91.8,24.3,89.2,206.51,72.3,-157.99,,47.989,,,,NaN,,,,0 / 0,1659,2014-12-14 04:24:19:432
0.8041,-9.9636,-1.3337,1.4874,-9.252,-2.891,-0.6833,-0.7115,1.5573,-0.4655,0.6622,-0.4472,126.0,-95.3,23.0,91.2,201.33,70.64,-152.77,,47.989,,,,NaN,,,,0 / 0,1709,2014-12-14 04:24:19:482
-0.6276,-10.1793,-0.4315,1.7311,-9.2616,-2.7196,-2.3587,-0.9177,2.2881,-0.303,0.5828,-0.5388,81.0,-98.3,21.7,91.2,201.33,70.64,-152.77,,47.989,,,,NaN,,,,0 / 0,1760,2014-12-14 04:24:19:533
-0.0785,-10.856,1.2553,1.701,-9.3337,-2.4818,-1.7795,-1.5223,3.7371,0.1014,0.5986,-0.4765,81.0,-99.6,21.3,90.7,194.64,72.13,-145.57,,59.87,,,,NaN,,,,0 / 0,1810,2014-12-14 04:24:19:583
0.5394,-16.2692,2.128,1.7844,-9.5475,-1.3535,-1.245,-6.7218,3.4816,1.675,0.9859,-0.3225,81.0,-101.8,21.7,88.2,176.15,76.8,-127.18,,59.87,,,,NaN,,,,0 / 0,1860,2014-12-14 04:24:19:633
0.8728,-10.4441,-2.4909,1.4446,-9.6892,0.4498,-0.5718,-0.7549,-2.9407,1.7935,0.1087,1.0458,68.0,-102.2,26.0,77.0,123.83,81.12,-72.7,,59.87,,,,NaN,,,,0 / 0,1910,2014-12-14 04:24:19:683
1.0395,-13.1998,-5.4427,0.8973,-9.7543,0.4677,0.1422,-3.4454,-5.9104,1.5919,-0.5754,1.1399,68.0,-98.3,27.8,72.1,123.83,81.12,-72.7,,59.87,,,,NaN,,,,0 / 0,1960,2014-12-14 04:24:19:733
0.6374,-12.984,-4.2659,0.8224,-9.7619,0.4457,0.9919,-1.3666,-2.0133,1.7116,-1.3329,0.8027,68.0,-94.4,27.8,65.8,115.16,84.53,-61.54,,59.87,,,,NaN,,,,0 / 0,2009,2014-12-14 04:24:19:782
2.6184,-7.051,-1.422,0.5954,-9.7484,0.8857,2.023,2.6974,-2.3077,1.2963,-0.7734,0.8369,68.0,-91.8,27.8,61.9,88.36,83.75,-33.91,,59.87,,,,NaN,,,,0 / 0,2059,2014-12-14 04:24:19:832
2.6184,-7.051,-1.422,0.5954,-9.7484,0.8857,2.023,2.6974,-2.3077,0.9077,-0.7257,0.8735,266.0,-91.8,27.8,61.9,88.36,83.75,-33.91,,59.87,,,,NaN,,,,0 / 0,2109,2014-12-14 04:24:19:882
1.8044,-7.4727,-1.216,0.6119,-9.7484,0.8743,1.1926,2.2757,-2.0904,0.3922,-1.2242,0.3751,266.0,-87.4,27.3,58.5,89.23,83.75,-34.98,,59.87,,,,NaN,,,,0 / 0,2159,2014-12-14 04:24:19:932
1.6279,-8.218,-0.7943,0.7866,-9.757,0.5933,0.802,1.2547,-0.7993,0.2663,-1.0702,0.3592,266.0,-83.5,26.0,55.6,107.45,84.23,-52.97,,59.87,,,,NaN,,,,0 / 0,2209,2014-12-14 04:24:19:982
1.6573,-8.4828,2.5301,0.8607,-9.7608,0.3955,0.7967,1.2781,2.1347,-0.4887,-0.0061,0.3311,642.0,-81.8,24.7,56.0,107.45,84.23,-52.97,,59.87,,,,NaN,,,,0 / 0,2260,2014-12-14 04:24:20:033
2.0986,-8.4141,3.1283,0.9112,-9.7561,0.398,1.1874,1.342,2.7304,-0.7734,0.1222,0.2236,642.0,-81.8,23.9,57.0,120.26,84.18,-66.41,,59.214,,,,NaN,,,,0 / 0,2309,2014-12-14 04:24:20:082
1.9515,-10.1499,3.4617,1.2532,-9.7129,0.5096,0.6984,-0.437,2.9521,-0.6439,-0.7563,-0.0086,642.0,-81.4,22.6,59.5,119.52,82.07,-67.87,,59.214,,,,NaN,,,,0 / 0,2360,2014-12-14 04:24:20:133
2.3438,-8.5416,3.0695,1.5259,-9.6486,0.8639,0.8178,1.107,2.2056,-0.2993,-0.0342,-0.2004,642.0,-80.5,20.4,59.9,111.36,79.7,-60.48,,59.214,,,,NaN,,,,0 / 0,2410,2014-12-14 04:24:20:183
3.0891,-9.2477,2.5203,1.6017,-9.6321,0.9097,1.4874,0.3844,1.6106,-0.4972,0.1613,-0.3848,642.0,-81.4,19.9,60.9,111.36,79.7,-60.48,,59.214,,,,NaN,,,,0 / 0,2460,2014-12-14 04:24:20:233
-2.4909,-8.1689,-6.4135,2.3295,-9.5169,0.415,-4.8204,1.348,-6.8286,-0.4667,0.6683,0.3848,642.0,-84.8,17.8,64.8,129.83,76.04,-79.9,,59.214,,,,NaN,,,,0 / 0,2510,2014-12-14 04:24:20:283
1.0297,-2.893,-2.2163,1.7455,-9.6258,-0.6836,-0.9315,6.4387,-1.7386,-0.7868,0.3677,0.0501,642.0,-86.1,16.0,69.2,161.84,78.98,-111.39,,59.214,,,,NaN,,,,0 / 0,2560,2014-12-14 04:24:20:333
-3.599,-10.0224,-5.6781,1.7972,-9.5495,-1.322,-5.3962,-0.4729,-4.3561,-1.2401,0.7709,-0.1539,642.0,-87.0,14.7,70.7,176.95,76.85,-126.34,,59.214,,,,NaN,,,,0 / 0,2610,2014-12-14 04:24:20:383
-3.599,-10.0224,-5.6781,1.7972,-9.5495,-1.322,-5.3962,-0.4729,-4.3561,-0.8552,0.1295,-0.0904,275.0,-87.0,14.7,70.7,176.95,76.85,-126.34,,59.214,,,,NaN,,,,0 / 0,2660,2014-12-14 04:24:20:433
1.3729,-9.8459,-0.0392,1.2886,-9.5082,-2.0259,0.0844,-0.3377,1.9866,-0.8063,0.5962,-0.1906,275.0,-87.9,13.0,73.1,198.92,75.83,-147.54,,59.214,,,,NaN,,,,0 / 0,2710,2014-12-14 04:24:20:483
0.1961,-9.9243,-3.0989,1.2886,-9.5082,-2.0259,0.0844,-0.3377,1.9866,-0.8063,0.5962,-0.1906,275.0,-87.9,13.0,73.1,198.92,75.83,-147.54,,59.214,,,,NaN,,,,0 / 0,2760,2014-12-14 04:24:20:533
0.1961,-9.9243,-3.0989,1.2886,-9.5082,-2.0259,0.0844,-0.3377,1.9866,-0.8063,0.5962,-0.1906,275.0,-87.9,13.0,73.1,198.92,75.83,-147.54,,59.214,,,,NaN,,,,0 / 0,2810,2014-12-14 04:24:20:583
0.2256,-9.8851,-3.1479,1.5217,-9.2876,-2.756,-1.3256,-0.6368,-0.3429,-0.8723,0.5779,-0.3971,122.0,-93.1,6.0,81.9,201.04,71.27,-151.1,,59.868,,,,NaN,,,,0 / 0,2860,2014-12-14 04:24:20:633
0.2256,-9.8851,-3.1479,1.5217,-9.2876,-2.756,-1.3256,-0.6368,-0.3429,-0.8723,0.5779,-0.3971,122.0,-93.1,6.0,81.9,201.04,71.27,-151.1,,59.868,,,,NaN,,,,0 / 0,2910,2014-12-14 04:24:20:683
0.1471,-10.7285,-1.5495,1.8464,-9.1391,-3.0393,-1.6993,-1.5893,1.4898,-0.562,0.8968,-0.5388,122.0,-97.9,0.8,85.8,198.7,68.74,-148.72,,59.868,,,,NaN,,,,0 / 0,2960,2014-12-14 04:24:20:733
-0.9414,-10.905,-1.4122,1.9381,-9.1438,-2.9674,-2.8795,-1.7612,1.5553,-0.3946,0.7098,-0.6451,122.0,-100.5,-0.5,87.8,196.57,68.81,-146.85,,59.868,,,,NaN,,,,0 / 0,3020,2014-12-14 04:24:20:793
-0.9414,-10.905,-1.4122,1.9381,-9.1438,-2.9674,-2.8795,-1.7612,1.5553,-0.3946,0.7098,-0.6451,63.0,-100.5,-0.5,87.8,196.57,68.81,-146.85,,59.868,,,,NaN,,,,0 / 0,3060,2014-12-14 04:24:20:833
-1.2945,-11.9249,-0.2354,1.8316,-9.2176,-2.802,-3.1261,-2.7073,2.5666,0.0855,0.2969,-0.5412,63.0,-101.8,-1.4,88.2,196.96,70.04,-146.83,,59.868,,,,NaN,,,,0 / 0,3110,2014-12-14 04:24:20:883
1.8633,-11.7288,2.2849,1.5371,-9.6622,-0.6702,0.3261,-2.0665,2.9551,2.5363,0.1527,0.1564,63.0,-105.3,2.1,86.3,163.97,80.15,-113.56,,59.868,,,,NaN,,,,0 / 0,3160,2014-12-14 04:24:20:933
1.6279,-10.3656,1.118,1.5241,-9.6834,-0.2815,0.1038,-0.6822,1.3994,2.6169,0.1588,0.2859,63.0,-104.8,3.4,85.8,163.97,80.15,-113.56,,59.868,,,,NaN,,,,0 / 0,3210,2014-12-14 04:24:20:983
0.1569,-12.0328,-4.8053,0.324,-9.7699,0.7839,2.7847,0.7772,-2.4118,1.8998,-0.7697,1.3085,63.0,-103.1,10.8,81.4,103.37,84.41,-52.07,,59.868,,,,NaN,,,,0 / 0,3260,2014-12-14 04:24:21:033
2.8145,-6.5606,-2.3046,0.4474,-9.7409,1.0417,2.3671,3.1802,-3.3462,1.8851,-1.4783,0.9542,189.0,-99.2,16.9,77.5,103.37,84.41,-52.07,,59.868,,,,NaN,,,,0 / 0,3309,2014-12-14 04:24:21:082
2.0594,-6.3057,-2.2849,0.5139,-9.7401,1.0185,1.5455,3.4344,-3.3034,1.0837,-1.3622,0.9175,189.0,-95.3,20.4,75.1,77.48,83.32,-26.77,,59.868,,,,NaN,,,,0 / 0,3359,2014-12-14 04:24:21:132
1.7064,-7.0608,-2.0986,0.5076,-9.766,0.734,1.1322,1.4178,-2.2495,0.2053,-1.4771,0.5962,189.0,-90.0,23.9,72.6,84.57,84.78,-34.67,,59.037,,,,NaN,,,,0 / 0,3409,2014-12-14 04:24:21:182
1.216,-9.1888,-0.2059,0.5076,-9.766,0.734,1.1322,1.4178,-2.2495,0.2053,-1.4771,0.5962,740.0,-90.0,23.9,72.6,84.57,84.78,-34.67,,59.037,,,,NaN,,,,0 / 0,3460,2014-12-14 04:24:21:233
1.2847,-8.9241,0.3628,0.5494,-9.7912,0.0259,0.7353,0.8672,0.3369,-0.2615,-1.212,0.4985,740.0,-86.6,24.3,71.7,137.18,86.78,-87.3,,59.037,,,,NaN,,,,0 / 0,3510,2014-12-14 04:24:21:283
2.2163,-8.9339,4.4914,0.7916,-9.7736,-0.1406,1.4247,0.8398,4.632,-1.0238,-0.077,-0.0428,740.0,-86.1,23.4,75.6,148.02,85.3,-100.07,,59.037,,,,NaN,,,,0 / 0,3560,2014-12-14 04:24:21:333
2.383,-11.2286,3.1381,1.4483,-9.6957,0.256,0.9347,-1.5329,2.8822,-0.6084,-0.3054,-0.2077,740.0,-85.7,22.6,77.5,148.02,85.3,-100.07,,59.037,,,,NaN,,,,0 / 0,3609,2014-12-14 04:24:21:382
2.2359,-11.7288,3.1479,1.5207,-9.6836,0.2941,0.7152,-2.0452,2.8539,-0.5302,0.0709,-0.2541,740.0,-86.6,23.4,78.0,125.37,80.91,-79.06,,59.037,,,,NaN,,,,0 / 0,3660,2014-12-14 04:24:21:433
3.7952,-9.1692,-7.4629,1.7774,-9.6387,0.3279,1.4036,5.3474,-4.4498,-0.3677,0.8308,-0.2737,740.0,-90.0,23.4,78.5,123.39,79.56,-76.79,,59.037,,,,NaN,,,,0 / 0,3709,2014-12-14 04:24:21:482
-4.3051,-6.0801,-4.8151,2.3744,-9.3433,-1.7989,1.4036,5.3474,-4.4498,-1.7568,0.3971,-0.4178,740.0,-95.3,18.6,84.8,123.39,79.56,-76.79,,59.037,,,,NaN,,,,0 / 0,3760,2014-12-14 04:24:21:533
1.1572,-9.4928,-0.4119,1.0269,-9.3051,-2.9206,0.1302,-0.1877,2.5088,-0.711,-0.088,0.0403,740.0,-98.7,15.2,90.2,194.17,70.86,-144.7,,59.037,,,,NaN,,,,0 / 0,3809,2014-12-14 04:24:21:582
0.1373,-9.6301,-3.1675,1.37,-9.248,-2.9611,-1.2327,-0.3821,-0.2065,-0.7709,1.328,-0.0086,740.0,-99.6,13.4,90.2,205.25,70.57,-155.17,,61.696,,,,NaN,,,,0 / 0,3859,2014-12-14 04:24:21:632
0.1373,-9.6301,-3.1675,1.37,-9.248,-2.9611,-1.2327,-0.3821,-0.2065,-0.7709,1.328,-0.0086,740.0,-99.6,13.4,90.2,205.25,70.57,-155.17,,61.696,,,,NaN,,,,0 / 0,3910,2014-12-14 04:24:21:683
0.2256,-10.2087,-3.6775,1.4645,-9.0865,-3.3854,-1.239,-1.1222,-0.2921,-0.5877,0.4936,-0.3262,300.0,-104.4,11.3,92.6,207.34,67.91,-156.61,,61.696,,,,NaN,,,,0 / 0,3960,2014-12-14 04:24:21:733
0.7551,-10.1401,-2.4811,1.5717,-8.9569,-3.6707,-1.9922,-1.2669,2.0582,-0.5461,1.0837,-0.4508,300.0,-107.0,9.1,92.6,208.68,65.97,-156.82,,61.696,,,,NaN,,,,0 / 0,4009,2014-12-14 04:24:21:782
-0.5688,-10.3852,-1.5593,1.8708,-8.9173,-3.6265,-1.9922,-1.2669,2.0582,-0.5461,1.0837,-0.4508,188.0,-110.5,7.3,94.1,204.69,65.41,-152.71,,61.696,,,,NaN,,,,0 / 0,4059,2014-12-14 04:24:21:832
-1.3043,-11.0325,-0.8532,1.8583,-8.9849,-3.4624,-3.1626,-2.0476,2.6092,-0.2627,0.7037,-0.5437,188.0,-112.7,6.0,93.1,204.69,65.41,-152.71,,61.696,,,,NaN,,,,0 / 0,4110,2014-12-14 04:24:21:883
-0.2256,-10.8265,0.9512,1.737,-9.1702,-3.0101,-1.9625,-1.6563,3.9613,0.2871,0.3995,-0.4508,188.0,-114.4,5.2,91.7,202.72,69.24,-150.01,,61.696,,,,NaN,,,,0 / 0,4159,2014-12-14 04:24:21:932
1.4318,-11.6797,0.8336,1.3757,-9.7094,0.0704,0.056,-1.9703,0.7632,2.9407,-0.0501,0.8161,188.0,-115.7,5.6,89.7,190.62,74.68,-137.95,,61.696,,,,NaN,,,,0 / 0,4209,2014-12-14 04:24:21:982
1.8338,-12.072,-1.167,1.3036,-9.7121,0.3818,0.5302,-2.3599,-1.5488,1.9926,-0.9346,1.2095,188.0,-117.0,11.3,84.3,190.62,74.68,-137.95,,61.696,,,,NaN,,,,0 / 0,4259,2014-12-14 04:24:22:032
2.9616,-13.9254,-6.9529,0.9624,-9.732,0.7292,1.9992,-4.1934,-7.6821,1.967,-0.661,1.5736,188.0,-112.7,18.6,78.5,106.83,82.93,-52.85,,57.821,,,,NaN,,,,0 / 0,4309,2014-12-14 04:24:22:082
2.4811,-9.7968,-0.8532,0.2694,-9.7739,0.7545,2.2117,-0.023,-1.6077,2.0635,-1.2413,1.0397,188.0,-107.0,24.7,71.7,74.88,85.31,-19.65,,57.821,,,,NaN,,,,0 / 0,4359,2014-12-14 04:24:22:132
1.7456,-6.8156,-2.3242,0.2677,-9.7235,1.2463,1.7328,2.5352,-3.2272,1.4453,-1.5357,1.0104,188.0,-102.2,28.6,67.3,67.35,82.53,-12.12,,57.821,,,,NaN,,,,0 / 0,4409,2014-12-14 04:24:22:182
1.9221,-5.1975,-2.383,0.3347,-9.7387,1.1026,1.5874,4.5412,-3.4856,0.7563,-1.7605,0.573,188.0,-97.0,31.3,63.4,72.27,83.25,-16.89,,57.821,,,,NaN,,,,0 / 0,4460,2014-12-14 04:24:22:233
2.8145,-5.7369,-2.1084,0.6517,-9.7688,0.5616,2.1628,4.032,-2.67,-0.0489,-0.8943,0.3409,1008.0,-94.8,31.7,62.9,104.27,84.97,-49.25,,57.821,,,,NaN,,,,0 / 0,4510,2014-12-14 04:24:22:283
0.912,-9.1006,1.4122,0.9823,-9.755,-0.214,-0.0703,0.6544,1.6261,-0.9749,-0.6194,0.3958,1008.0,-92.7,31.3,63.4,104.27,84.97,-49.25,,57.821,,,,NaN,,,,0 / 0,4559,2014-12-14 04:24:22:332
0.7943,-9.5615,2.2359,0.9648,-9.7526,-0.3544,0.2975,-0.3283,4.0331,-1.1558,-0.1332,-0.1014,1008.0,-92.2,30.4,67.3,163.57,83.98,-110.17,,57.821,,,,NaN,,,,0 / 0,4610,2014-12-14 04:24:22:383
2.0692,-11.5915,4.0501,1.1427,-9.7387,-0.1464,0.9265,-1.8527,4.1966,-0.876,-0.5986,-0.1784,1008.0,-92.2,30.4,67.8,163.57,83.98,-110.17,,57.821,,,,NaN,,,,0 / 0,4660,2014-12-14 04:24:22:433
3.4912,-10.1891,4.766,1.517,-9.6795,0.4196,1.9742,-0.5096,4.3465,0.0208,-0.3311,-0.1344,1008.0,-92.2,30.4,68.7,125.34,80.76,-74.54,,57.821,,,,NaN,,,,0 / 0,4710,2014-12-14 04:24:22:483
3.6971,-13.0428,0.6669,2.2129,-9.5332,0.6259,1.4843,-3.5096,0.0409,-1.3928,0.6072,-1.069,1008.0,-94.0,29.9,69.7,123.87,76.44,-74.21,,57.821,,,,NaN,,,,0 / 0,4760,2014-12-14 04:24:22:533
-0.1275,-9.5713,-6.7862,2.4305,-9.4882,-0.4866,-2.558,-0.0831,-6.2997,-1.8705,2.4874,0.2761,1008.0,-97.0,27.8,74.6,151.21,75.36,-101.32,,57.821,,,,NaN,,,,0 / 0,4810,2014-12-14 04:24:22:583
-1.8044,-3.805,-3.1577,2.2497,-9.4498,-1.3459,-4.0541,5.6448,-1.8119,-0.8027,0.8894,-0.314,1008.0,-99.2,26.5,76.5,172.3,74.5,-120.89,,63.117,,,,NaN,,,,0 / 0,4860,2014-12-14 04:24:22:633
-4.5405,-13.3665,-4.9229,2.2497,-9.4498,-1.3459,-4.0541,5.6448,-1.8119,-0.7514,0.1698,0.1429,1008.0,-99.2,26.5,76.5,172.3,74.5,-120.89,,63.117,,,,NaN,,,,0 / 0,4909,2014-12-14 04:24:22:682
3.7265,-9.2869,-0.5394,1.263,-9.3102,-2.8099,2.0026,0.0821,1.437,-0.733,0.1344,-0.2688,1008.0,-100.9,23.0,80.4,199.17,72.25,-145.9,,63.117,,,,NaN,,,,0 / 0,4960,2014-12-14 04:24:22:733
-0.5982,-10.1401,-2.1771,1.6845,-9.0451,-3.394,-2.3415,-0.9381,0.8933,-0.6377,0.4227,-0.3091,360.0,-105.7,19.1,83.4,209.01,67.27,-153.6,,63.117,,,,NaN,,,,0 / 0,5108,2014-12-14 04:24:22:881
-0.5982,-10.1401,-2.1771,1.6845,-9.0451,-3.394,-2.3415,-0.9381,0.8933,-0.6377,0.4227,-0.3091,360.0,-105.7,19.1,83.4,209.01,67.27,-153.6,,63.117,,,,NaN,,,,0 / 0,5111,2014-12-14 04:24:22:884
-0.5982,-10.1401,-2.1771,1.6845,-9.0451,-3.394,-2.3415,-0.9381,0.8933,-0.6377,0.4227,-0.3091,360.0,-105.7,19.1,83.4,209.01,67.27,-153.6,,63.117,,,,NaN,,,,0 / 0,5114,2014-12-14 04:24:22:887
-0.5198,-9.8066,-2.9714,1.6364,-9.0327,-3.45,-2.1562,-0.7739,0.4786,-0.7477,0.43,-0.3604,156.0,-106.6,19.1,83.9,209.01,67.27,-153.6,,63.117,,,,NaN,,,,0 / 0,5160,2014-12-14 04:24:22:933
0.2059,-10.0616,-2.7655,1.5846,-8.9807,-3.6064,-1.3787,-1.0809,0.8409,-0.7489,0.6023,-0.3812,156.0,-107.9,17.8,84.3,212.29,66.32,-156.28,,63.117,,,,NaN,,,,0 / 0,5210,2014-12-14 04:24:22:983
0.3334,-10.7873,0.049,2.0438,-8.9477,-3.4543,-3.8265,-2.3547,3.179,-0.573,1.1301,-0.562,156.0,-111.8,14.7,83.9,207.34,65.62,-150.9,,63.117,,,,NaN,,,,0 / 0,5259,2014-12-14 04:24:23:032
-1.9613,-11.1502,0.559,2.0345,-9.1492,-2.8849,-3.9958,-2.0009,3.4439,0.2859,0.43,-0.4899,156.0,-114.4,13.4,82.4,201.07,68.9,-144.81,,63.117,,,,NaN,,,,0 / 0,5310,2014-12-14 04:24:23:083
-1.9613,-11.1502,0.559,2.0345,-9.1492,-2.8849,-3.9958,-2.0009,3.4439,0.2859,0.43,-0.4899,156.0,-114.4,13.4,82.4,201.07,68.9,-144.81,,60.559,,,,NaN,,,,0 / 0,5359,2014-12-14 04:24:23:132
1.4612,-12.0818,1.422,1.418,-9.6905,-0.5046,0.0432,-2.3913,1.9265,2.667,0.7636,0.529,156.0,-115.7,17.3,72.1,167.38,81.17,-109.59,,60.559,,,,NaN,,,,0 / 0,5409,2014-12-14 04:24:23:182
0.3334,-12.6604,-7.708,0.8741,-9.7425,0.7005,-0.5407,-2.9179,-8.4086,2.0085,-0.8821,1.5284,156.0,-110.0,22.1,60.9,111.08,83.44,-51.29,,60.559,,,,NaN,,,,0 / 0,5459,2014-12-14 04:24:23:232
2.8537,-10.4147,-1.3435,0.4258,-9.7765,0.6403,2.4279,-0.6382,-1.9838,2.1722,-1.1484,1.0727,156.0,-107.9,23.4,57.0,111.08,83.44,-51.29,,60.559,,,,NaN,,,,0 / 0,5510,2014-12-14 04:24:23:283
2.991,-10.1597,-0.4707,0.3885,-9.772,0.7265,2.6025,-0.3877,-1.1972,2.1417,-1.3439,1.0275,156.0,-107.4,23.9,55.6,89.55,85.18,-28.14,,60.559,,,,NaN,,,,0 / 0,5559,2014-12-14 04:24:23:332
2.3634,-7.1098,-2.2163,0.4652,-9.7129,1.2705,1.8982,2.603,-3.4868,1.2694,-1.7605,1.0727,156.0,-103.5,24.3,49.2,83.07,82.07,-20.11,,60.559,,,,NaN,,,,0 / 0,5610,2014-12-14 04:24:23:383
1.9908,-6.4037,-2.9812,0.4836,-9.7144,1.2516,1.5072,3.3107,-4.2328,1.1191,-2.0415,0.9994,1505.0,-101.8,25.2,48.2,83.07,82.07,-20.11,,60.559,,,,NaN,,,,0 / 0,5660,2014-12-14 04:24:23:433
0.8728,-7.4138,-0.1275,0.5762,-9.7884,0.1573,0.6397,4.3147,-2.6279,0.2285,-1.1839,0.3922,1505.0,-100.0,25.2,46.3,107.67,84.86,-43.56,,60.559,,,,NaN,,,,0 / 0,5710,2014-12-14 04:24:23:483
1.3533,-9.4536,3.4421,0.4532,-9.7951,-0.1423,0.9002,0.3415,3.5845,-1.1582,-0.1784,0.4948,1505.0,-97.9,23.0,49.2,170.77,87.22,-107.44,,60.559,,,,NaN,,,,0 / 0,5760,2014-12-14 04:24:23:533
2.6576,-9.8459,4.7562,0.6403,-9.7857,0.0188,2.2821,-0.4524,4.659,-1.1582,-0.1784,0.4948,1505.0,-97.9,23.0,49.2,170.77,87.22,-107.44,,60.559,,,,NaN,,,,0 / 0,5810,2014-12-14 04:24:23:583
2.6772,-11.0619,4.1384,0.7753,-9.7749,0.1455,1.9019,-1.287,3.9929,-0.5278,-0.9053,-0.2908,1505.0,-98.3,21.7,51.7,140.75,85.39,-79.37,,62.068,,,,NaN,,,,0 / 0,5860,2014-12-14 04:24:23:633
3.0695,-16.7792,-1.3141,1.6786,-9.6295,0.7909,1.3909,-7.1497,-2.105,-0.7428,1.4661,0.1356,1505.0,-100.0,19.9,51.7,125.21,79.09,-64.77,,62.068,,,,NaN,,,,0 / 0,5910,2014-12-14 04:24:23:683
4.2267,-2.1967,-4.2071,1.8512,-9.6235,-0.3637,2.3755,7.4268,-3.8434,-1.4099,2.1307,0.1332,1505.0,-100.0,19.1,53.1,162.32,78.91,-101.11,,62.068,,,,NaN,,,,0 / 0,5960,2014-12-14 04:24:23:733
1.2553,-2.0986,-3.1185,2.1052,-9.5399,-0.8535,-0.85,7.4413,-2.265,-1.1729,1.6225,-0.0464,1505.0,-100.5,18.6,54.1,162.32,78.91,-101.11,,62.068,,,,NaN,,,,0 / 0,6010,2014-12-14 04:24:23:783
-4.06,-14.1216,-0.1863,1.2984,-9.3327,-2.7175,-9.4034,-7.8505,-3.3311,-1.7202,2.1466,0.1955,1505.0,-101.4,16.5,58.0,204.64,72.26,-142.39,,62.068,,,,NaN,,,,0 / 0,6060,2014-12-14 04:24:23:833
3.197,-8.218,-0.304,1.1174,-9.374,-2.655,-2.7552,-1.6683,3.3121,-0.8027,-0.044,-0.1869,1505.0,-101.8,15.6,58.0,220.33,72.92,-157.17,,62.068,,,,NaN,,,,0 / 0,6109,2014-12-14 04:24:23:882
0.5884,-10.042,-3.1675,1.3634,-9.3052,-2.7793,1.0562,0.6632,0.0128,-0.8027,-0.044,-0.1869,555.0,-102.2,14.7,59.5,220.33,72.92,-157.17,,62.068,,,,NaN,,,,0 / 0,6159,2014-12-14 04:24:23:932
-0.9709,-11.0325,-1.8338,1.462,-9.1998,-3.0654,-2.4329,-1.8327,1.2316,-0.8296,1.1704,-0.182,555.0,-104.0,13.0,60.9,216.32,70.97,-153.7,,62.068,,,,NaN,,,,0 / 0,6210,2014-12-14 04:24:23:983
-0.0785,-10.2774,-2.638,1.3567,-9.2143,-3.0702,-1.4352,-1.0631,0.4322,-0.4777,0.4386,-0.2981,555.0,-104.4,11.7,61.9,218.31,69.98,-156.16,,62.068,,,,NaN,,,,0 / 0,6259,2014-12-14 04:24:24:032
0.9218,-9.4634,-2.1378,1.3503,-9.2122,-3.0794,-1.3896,-0.8789,0.3434,-0.5082,0.4997,-0.292,555.0,-104.8,11.7,61.4,218.31,69.98,-156.16,,62.068,,,,NaN,,,,0 / 0,6310,2014-12-14 04:24:24:083
0.8826,-8.8358,-2.3536,1.5651,-9.1343,-3.2071,-0.506,0.1808,0.8927,-0.3763,1.0849,-0.3763,288.0,-106.1,9.9,61.4,217.06,68.66,-153.99,,62.068,,,,NaN,,,,0 / 0,6360,2014-12-14 04:24:24:133
-0.2942,-8.9535,-1.7554,2.0032,-9.0707,-3.1432,-1.164,0.0499,0.8081,-0.4337,1.2584,-0.4423,288.0,-107.9,9.5,62.9,213.88,67.99,-151.18,,62.262,,,,NaN,,,,0 / 0,6409,2014-12-14 04:24:24:182
-0.2059,-9.3555,-1.3141,2.0156,-9.0808,-3.1058,-2.2215,-0.2747,1.7918,-0.1197,0.9322,-0.5327,288.0,-110.0,7.8,59.9,211.04,67.82,-147.02,,62.262,,,,NaN,,,,0 / 0,6459,2014-12-14 04:24:24:232
-0.2059,-9.3555,-1.3141,2.0156,-9.0808,-3.1058,-2.2215,-0.2747,1.7918,-0.1197,0.9322,-0.5327,288.0,-110.0,7.8,59.9,211.04,67.82,-147.02,,62.262,,,,NaN,,,,0 / 0,6509,2014-12-14 04:24:24:282
0.0294,-14.7296,0.4315,2.3021,-9.3639,-1.7858,-2.2726,-5.3657,2.2172,1.4074,1.5223,-0.3164,173.0,-111.3,6.5,55.6,191.74,72.72,-127.8,,62.262,,,,NaN,,,,0 / 0,6559,2014-12-14 04:24:24:332
4.4326,-11.5228,-3.0204,1.4109,-9.7033,-0.1624,3.0217,-1.8195,-2.858,1.6677,-0.5229,1.4123,173.0,-109.2,8.2,48.7,162.01,81.67,-96.57,,62.262,,,,NaN,,,,0 / 0,6610,2014-12-14 04:24:24:383
3.5304,-12.5721,-3.3637,1.3435,-9.7131,-0.1428,2.1869,-2.859,-3.2209,1.8399,-0.887,0.8076,173.0,-105.7,9.1,45.3,162.72,82.08,-96.07,,62.262,,,,NaN,,,,0 / 0,6659,2014-12-14 04:24:24:432
4.3738,-9.9832,-1.6867,1.2999,-9.7196,0.1012,3.0739,-0.2636,-1.7879,1.967,-0.7892,0.6939,173.0,-104.0,9.5,42.9,162.72,82.08,-96.07,,62.262,,,,NaN,,,,0 / 0,6710,2014-12-14 04:24:24:483
3.7952,-8.9731,-1.471,1.3378,-9.709,0.34,2.4574,0.7359,-1.811,1.2107,-0.2077,0.9737,800.0,-103.1,9.9,40.9,145.67,82.09,-78.32,,62.262,,,,NaN,,,,0 / 0,6760,2014-12-14 04:24:24:533
3.8148,-7.8944,-2.1084,1.2931,-9.7088,0.4882,3.0267,2.3542,-2.6009,1.2107,-0.2077,0.9737,800.0,-103.1,9.9,40.9,145.67,82.09,-78.32,,62.262,,,,NaN,,,,0 / 0,6810,2014-12-14 04:24:24:583
2.2948,-6.845,-2.6674,1.5103,-9.6859,0.2709,0.7845,2.8408,-2.9383,0.4594,-0.6243,0.4557,800.0,-100.0,10.4,38.0,141.09,81.56,-73.19,,62.262,,,,NaN,,,,0 / 0,6859,2014-12-14 04:24:24:632
0.8434,-6.9431,-2.2065,1.5782,-9.6786,0.0694,-0.7348,2.7355,-2.2759,0.2016,-0.303,0.2688,2152.0,-100.0,9.5,38.5,155.54,80.73,-87.48,,62.262,,,,NaN,,,,0 / 0,6909,2014-12-14 04:24:24:682
0.3432,-7.4825,-0.0981,1.4263,-9.6928,-0.4318,-1.083,2.2103,0.3337,-0.347,-0.391,0.16,2152.0,-100.0,9.9,39.0,155.54,80.73,-87.48,,55.651,,,,NaN,,,,0 / 0,6959,2014-12-14 04:24:24:732
2.3634,-8.5416,-0.1177,1.3976,-9.6774,-0.7512,0.9658,1.1358,0.6336,-0.5877,-0.8784,-0.0806,2152.0,-99.6,9.5,40.4,186.64,80.69,-118.26,,55.651,,,,NaN,,,,0 / 0,7010,2014-12-14 04:24:24:783
3.4912,-9.0221,-0.4511,1.7342,-9.5927,-1.0689,1.6099,0.6491,0.4216,-0.5718,-0.2028,-0.1026,2152.0,-99.6,9.1,41.9,189.22,78.01,-121.65,,55.651,,,,NaN,,,,0 / 0,7060,2014-12-14 04:24:24:833
1.9809,-11.9837,0.7943,1.9893,-9.53,-1.1798,-0.0084,-2.4537,1.9741,-0.1478,-0.3616,0.1552,2152.0,-99.6,8.6,42.4,189.22,78.01,-121.65,,55.651,,,,NaN,,,,0 / 0,7109,2014-12-14 04:24:24:882
1.2062,-17.348,3.0106,1.9586,-9.5567,-1.0023,-0.7524,-7.7913,4.013,0.6561,-0.8479,0.2162,2152.0,-99.2,9.5,42.4,184.31,77.04,-117.1,,55.651,,,,NaN,,,,0 / 0,7159,2014-12-14 04:24:24:932
-1.0199,-10.905,0.5884,1.5604,-9.6541,-0.7307,-2.5803,-1.2509,1.3191,-0.2297,-0.4801,-0.0122,2152.0,-98.3,9.1,42.4,181.95,79.88,-115.09,,55.651,,,,NaN,,,,0 / 0,7209,2014-12-14 04:24:24:982
-0.3236,-11.4934,1.726,1.3174,-9.6967,-0.6399,-2.065,-1.8014,1.8724,0.1759,-0.2187,0.1307,1855.0,-97.9,9.5,43.4,181.95,79.88,-115.09,,55.651,,,,NaN,,,,0 / 0,7259,2014-12-14 04:24:25:032
0.3923,-9.385,0.3138,1.1091,-9.7388,-0.3096,-0.7169,0.3538,0.6234,-0.1295,-0.2297,0.1991,1855.0,-97.9,9.5,43.9,171.26,83.26,-105.6,,55.651,,,,NaN,,,,0 / 0,7309,2014-12-14 04:24:25:082
0.3923,-9.385,0.3138,1.1091,-9.7388,-0.3096,-0.7169,0.3538,0.6234,-0.1295,-0.2297,0.1991,1855.0,-97.9,9.5,43.9,171.26,83.26,-105.6,,55.651,,,,NaN,,,,0 / 0,7359,2014-12-14 04:24:25:132
0.0,-10.3068,0.7747,0.8774,-9.7645,-0.236,-0.8774,-0.5423,1.0107,0.0428,-0.2529,0.2285,1855.0,-96.1,9.9,42.9,170.81,84.68,-105.05,,53.591,,,,NaN,,,,0 / 0,7409,2014-12-14 04:24:25:182
0.3432,-10.2381,0.7845,0.7376,-9.7786,-0.0698,-0.4027,-0.0293,0.7093,0.0562,-0.1955,0.121,1855.0,-96.1,9.5,43.9,165.16,85.57,-99.94,,53.591,,,,NaN,,,,0 / 0,7459,2014-12-14 04:24:25:232
0.2256,-10.2578,0.7453,0.7324,-9.7793,-0.015,-0.5069,-0.4785,0.7603,0.1112,0.0367,0.066,1855.0,-96.1,9.5,43.9,156.33,85.72,-91.18,,53.591,,,,NaN,,,,0 / 0,7509,2014-12-14 04:24:25:282
-0.353,-9.7674,0.6472,0.5558,-9.7901,0.1248,-0.9873,-0.144,0.3557,-0.0037,0.0281,0.0367,1855.0,-95.7,10.4,43.4,142.98,86.67,-77.34,,53.591,,,,NaN,,,,0 / 0,7559,2014-12-14 04:24:25:332
-0.2844,-9.8066,0.7061,0.4564,-9.7953,0.1195,-0.7915,-0.0329,0.5202,-0.022,0.0586,-0.0024,1855.0,-96.1,9.9,43.4,142.98,86.67,-77.34,,53.591,,,,NaN,,,,0 / 0,7609,2014-12-14 04:24:25:382
-0.1765,-9.9832,0.9022,0.4503,-9.7955,0.1282,-0.6268,-0.1877,0.774,-0.0293,0.0684,0.0232,1855.0,-95.7,9.9,43.9,139.28,87.26,-74.11,,53.591,,,,NaN,,,,0 / 0,7660,2014-12-14 04:24:25:433
-0.2059,-10.0028,0.7061,0.4066,-9.7964,0.1882,-0.6126,-0.2064,0.5179,0.0318,0.0941,0.0623,1855.0,-95.7,9.9,43.4,130.82,87.38,-65.16,,53.591,,,,NaN,,,,0 / 0,7710,2014-12-14 04:24:25:483
-0.2256,-10.0028,0.6472,0.3857,-9.7967,0.2133,-0.6113,-0.206,0.4339,0.0195,0.0709,0.0024,1855.0,-95.7,9.9,43.9,126.21,87.42,-61.06,,53.591,,,,NaN,,,,0 / 0,7759,2014-12-14 04:24:25:532
-0.2256,-10.0028,0.6472,0.3857,-9.7967,0.2133,-0.6113,-0.206,0.4339,0.0195,0.0709,0.0024,1855.0,-95.7,9.9,43.9,126.21,87.42,-61.06,,53.591,,,,NaN,,,,0 / 0,7810,2014-12-14 04:24:25:583
0.049,-9.7674,0.7257,0.3793,-9.7968,0.2208,-0.3303,0.0294,0.5049,-0.033,0.0843,-0.0012,1855.0,-95.7,9.9,43.4,125.45,87.44,-59.8,,53.591,,,,NaN,,,,0 / 0,7859,2014-12-14 04:24:25:632
-0.1079,-9.787,0.657,0.3903,-9.7964,0.2223,-0.4982,0.0093,0.4347,-0.0391,0.1038,-0.0049,1855.0,-96.1,10.4,43.9,125.45,87.44,-59.8,,53.591,,,,NaN,,,,0 / 0,7910,2014-12-14 04:24:25:683
-0.2059,-9.9538,0.6178,0.3863,-9.7959,0.2484,-0.6609,-0.1284,0.3596,0.022,0.0831,0.0037,1855.0,-95.7,9.5,43.9,122.39,87.32,-57.26,,54.504,,,,NaN,,,,0 / 0,7960,2014-12-14 04:24:25:733
-0.3138,-9.9734,0.6669,0.3392,-9.7975,0.2523,-0.653,-0.1758,0.4146,0.0354,0.0415,0.0098,1855.0,-95.7,10.4,44.3,122.39,87.32,-57.26,,54.504,,,,NaN,,,,0 / 0,8010,2014-12-14 04:24:25:783
-0.1569,-9.9047,0.7747,0.3167,-9.7977,0.275,-0.4736,-0.107,0.4997,0.0611,-0.0281,0.0159,1855.0,-95.7,9.9,43.4,114.67,87.55,-49.03,,54.504,,,,NaN,,,,0 / 0,8060,2014-12-14 04:24:25:833
-0.2648,-10.042,0.5688,0.3173,-9.7969,0.301,-0.5821,-0.2451,0.2678,-0.0367,-0.11,0.0171,1855.0,-95.7,9.9,43.9,111.43,87.47,-45.81,,54.504,,,,NaN,,,,0 / 0,8110,2014-12-14 04:24:25:883
-0.2746,-10.1303,0.6767,0.3184,-9.7971,0.2924,-0.593,-0.3332,0.3842,0.0061,-0.1429,0.0159,1855.0,-95.7,9.5,43.9,112.57,87.47,-47.44,,54.504,,,,NaN,,,,0 / 0,8159,2014-12-14 04:24:25:932
0.0392,-9.6203,0.4413,0.3084,-9.7956,0.3478,-0.2692,0.1753,0.0935,0.0867,0.1112,0.0232,1855.0,-95.7,9.5,44.3,112.57,87.47,-47.44,,54.504,,,,NaN,,,,0 / 0,8209,2014-12-14 04:24:25:982
-0.0588,-9.689,0.2942,0.3148,-9.7954,0.3485,-0.3736,0.1064,-0.0543,0.022,0.1222,0.0232,1855.0,-95.7,9.9,43.9,107.2,87.26,-42.09,,54.504,,,,NaN,,,,0 / 0,8260,2014-12-14 04:24:26:033
-0.1765,-9.993,0.9316,0.3255,-9.7963,0.3125,-0.502,-0.1967,0.6192,0.0562,-0.0281,-0.0147,1855.0,-96.1,9.9,43.9,111.29,87.36,-46.17,,54.504,,,,NaN,,,,0 / 0,8310,2014-12-14 04:24:26:083