ACCELEROMETER X (m/s²),ACCELEROMETER Y (m/s²),ACCELEROMETER Z (m/s²),GRAVITY X (m/s²),GRAVITY Y (m/s²),GRAVITY Z (m/s²),LINEAR ACCELERATION X (m/s²),LINEAR ACCELERATION Y (m/s²),LINEAR ACCELERATION Z (m/s²),GYROSCOPE X (rad/s),GYROSCOPE Y (rad/s),GYROSCOPE Z (rad/s),LIGHT (lux),MAGNETIC FIELD X (μT),MAGNETIC FIELD Y (μT),MAGNETIC FIELD Z (μT),ORIENTATION X (°),ORIENTATION Y (°),ORIENTATION Z (°),PROXIMITY (i),SOUND LEVEL (dB),LOCATION Latitude : ,LOCATION Longitude : ,LOCATION Altitude ( m),LOCATION Altitude-google ( m),LOCATION Speed ( Kmh),LOCATION Accuracy ( m),LOCATION ORIENTATION (°),Satellites in range,Time since start in ms ,YYYY-MO-DD HH-MI-SS_SSS
0.0392,-9.9439,0.4903,0.4698,-9.793,0.2142,-0.4306,-0.1509,0.2761,0.0232,-0.0525,-0.0024,463.0,-90.0,0.8,33.1,135.29,86.98,-65.49,,55.442,,,,NaN,,,,0 / 0,8,2014-12-14 04:26:59:788
0.0392,-9.9439,0.4903,0.4698,-9.793,0.2142,-0.4306,-0.1509,0.2761,0.0232,-0.0525,-0.0024,463.0,-90.0,0.8,33.1,135.29,86.98,-65.49,,55.442,,,,NaN,,,,0 / 0,57,2014-12-14 04:26:59:837
0.0785,-9.9538,0.4609,0.4677,-9.7933,0.2087,-0.3991,-0.1899,0.2522,0.0208,-0.0244,-0.0061,463.0,-90.0,0.4,33.1,135.77,87.01,-65.95,,55.442,,,,NaN,,,,0 / 0,107,2014-12-14 04:26:59:887
0.1569,-9.9439,0.4119,0.4827,-9.7931,0.1808,-0.3258,-0.1509,0.2311,0.0049,-0.0379,-0.0171,463.0,-90.0,0.4,32.6,139.3,86.99,-69.47,,55.442,,,,NaN,,,,0 / 0,157,2014-12-14 04:26:59:937
0.1569,-9.9636,0.4805,0.53,-9.7915,0.1269,-0.3731,-0.1721,0.3536,-0.0232,-0.0037,-0.0513,463.0,-90.5,0.8,33.1,146.34,86.81,-76.53,,55.442,,,,NaN,,,,0 / 0,207,2014-12-14 04:26:59:987
0.0981,-9.9636,0.7747,0.5661,-9.7896,0.1134,-0.4681,-0.1739,0.6613,-0.0244,0.0134,-0.0599,463.0,-90.5,0.4,33.1,148.49,86.62,-78.67,,55.442,,,,NaN,,,,0 / 0,258,2014-12-14 04:27:00:038
0.0588,-9.9734,0.814,0.5727,-9.7892,0.1179,-0.5138,-0.1842,0.6961,-0.0208,0.0244,-0.0648,463.0,-90.5,0.8,33.6,148.49,86.62,-78.67,,55.442,,,,NaN,,,,0 / 0,308,2014-12-14 04:27:00:088
0.0588,-9.9734,0.814,0.5727,-9.7892,0.1179,-0.5138,-0.1842,0.6961,-0.0208,0.0244,-0.0648,463.0,-90.5,0.8,33.6,148.49,86.62,-78.67,,55.442,,,,NaN,,,,0 / 0,358,2014-12-14 04:27:00:138
0.2452,-9.787,0.5394,0.6378,-9.7845,0.1676,-0.3828,0.0464,0.4993,-0.1686,0.1576,-0.1588,463.0,-90.5,0.8,34.1,145.03,86.49,-75.8,,36.142,,,,NaN,,,,0 / 0,409,2014-12-14 04:27:00:189
-0.049,-9.8949,0.0588,0.6886,-9.7819,0.104,-0.7376,-0.113,-0.0452,-0.27,0.237,-0.2065,463.0,-90.0,0.8,33.6,150.63,85.93,-81.41,,36.142,,,,NaN,,,,0 / 0,458,2014-12-14 04:27:00:238
-0.6276,-10.0224,0.5296,0.7511,-9.7777,-0.059,-1.4474,-0.2938,0.8925,-0.2468,0.204,-0.2419,463.0,-91.8,1.3,35.1,150.63,85.93,-81.41,,36.142,,,,NaN,,,,0 / 0,507,2014-12-14 04:27:00:287
-0.2942,-9.8557,0.6276,0.7511,-9.7777,-0.059,-1.0546,-0.0361,0.6791,-0.2138,0.3042,-0.2395,463.0,-91.4,1.3,35.6,163.6,85.59,-94.49,,36.142,,,,NaN,,,,0 / 0,558,2014-12-14 04:27:00:338
-0.2452,-9.9538,0.3236,0.7138,-9.78,-0.1077,-0.967,-0.1459,0.6058,-0.2578,0.1454,-0.2957,365.0,-92.2,1.7,35.6,167.15,85.78,-98.58,,36.142,,,,NaN,,,,0 / 0,607,2014-12-14 04:27:00:387
0.5296,-10.0616,1.1572,0.8525,-9.7671,-0.2156,-0.323,-0.2945,1.3728,-0.1869,0.1686,-0.3861,365.0,-93.1,1.7,36.5,167.15,85.78,-98.58,,36.142,,,,NaN,,,,0 / 0,657,2014-12-14 04:27:00:437
0.4217,-10.1793,1.2749,0.8856,-9.7645,-0.1996,-0.3854,-0.3265,1.5431,-0.1429,0.2358,-0.3421,365.0,-93.1,2.1,36.5,172.45,84.86,-104.19,,36.142,,,,NaN,,,,0 / 0,707,2014-12-14 04:27:00:487
-0.0392,-10.0714,0.7453,0.9862,-9.7569,0.0227,-1.0549,-0.0399,0.6932,0.1588,-0.0415,-0.2028,365.0,-93.1,2.6,36.5,156.81,84.23,-88.68,,36.142,,,,NaN,,,,0 / 0,757,2014-12-14 04:27:00:537
-0.0686,-10.9933,0.6865,0.9712,-9.7581,0.0877,-1.0594,-1.6765,0.4419,0.2443,-0.3616,-0.1552,365.0,-93.1,3.0,36.0,156.81,84.23,-88.68,,36.142,,,,NaN,,,,0 / 0,807,2014-12-14 04:27:00:587
1.8142,-11.2678,1.8535,0.8148,-9.7658,0.3682,0.2444,-1.9924,1.0341,0.9175,-0.5217,0.088,365.0,-92.7,3.4,34.6,134.82,84.77,-65.68,,39.825,,,,NaN,,,,0 / 0,858,2014-12-14 04:27:00:638
3.3735,-9.8949,1.5298,0.8139,-9.7558,0.577,2.5596,-0.1391,0.9529,1.0372,-0.7355,0.0867,365.0,-92.7,3.4,33.6,134.82,84.77,-65.68,,39.825,,,,NaN,,,,0 / 0,907,2014-12-14 04:27:00:687
2.2261,-8.8554,-0.3628,1.3104,-9.6612,1.0556,0.9158,0.8058,-1.4184,0.7526,-0.325,0.1307,365.0,-91.8,4.3,31.7,134.82,84.77,-65.68,,39.825,,,,NaN,,,,0 / 0,958,2014-12-14 04:27:00:738
0.5786,-9.1006,-0.2452,1.3795,-9.6517,1.0548,-0.801,0.5511,-1.2999,0.5461,0.0367,0.2602,365.0,-91.4,4.3,30.2,121.24,80.12,-51.15,,39.825,,,,NaN,,,,0 / 0,1007,2014-12-14 04:27:00:787
-0.1471,-9.0712,0.608,1.1987,-9.6785,1.0293,-1.4831,0.5093,-0.6371,0.5192,-0.4618,0.2773,659.0,-90.9,4.3,29.2,121.0,80.73,-49.35,,39.825,,,,NaN,,,,0 / 0,1058,2014-12-14 04:27:00:838
2.1378,-8.777,1.726,1.0132,-9.6904,1.1139,0.9775,1.139,0.465,0.0562,-0.6084,0.2175,659.0,-90.0,4.7,26.8,114.9,81.17,-42.29,,39.825,,,,NaN,,,,0 / 0,1107,2014-12-14 04:27:00:887
2.3144,-9.2869,2.0986,1.1282,-9.6753,1.1338,1.1469,0.4963,0.906,-0.0171,-0.4789,0.1943,659.0,-90.0,3.9,26.8,114.9,81.17,-42.29,,39.825,,,,NaN,,,,0 / 0,1158,2014-12-14 04:27:00:938
1.9908,-9.1202,2.383,1.293,-9.6528,1.1497,0.6977,0.5326,1.2334,-0.2773,-0.3176,0.1772,659.0,-89.6,5.2,27.8,117.69,80.4,-45.76,,39.825,,,,NaN,,,,0 / 0,1208,2014-12-14 04:27:00:988
2.0692,-9.2673,2.3634,1.4189,-9.6453,1.0606,0.6503,0.378,1.3028,-0.6292,-0.4423,0.1405,659.0,-89.6,5.2,27.8,117.69,80.4,-45.76,,39.825,,,,NaN,,,,0 / 0,1257,2014-12-14 04:27:01:037
1.9417,-9.6301,2.3634,1.48,-9.6425,1.0014,0.4617,0.0123,1.362,-0.6524,-0.38,0.1148,659.0,-89.6,6.5,28.7,124.37,79.59,-53.22,,39.825,,,,NaN,,,,0 / 0,1307,2014-12-14 04:27:01:087
2.1378,-8.4141,0.9807,1.6401,-9.6358,0.7947,0.4978,1.2217,0.186,-1.0153,0.3714,-0.1185,659.0,-89.6,6.9,30.7,134.07,79.29,-64.15,,46.014,,,,NaN,,,,0 / 0,1358,2014-12-14 04:27:01:138
2.5595,-18.6621,-1.6083,1.8983,-9.6139,0.3733,-0.463,-4.9092,-2.4573,-0.9774,0.7672,-0.3787,659.0,-89.6,6.9,30.7,134.07,79.29,-64.15,,46.014,,,,NaN,,,,0 / 0,1407,2014-12-14 04:27:01:187
2.5497,-4.9033,-2.1673,1.8926,-9.599,-0.6695,0.6572,4.6956,-1.4977,-0.7734,0.292,-0.2297,393.0,-89.2,8.2,35.6,177.36,78.19,-109.48,,46.014,,,,NaN,,,,0 / 0,1457,2014-12-14 04:27:01:237
-3.8246,-11.9935,-2.3242,1.8926,-9.599,-0.6695,0.6572,4.6956,-1.4977,-0.4789,0.8784,0.2541,393.0,-89.2,8.2,35.6,177.36,78.19,-109.48,,46.014,,,,NaN,,,,0 / 0,1508,2014-12-14 04:27:01:288
1.8731,-9.2379,-1.4122,0.9458,-9.5466,-2.0344,0.9273,0.3087,0.6222,-0.4447,-0.3067,-0.1038,393.0,-88.7,9.1,40.4,212.03,75.28,-144.12,,46.014,,,,NaN,,,,0 / 0,1558,2014-12-14 04:27:01:338
1.2749,-9.0417,-3.2656,1.0496,-9.5286,-2.0676,0.2253,0.4869,-1.1981,-0.4667,0.1283,-0.1002,393.0,-89.2,9.5,41.9,219.52,76.32,-153.09,,46.014,,,,NaN,,,,0 / 0,1607,2014-12-14 04:27:01:387
1.1474,-9.6792,-2.9518,1.1957,-9.4067,-2.5009,7.0E-4,-0.0469,-0.7059,-0.7086,0.7782,-0.1808,184.0,-89.2,9.9,42.9,220.93,73.58,-154.45,,46.014,,,,NaN,,,,0 / 0,1658,2014-12-14 04:27:01:438
1.0885,-9.8655,-2.7949,1.2977,-9.3113,-2.7903,7.0E-4,-0.0469,-0.7059,-0.7086,0.7782,-0.1808,184.0,-89.2,9.9,42.9,220.93,73.58,-154.45,,46.014,,,,NaN,,,,0 / 0,1707,2014-12-14 04:27:01:487
0.0981,-10.0616,-3.599,1.3585,-9.0516,-3.5205,-0.6132,-1.3238,1.1767,-0.766,0.7648,-0.441,184.0,-90.9,10.8,50.7,221.75,69.93,-156.23,,46.014,,,,NaN,,,,0 / 0,1757,2014-12-14 04:27:01:537
0.8041,-10.5421,-2.0986,1.3585,-9.0516,-3.5205,-0.6132,-1.3238,1.1767,-0.766,0.7648,-0.441,184.0,-90.9,10.8,50.7,221.75,69.93,-156.23,,46.014,,,,NaN,,,,0 / 0,1807,2014-12-14 04:27:01:587
-0.5296,-11.0031,-0.7845,1.5364,-9.0403,-3.4761,-1.9385,-1.8745,2.5347,-0.4081,0.7306,-0.474,89.0,-91.8,11.7,51.7,220.67,67.2,-156.15,,58.66,,,,NaN,,,,0 / 0,1857,2014-12-14 04:27:01:637
-0.559,-10.6696,-0.3138,1.436,-9.2669,-2.8692,-1.995,-1.4027,2.5554,0.3164,0.1576,-0.5217,89.0,-92.2,13.0,52.6,217.52,70.26,-153.86,,58.66,,,,NaN,,,,0 / 0,1908,2014-12-14 04:27:01:688
-0.0392,-13.8764,0.4315,1.3842,-9.3903,-2.4652,-1.4234,-4.4861,2.8967,0.7233,0.2321,-0.4789,89.0,-93.5,13.9,52.6,213.34,73.24,-150.69,,58.66,,,,NaN,,,,0 / 0,1958,2014-12-14 04:27:01:738
2.6968,-13.0232,2.8733,1.1559,-9.7228,-0.5499,1.541,-3.3005,3.4233,2.9798,0.2419,0.358,89.0,-91.8,17.8,46.3,178.84,82.5,-115.44,,58.66,,,,NaN,,,,0 / 0,2008,2014-12-14 04:27:01:788
2.4713,-11.6013,2.2163,1.1281,-9.7406,-0.1344,1.3432,-1.8606,2.3507,3.0775,-0.1674,0.4643,89.0,-90.9,18.2,44.8,178.84,82.5,-115.44,,58.66,,,,NaN,,,,0 / 0,2058,2014-12-14 04:27:01:838
0.5786,-11.8268,-3.8442,0.8449,-9.7372,0.8021,-0.2663,-2.4978,-4.5873,1.6408,-0.1197,1.3537,89.0,-84.8,21.3,33.1,113.02,83.18,-46.49,,58.66,,,,NaN,,,,0 / 0,2108,2014-12-14 04:27:01:888
2.079,-8.218,-2.0692,-0.0388,-9.7427,1.1177,2.1178,1.5247,-3.1869,1.752,-1.8729,1.1301,89.0,-81.4,21.3,22.9,70.73,83.45,1.99,,58.66,,,,NaN,,,,0 / 0,2157,2014-12-14 04:27:01:937
1.2258,-6.8254,-3.1283,-0.0464,-9.7302,1.2213,1.4586,2.6596,-4.1731,1.4966,-1.9474,0.9982,709.0,-80.9,20.4,20.4,70.73,83.45,1.99,,58.66,,,,NaN,,,,0 / 0,2207,2014-12-14 04:27:01:987
1.2258,-6.8254,-3.1283,-0.0808,-9.7389,1.1478,1.4047,3.4332,-3.8838,1.146,-1.7959,0.8002,709.0,-81.4,19.9,16.5,72.67,83.26,4.02,,58.66,,,,NaN,,,,0 / 0,2258,2014-12-14 04:27:02:038
2.0104,-6.0115,-1.5887,0.0525,-9.7684,0.8638,1.9579,3.7569,-2.4525,0.441,-1.5272,0.5559,709.0,-81.8,18.6,12.6,83.34,84.94,-3.48,,58.66,,,,NaN,,,,0 / 0,2307,2014-12-14 04:27:02:087
2.2163,-7.9434,-0.4119,0.1819,-9.786,0.6092,2.0344,1.8426,-1.0211,0.0171,-1.5663,0.7013,709.0,-82.7,18.6,11.7,83.34,84.94,-3.48,,58.66,,,,NaN,,,,0 / 0,2358,2014-12-14 04:27:02:138
1.7848,-9.081,2.589,0.3067,-9.7993,0.224,1.4781,0.7183,2.3649,-0.6939,-0.2529,0.5815,709.0,-82.2,18.2,11.2,135.85,87.78,-53.85,,59.218,,,,NaN,,,,0 / 0,2407,2014-12-14 04:27:02:187
2.7949,-9.3261,2.9224,0.5244,-9.7888,0.2726,2.2705,0.4627,2.6498,-0.8357,-0.4655,0.1539,709.0,-82.7,19.5,12.6,135.85,87.78,-53.85,,59.218,,,,NaN,,,,0 / 0,2458,2014-12-14 04:27:02:238
2.1182,-11.7189,2.4811,1.0581,-9.7439,0.3276,1.0602,-1.975,2.1535,-0.6573,-0.7477,-0.0037,199.0,-83.5,20.8,12.6,153.01,83.51,-72.8,,59.218,,,,NaN,,,,0 / 0,2508,2014-12-14 04:27:02:288
3.5696,-17.5637,-3.5108,1.7111,-9.6515,0.3015,1.8585,-7.9122,-3.8123,-0.6573,-0.7477,-0.0037,199.0,-85.3,23.0,16.5,157.33,79.79,-80.01,,59.218,,,,NaN,,,,0 / 0,2558,2014-12-14 04:27:02:338
3.2264,-15.5828,-4.8249,1.7386,-9.65,0.1567,1.4878,-5.9327,-4.9816,-1.3378,1.7043,-0.3176,199.0,-85.7,23.4,17.0,162.61,79.75,-84.85,,59.218,,,,NaN,,,,0 / 0,2607,2014-12-14 04:27:02:387
1.1474,-5.6192,-1.0003,1.9576,-9.5458,-1.1027,-0.6828,3.1813,0.2789,-0.6988,0.347,-0.3824,199.0,-84.8,24.7,20.4,162.61,79.75,-84.85,,59.218,,,,NaN,,,,0 / 0,2657,2014-12-14 04:27:02:437
-0.7453,-5.3839,-3.8638,2.072,-9.4972,-1.2964,-1.3659,4.3095,-1.0375,-1.1814,0.4276,-0.6402,199.0,-85.3,25.6,20.9,200.22,75.57,-122.03,,59.218,,,,NaN,,,,0 / 0,2708,2014-12-14 04:27:02:488
-5.8252,-11.1404,-5.7075,1.9806,-9.3628,-2.1413,-7.8057,-1.7775,-3.5662,-1.3317,0.6817,0.0648,199.0,-85.7,26.5,24.3,200.22,75.57,-122.03,,59.218,,,,NaN,,,,0 / 0,2757,2014-12-14 04:27:02:537
0.5001,-9.5321,-2.5791,0.9682,-9.379,-2.696,-7.8057,-1.7775,-3.5662,-1.3317,0.6817,0.0648,199.0,-85.7,26.5,24.3,200.22,75.57,-122.03,,59.218,,,,NaN,,,,0 / 0,2808,2014-12-14 04:27:02:588
0.5001,-9.5321,-2.5791,0.9682,-9.379,-2.696,-7.8057,-1.7775,-3.5662,-1.3317,0.6817,0.0648,199.0,-85.7,26.5,24.3,200.22,75.57,-122.03,,59.218,,,,NaN,,,,0 / 0,2857,2014-12-14 04:27:02:637
0.2256,-9.6105,-2.6576,0.9682,-9.379,-2.696,-7.8057,-1.7775,-3.5662,-0.5596,0.4704,-0.325,199.0,-85.7,26.5,24.3,200.22,75.57,-122.03,,59.218,,,,NaN,,,,0 / 0,2908,2014-12-14 04:27:02:688
0.2059,-9.787,-3.7559,1.0916,-9.3556,-2.7298,-0.6111,-0.6472,-0.6339,-0.5596,0.4704,-0.325,199.0,-86.6,28.6,31.2,234.41,72.56,-158.2,,60.393,,,,NaN,,,,0 / 0,2958,2014-12-14 04:27:02:738
-0.8434,-11.2482,-1.3239,1.4153,-9.1248,-3.3023,-1.9057,-2.1626,1.9293,-0.711,0.8687,-0.4557,199.0,-88.7,29.5,35.6,234.41,72.56,-158.2,,60.393,,,,NaN,,,,0 / 0,3008,2014-12-14 04:27:02:788
-0.8434,-11.2482,-1.3239,1.4153,-9.1248,-3.3023,-1.9057,-2.1626,1.9293,-0.3445,0.661,-0.5657,223.0,-91.4,29.9,38.0,231.38,68.51,-156.8,,60.393,,,,NaN,,,,0 / 0,3058,2014-12-14 04:27:02:838
-1.1768,-11.0815,-0.9709,1.4017,-9.1888,-3.1259,-2.5785,-1.8927,2.1551,-0.2663,0.584,-0.5779,223.0,-91.4,30.4,37.5,231.38,68.51,-156.8,,60.393,,,,NaN,,,,0 / 0,3107,2014-12-14 04:27:02:887
-0.6472,-10.7775,-0.3138,1.2958,-9.3033,-2.8176,-1.9431,-1.4742,2.5038,0.0428,0.3335,-0.5168,223.0,-93.1,30.8,36.5,229.5,71.56,-155.3,,60.393,,,,NaN,,,,0 / 0,3157,2014-12-14 04:27:02:937
-0.6472,-10.7775,-0.3138,1.2958,-9.3033,-2.8176,-1.9431,-1.4742,2.5038,0.0428,0.3335,-0.5168,223.0,-93.1,30.8,36.5,229.5,71.56,-155.3,,60.393,,,,NaN,,,,0 / 0,3208,2014-12-14 04:27:02:988
-0.049,-11.2188,1.216,1.2706,-9.4087,-2.4561,-1.3878,-3.5509,3.874,0.9493,0.4007,-0.4398,223.0,-95.7,31.3,35.1,228.62,72.15,-154.85,,60.393,,,,NaN,,,,0 / 0,3258,2014-12-14 04:27:03:038
0.353,-13.1703,2.4909,1.1841,-9.6757,-1.0722,-0.831,-3.4946,3.5631,1.7642,-0.2187,1.2205,223.0,-93.1,29.9,14.6,215.08,80.63,-132.16,,60.393,,,,NaN,,,,0 / 0,3308,2014-12-14 04:27:03:088
1.0885,-11.0717,-1.6181,0.0495,-9.7706,0.8383,1.2646,-0.5558,-2.2799,1.9157,-1.7532,1.3182,375.0,-88.3,26.0,2.9,215.08,80.63,-132.16,,60.393,,,,NaN,,,,0 / 0,3358,2014-12-14 04:27:03:138
1.5985,-8.1003,-2.3144,-0.1301,-9.7432,1.1062,1.7285,1.6429,-3.4205,1.62,-1.901,1.1692,375.0,-88.3,23.9,-0.5,81.58,83.48,6.71,,60.393,,,,NaN,,,,0 / 0,3407,2014-12-14 04:27:03:187
2.2065,-7.1196,-3.3146,-0.1622,-9.7448,1.0876,2.3589,2.7723,-4.3336,1.1582,-1.7911,0.9273,375.0,-88.7,21.3,-4.9,81.58,83.48,6.71,,60.393,,,,NaN,,,,0 / 0,3458,2014-12-14 04:27:03:238
2.432,-6.0507,-2.4615,-0.0522,-9.7657,0.8941,2.4843,3.715,-3.3555,0.7685,-1.9804,0.6145,1010.0,-90.0,19.9,-6.9,89.94,84.76,3.34,,62.004,,,,NaN,,,,0 / 0,3508,2014-12-14 04:27:03:288
3.295,-7.6688,-0.3923,0.5712,-9.7886,0.1657,2.7239,2.1198,-0.5579,-0.7453,-1.0018,0.474,1010.0,-93.1,19.5,-8.3,133.86,86.79,-38.85,,62.004,,,,NaN,,,,0 / 0,3558,2014-12-14 04:27:03:338
2.5497,-9.8753,5.1093,0.9369,-9.7523,-0.4295,1.6129,-0.123,5.5387,-1.2779,0.4777,-0.0281,1010.0,-93.5,20.8,-5.9,205.52,84.63,-111.21,,62.004,,,,NaN,,,,0 / 0,3611,2014-12-14 04:27:03:391
2.5497,-9.8753,5.1093,0.9369,-9.7523,-0.4295,1.6129,-0.123,5.5387,-1.2779,0.4777,-0.0281,1010.0,-93.1,23.0,-4.0,205.52,84.63,-111.21,,62.004,,,,NaN,,,,0 / 0,3657,2014-12-14 04:27:03:437
1.6769,-12.631,4.8445,1.3736,-9.7069,0.244,0.3033,-2.9241,4.6005,-0.3409,-0.8894,-0.2724,1010.0,-94.8,23.0,-3.0,178.44,82.42,-86.66,,62.004,,,,NaN,,,,0 / 0,3708,2014-12-14 04:27:03:488
2.4909,-9.9636,1.6966,1.7203,-9.6226,0.7848,0.7706,-0.3409,0.9118,-0.0403,-0.3677,-0.2737,1010.0,-95.7,22.6,-4.0,159.08,80.55,-67.74,,62.004,,,,NaN,,,,0 / 0,3758,2014-12-14 04:27:03:538
-0.0196,-5.8742,-0.2746,2.0362,-9.519,-1.189,-2.0558,3.6448,0.9144,-0.65,0.4838,-0.7648,1010.0,-95.7,22.6,-4.0,159.08,80.55,-67.74,,62.004,,,,NaN,,,,0 / 0,3808,2014-12-14 04:27:03:588
-1.5985,-5.4231,-5.3054,2.0433,-9.4977,-1.3373,-2.3774,4.2796,-0.2091,-1.2474,0.4252,-0.1417,3923.0,-91.4,26.0,2.9,211.78,76.02,-120.81,,62.004,,,,NaN,,,,0 / 0,3858,2014-12-14 04:27:03:638
-4.1776,-11.8464,-5.0112,1.916,-9.4494,-1.7914,-5.5543,-0.3377,-4.0338,-1.1472,0.3738,0.0733,3923.0,-91.8,26.5,6.3,223.55,74.49,-133.07,,62.004,,,,NaN,,,,0 / 0,3908,2014-12-14 04:27:03:688
1.0297,-9.081,-2.7655,1.3266,-9.3475,-2.6523,0.6249,0.3548,0.6419,-0.8772,0.7184,-0.1613,3923.0,-89.6,28.2,10.2,243.18,72.4,-153.43,,62.004,,,,NaN,,,,0 / 0,3957,2014-12-14 04:27:03:737
1.0297,-9.081,-2.7655,1.3266,-9.3475,-2.6523,0.6249,0.3548,0.6419,-0.8772,0.7184,-0.1613,3923.0,-89.6,28.2,10.2,243.18,72.4,-153.43,,62.004,,,,NaN,,,,0 / 0,4007,2014-12-14 04:27:03:787
0.0785,-10.2381,-2.3144,1.5467,-9.1814,-3.0788,-1.4682,-1.0567,0.7645,-0.7538,0.8369,-0.3091,3923.0,-89.2,29.9,14.6,240.69,70.72,-151.37,,62.004,,,,NaN,,,,0 / 0,4058,2014-12-14 04:27:03:838
0.0196,-10.2872,-2.6184,1.5565,-9.0721,-3.3831,-1.5368,-1.2151,0.7647,-0.8027,0.8845,-0.3873,3923.0,-89.2,30.8,18.0,242.75,67.68,-155.29,,62.184,,,,NaN,,,,0 / 0,4108,2014-12-14 04:27:03:888
0.0098,-10.552,-1.4024,1.7152,-9.0317,-3.4143,-1.7054,-1.5203,2.012,-0.6512,1.1215,-0.4386,2616.0,-90.0,32.1,21.4,239.38,67.07,-153.33,,62.184,,,,NaN,,,,0 / 0,4157,2014-12-14 04:27:03:937
-1.4024,-10.9736,-0.2452,1.6697,-9.1606,-3.0768,-3.072,-1.8131,2.8317,-0.2138,0.7282,-0.5547,2616.0,-90.9,32.1,23.4,235.18,69.09,-151.51,,62.184,,,,NaN,,,,0 / 0,4208,2014-12-14 04:27:03:988
-0.6276,-11.0717,0.5884,1.4696,-9.3358,-2.6179,-2.2639,-1.6574,2.6669,0.3629,0.2175,-0.5058,2616.0,-92.2,32.1,22.9,235.18,69.09,-151.51,,62.184,,,,NaN,,,,0 / 0,4257,2014-12-14 04:27:04:037
1.8142,-12.2779,2.7262,1.1022,-9.7376,-0.368,0.712,-2.5404,3.0942,2.8808,0.4252,0.237,228.0,-92.7,29.9,13.6,230.64,73.94,-148.62,,62.184,,,,NaN,,,,0 / 0,4308,2014-12-14 04:27:04:088
1.8142,-12.2779,2.7262,1.1022,-9.7376,-0.368,0.712,-2.5404,3.0942,2.8808,0.4252,0.237,228.0,-92.7,29.9,13.6,230.64,73.94,-148.62,,62.184,,,,NaN,,,,0 / 0,4358,2014-12-14 04:27:04:138
4.1972,-13.1115,-5.6388,0.8942,-9.703,1.106,3.303,-3.4085,-6.7448,1.9584,-0.2627,1.2315,228.0,-90.5,26.5,3.4,125.98,81.69,-41.41,,62.184,,,,NaN,,,,0 / 0,4407,2014-12-14 04:27:04:187
0.8041,-11.7876,-2.5007,0.2009,-9.7587,0.948,1.888,1.084,-2.7527,1.8619,-1.8778,1.1228,228.0,-86.6,17.8,-9.8,107.33,84.33,-11.97,,62.184,,,,NaN,,,,0 / 0,4458,2014-12-14 04:27:04:238
1.4906,-7.2079,-2.8439,-0.1045,-9.701,1.432,1.5951,2.4931,-4.2759,1.3329,-1.6493,0.9896,341.0,-87.9,15.2,-11.8,92.14,81.58,4.17,,62.184,,,,NaN,,,,0 / 0,4508,2014-12-14 04:27:04:288
1.6671,-6.0899,-2.6772,-0.1249,-9.7232,1.2701,1.792,3.6333,-3.9474,0.5253,-1.9511,0.5046,341.0,-91.4,11.3,-16.1,92.14,81.58,4.17,,54.482,,,,NaN,,,,0 / 0,4557,2014-12-14 04:27:04:337
3.1381,-5.7957,-1.5887,0.2805,-9.7836,0.6099,2.8576,3.9879,-2.1986,-0.2211,-1.5296,0.4288,341.0,-94.8,10.8,-14.7,113.66,85.45,-14.45,,54.482,,,,NaN,,,,0 / 0,4608,2014-12-14 04:27:04:388
1.3533,-9.0613,0.559,0.5602,-9.7836,-0.3706,0.6068,-0.5232,3.3322,-1.3292,0.3897,0.3848,341.0,-94.8,13.9,-11.8,221.13,86.07,-123.49,,54.482,,,,NaN,,,,0 / 0,4657,2014-12-14 04:27:04:437
2.128,-10.7481,4.9033,0.6257,-9.7799,-0.3635,1.5023,-0.9682,5.2668,-1.2743,0.2786,0.1295,341.0,-94.8,14.7,-11.3,221.13,86.07,-123.49,,54.482,,,,NaN,,,,0 / 0,4708,2014-12-14 04:27:04:488
1.7946,-12.6015,5.0406,1.0022,-9.7412,0.524,0.8022,-1.9581,3.4968,-0.0562,-0.6707,-0.0073,341.0,-98.7,15.6,-9.8,216.53,85.77,-120.15,,54.482,,,,NaN,,,,0 / 0,4758,2014-12-14 04:27:04:538
2.0692,-8.826,4.5797,1.075,-9.7233,0.6872,0.9942,0.8973,3.8925,-0.1649,-0.3311,-0.1222,54.0,-99.2,15.2,-9.3,151.87,82.52,-57.41,,54.482,,,,NaN,,,,0 / 0,4807,2014-12-14 04:27:04:587
1.2749,-12.4937,-7.8257,1.4378,-9.6989,-0.1839,1.3571,-6.0505,-7.7889,-1.9963,1.4942,0.2737,54.0,-97.9,17.8,-5.4,190.61,81.5,-97.29,,54.482,,,,NaN,,,,0 / 0,4857,2014-12-14 04:27:04:637
1.2749,-10.5225,2.0986,1.4153,-9.6674,-0.8416,-0.1405,-0.8551,2.9402,-0.0049,0.1258,-0.0428,54.0,-97.4,18.2,-4.9,190.61,81.5,-97.29,,54.482,,,,NaN,,,,0 / 0,4907,2014-12-14 04:27:04:687
-0.4119,-5.1289,-6.3743,1.614,-9.6435,-0.754,-0.7412,5.4757,-3.9336,-0.6891,0.0977,-0.6365,54.0,-99.2,17.3,-3.5,208.02,79.53,-115.04,,54.482,,,,NaN,,,,0 / 0,4958,2014-12-14 04:27:04:738
0.7257,-9.3261,-2.589,1.1603,-9.4765,-2.2405,0.046,-0.5361,-0.5445,-0.8858,0.7367,-0.3067,35.0,-97.9,19.9,1.4,243.43,75.41,-149.93,,66.148,,,,NaN,,,,0 / 0,5163,2014-12-14 04:27:04:943
0.7257,-9.3261,-2.589,1.1603,-9.4765,-2.2405,0.046,-0.5361,-0.5445,-0.8858,0.7367,-0.303,35.0,-97.9,20.8,4.8,245.0,72.4,-153.36,,66.148,,,,NaN,,,,0 / 0,5164,2014-12-14 04:27:04:944
0.5099,-9.3555,-2.687,1.3291,-9.3478,-2.6498,-0.8192,-0.0077,-0.0372,-0.8894,0.7416,-0.303,35.0,-97.9,20.8,4.8,245.0,72.4,-153.36,,66.148,,,,NaN,,,,0 / 0,5174,2014-12-14 04:27:04:954
0.5099,-9.3555,-2.687,1.3291,-9.3478,-2.6498,-0.8192,-0.0077,-0.0372,-0.8894,0.7416,-0.303,35.0,-97.9,20.8,4.8,245.0,72.4,-153.36,,66.148,,,,NaN,,,,0 / 0,5175,2014-12-14 04:27:04:955
0.559,-9.7968,-2.9616,1.4545,-9.1752,-3.1418,-0.8955,-0.6217,0.1802,-0.8894,0.7416,-0.303,35.0,-97.9,20.8,4.8,245.0,72.4,-153.36,,66.148,,,,NaN,,,,0 / 0,5208,2014-12-14 04:27:04:988
0.5786,-9.483,-2.0594,1.578,-9.0842,-3.3401,-0.8955,-0.6217,0.1802,-0.7929,1.0226,-0.3457,35.0,-98.3,22.1,8.2,246.31,69.33,-155.16,,66.148,,,,NaN,,,,0 / 0,5258,2014-12-14 04:27:05:038
-1.422,-10.248,-0.9414,1.63,-9.1433,-3.1486,-3.0519,-1.1046,2.2071,-0.3152,0.7147,-0.4313,35.0,-98.7,21.3,11.7,241.48,68.81,-152.63,,66.148,,,,NaN,,,,0 / 0,5308,2014-12-14 04:27:05:088
-1.4024,-10.3264,-0.8434,1.5193,-9.2116,-3.0013,-2.9216,-1.1148,2.158,-0.1295,0.6035,-0.3714,35.0,-99.2,21.3,12.6,241.48,68.81,-152.63,,66.148,,,,NaN,,,,0 / 0,5358,2014-12-14 04:27:05:138
-0.8826,-16.0143,1.7358,1.2306,-9.628,-1.3992,-1.6523,-2.6044,4.8743,0.777,0.5986,-0.3824,35.0,-100.9,19.5,12.6,239.17,72.37,-152.24,,66.148,,,,NaN,,,,0 / 0,5408,2014-12-14 04:27:05:188
3.8932,-12.3368,0.5394,0.6927,-9.782,0.0489,3.2005,-2.5547,0.4905,2.8796,0.1943,1.0385,35.0,-100.0,13.9,4.8,173.02,85.94,-85.97,,66.148,,,,NaN,,,,0 / 0,5458,2014-12-14 04:27:05:238
3.0106,-12.7585,-6.492,0.5296,-9.77,0.6613,2.481,-2.9885,-7.1533,2.1625,0.0269,1.5577,35.0,-97.9,11.3,1.4,127.56,85.04,-38.69,,56.663,,,,NaN,,,,0 / 0,5507,2014-12-14 04:27:05:287
1.422,-12.121,-4.9426,0.3077,-9.7787,0.6726,2.481,-2.9885,-7.1533,2.1625,0.0269,1.5577,35.0,-97.9,11.3,1.4,127.56,85.04,-38.69,,56.663,,,,NaN,,,,0 / 0,5558,2014-12-14 04:27:05:338
2.6478,-8.7377,-0.4217,0.1089,-9.7557,0.9929,2.5389,1.0179,-1.4146,1.8509,-0.9114,1.2376,35.0,-96.6,7.3,-2.0,96.98,84.15,-6.26,,56.663,,,,NaN,,,,0 / 0,5608,2014-12-14 04:27:05:388
1.4612,-6.3939,-2.3046,0.209,-9.7213,1.274,1.4777,3.043,-3.7943,1.19,-1.6958,0.661,112.0,-97.9,6.5,-3.0,100.45,82.43,-9.32,,56.663,,,,NaN,,,,0 / 0,5657,2014-12-14 04:27:05:437
2.2163,-4.9033,-0.9611,0.3877,-9.744,1.0369,1.8286,4.8406,-1.9979,0.4349,-1.2474,0.2443,112.0,-100.5,6.0,-3.0,111.73,83.52,-20.5,,56.663,,,,NaN,,,,0 / 0,5707,2014-12-14 04:27:05:487
0.9905,-7.8845,1.2749,0.6038,-9.7685,0.6185,1.1123,2.335,0.2936,-0.6878,-0.8589,0.4581,112.0,-101.8,7.3,-1.0,134.52,84.94,-44.31,,56.663,,,,NaN,,,,0 / 0,5758,2014-12-14 04:27:05:538
1.6867,-8.9437,4.6484,0.6115,-9.7854,0.2049,0.5849,1.0869,4.1297,-1.3256,0.4435,-0.0037,55.0,-101.8,11.3,2.9,159.61,86.23,-71.48,,56.663,,,,NaN,,,,0 / 0,5807,2014-12-14 04:27:05:587
1.9711,-10.8952,3.5108,0.9226,-9.7539,0.4249,1.1957,-0.5823,3.4782,-0.8564,-0.9884,-0.5266,55.0,-103.5,13.4,5.3,159.61,86.23,-71.48,,56.663,,,,NaN,,,,0 / 0,5857,2014-12-14 04:27:05:637
1.8338,-11.3463,3.4519,1.0401,-9.7395,0.4809,0.931,-1.1557,3.0299,-0.7795,-1.1619,-0.5266,55.0,-104.0,13.9,6.8,150.73,83.29,-65.19,,56.663,,,,NaN,,,,0 / 0,5908,2014-12-14 04:27:05:688
2.8047,-16.2006,-1.8927,1.5788,-9.6519,0.7202,1.422,-7.9216,3.781,-0.5229,0.1515,-0.5559,55.0,-106.1,16.0,9.2,150.73,83.29,-65.19,,61.231,,,,NaN,,,,0 / 0,5957,2014-12-14 04:27:05:737
2.8243,-3.2852,-3.8246,1.7101,-9.6543,-0.2023,1.1143,6.3691,-3.6223,-1.3109,1.7947,-0.0244,33.0,-104.8,19.9,12.6,148.24,79.81,-65.48,,61.231,,,,NaN,,,,0 / 0,6008,2014-12-14 04:27:05:788
-6.1193,-13.6116,-7.8649,1.753,-9.4622,-1.8879,-2.1032,-4.1494,-5.977,-1.3109,1.7947,-0.0244,33.0,-106.1,22.1,17.0,221.08,74.77,-137.12,,61.231,,,,NaN,,,,0 / 0,6058,2014-12-14 04:27:05:838
-6.1193,-13.6116,-7.8649,1.753,-9.4622,-1.8879,-7.8724,-4.1494,-5.977,-1.2327,0.7721,-0.0599,33.0,-106.1,22.1,17.0,221.08,74.77,-137.12,,61.231,,,,NaN,,,,0 / 0,6108,2014-12-14 04:27:05:888
4.0109,-9.0221,0.5296,0.736,-9.3931,-2.72,3.2749,0.371,3.2495,-0.9346,-0.1613,-0.1466,33.0,-106.1,25.6,21.9,239.41,72.25,-156.15,,61.231,,,,NaN,,,,0 / 0,6158,2014-12-14 04:27:05:938
-0.5296,-10.1499,-2.7459,1.3735,-9.2674,-2.8981,-1.903,-0.8825,0.1522,-0.8112,0.6414,-0.1466,33.0,-105.7,26.0,22.4,239.41,72.25,-156.15,,61.231,,,,NaN,,,,0 / 0,6208,2014-12-14 04:27:05:988
-0.5296,-10.1499,-2.7459,1.3735,-9.2674,-2.8981,-1.903,-0.8825,0.1522,-0.441,0.4508,-0.2871,21.0,-105.7,26.0,22.4,239.41,72.25,-156.15,,61.231,,,,NaN,,,,0 / 0,6257,2014-12-14 04:27:06:037
0.8728,-10.3558,-3.7756,1.298,-9.2354,-3.032,-0.4252,-1.1204,-0.7435,-0.441,0.4508,-0.2871,21.0,-105.7,27.3,24.3,239.91,70.35,-156.83,,61.231,,,,NaN,,,,0 / 0,6308,2014-12-14 04:27:06:088
1.0689,-9.9538,-2.4517,1.4232,-9.0858,-3.4049,-1.0015,-0.6326,0.9043,-0.6096,0.7697,-0.2651,21.0,-106.6,28.6,25.8,240.81,67.89,-157.32,,61.231,,,,NaN,,,,0 / 0,6358,2014-12-14 04:27:06:138
-0.2648,-10.2283,-0.7159,1.7872,-9.0509,-3.3254,-1.7676,-1.0892,2.384,-0.1515,1.0214,-0.4019,21.0,-107.4,29.9,26.3,237.65,67.25,-154.29,,61.231,,,,NaN,,,,0 / 0,6407,2014-12-14 04:27:06:187
-0.4903,-10.0616,-0.657,1.8055,-9.0731,-3.2543,-1.7676,-1.0892,2.384,-0.1515,1.0214,-0.4019,21.0,-107.4,29.9,26.3,237.65,67.25,-154.29,,63.19,,,,NaN,,,,0 / 0,6457,2014-12-14 04:27:06:237
-0.6669,-10.1205,0.4707,1.7377,-9.2577,-2.7288,-2.6203,-0.7059,2.6111,0.3738,0.9884,-0.3702,21.0,-108.3,30.4,23.9,230.72,70.74,-147.51,,63.19,,,,NaN,,,,0 / 0,6508,2014-12-14 04:27:06:288
0.0196,-14.5236,1.3239,1.6451,-9.5164,-1.7037,-1.3607,-2.4477,4.0475,1.6933,1.0873,-0.2773,18.0,-109.6,31.3,19.9,230.72,70.74,-147.51,,63.19,,,,NaN,,,,0 / 0,6558,2014-12-14 04:27:06:338
2.1967,-13.288,-0.912,1.1634,-9.7374,0.0191,0.2978,-3.9723,0.1869,2.5632,0.5596,0.8613,18.0,-107.0,29.5,9.7,173.46,83.19,-89.06,,63.19,,,,NaN,,,,0 / 0,6608,2014-12-14 04:27:06:388
6.8352,-12.2877,-6.2959,0.8206,-9.7609,0.4718,5.8871,-1.86,-7.1011,1.2682,0.1686,1.3024,18.0,-102.2,28.6,2.9,147.45,84.46,-60.11,,63.19,,,,NaN,,,,0 / 0,6658,2014-12-14 04:27:06:438
3.3539,-10.0616,-2.1182,0.8049,-9.769,0.2998,2.549,-0.2927,-2.418,2.1661,-2.2199,0.8503,18.0,-100.9,26.0,-3.5,160.78,84.98,-69.57,,63.19,,,,NaN,,,,0 / 0,6708,2014-12-14 04:27:06:488
4.9818,-7.1687,-2.2555,0.8798,-9.7475,0.6178,4.102,2.5789,-2.8733,1.3537,-0.4093,0.8638,18.0,-99.6,22.6,-9.3,160.78,84.98,-69.57,,63.19,,,,NaN,,,,0 / 0,6757,2014-12-14 04:27:06:537
4.9622,-7.1687,-1.9711,0.9438,-9.7405,0.6336,4.0184,2.5719,-2.6048,1.2572,-0.3225,0.8528,18.0,-99.6,22.6,-8.8,150.35,83.34,-56.12,,63.19,,,,NaN,,,,0 / 0,6807,2014-12-14 04:27:06:587
2.2359,-7.8257,-2.8537,1.2734,-9.7098,0.5184,0.9625,1.8841,-3.3722,0.7343,-1.4111,0.562,18.0,-99.2,19.5,-12.7,150.35,83.34,-56.12,,63.19,,,,NaN,,,,0 / 0,6859,2014-12-14 04:27:06:639
0.7355,-6.6783,-0.6669,1.2878,-9.7136,0.3986,0.6735,2.2507,-3.0954,0.0953,-1.0275,0.3665,30.0,-100.0,19.1,-13.2,169.85,82.1,-72.8,,63.19,,,,NaN,,,,0 / 0,6908,2014-12-14 04:27:06:688
0.4217,-8.4828,0.5001,1.2945,-9.6984,-0.6603,-0.8728,1.2156,1.1605,-0.6927,-0.2541,-0.0147,30.0,-100.0,21.7,-10.8,210.89,81.67,-112.89,,58.389,,,,NaN,,,,0 / 0,6957,2014-12-14 04:27:06:737
0.4217,-8.4828,0.5001,1.2945,-9.6984,-0.6603,-0.8728,1.1053,-0.1025,-0.6842,-0.788,0.0965,30.0,-102.2,24.3,-8.8,221.75,81.01,-124.95,,58.389,,,,NaN,,,,0 / 0,7008,2014-12-14 04:27:06:788
2.893,-8.5808,-0.9807,1.2565,-9.6861,-0.8781,1.6364,1.1053,-0.1025,-0.3787,-0.2615,-0.099,30.0,-102.2,24.3,-8.8,221.75,81.01,-124.95,,58.389,,,,NaN,,,,0 / 0,7057,2014-12-14 04:27:06:837
2.9714,-12.9252,1.8927,1.6038,-9.5875,-1.2956,1.3676,-3.3377,3.1883,-0.3787,-0.2615,-0.099,30.0,-103.1,26.0,-5.4,224.51,77.86,-128.93,,58.389,,,,NaN,,,,0 / 0,7107,2014-12-14 04:27:06:887
-0.1079,-9.1398,2.638,1.4551,-9.6948,-0.2542,-1.563,0.555,2.8922,0.5107,-0.0953,0.4801,30.0,-104.0,25.2,-6.4,224.51,77.86,-128.93,,58.389,,,,NaN,,,,0 / 0,7158,2014-12-14 04:27:06:938
-0.8532,-8.9044,0.7061,1.1652,-9.737,0.0539,-2.0184,0.8326,0.6522,-0.1234,-0.3726,-0.0342,30.0,-103.5,25.6,-6.4,180.71,83.17,-87.35,,58.389,,,,NaN,,,,0 / 0,7209,2014-12-14 04:27:06:989
-0.7845,-10.7579,0.7453,0.7249,-9.7797,0.0407,-1.5094,-0.9782,0.7046,-0.0354,-0.1197,0.1332,30.0,-103.5,25.2,-6.9,180.69,85.75,-86.78,,58.389,,,,NaN,,,,0 / 0,7257,2014-12-14 04:27:07:037
0.255,-9.9734,1.3925,0.5654,-9.7835,0.3657,-0.1437,0.173,1.1151,0.1674,-0.3812,0.0941,30.0,-103.5,25.6,-5.9,164.56,86.49,-71.49,,58.389,,,,NaN,,,,0 / 0,7308,2014-12-14 04:27:07:088
-0.0392,-10.3264,1.2062,0.5553,-9.7827,0.4022,-0.3003,-0.1907,0.9904,0.0391,-0.0403,0.2053,30.0,-104.0,25.2,-6.4,146.8,85.99,-54.09,,58.389,,,,NaN,,,,0 / 0,7357,2014-12-14 04:27:07:137
-0.4021,-10.3166,0.814,0.4501,-9.782,0.5291,-0.9012,-0.7111,0.2946,0.1808,0.0122,0.1429,30.0,-103.5,25.6,-5.9,132.9,85.94,-40.39,,58.389,,,,NaN,,,,0 / 0,7408,2014-12-14 04:27:07:188
-0.1667,-9.5321,1.1572,0.3325,-9.7847,0.566,-0.558,0.3016,0.4637,-0.0305,-0.0452,0.0195,30.0,-103.5,25.2,-6.4,122.92,86.16,-30.43,,58.389,,,,NaN,,,,0 / 0,7457,2014-12-14 04:27:07:237
-0.2452,-9.7478,1.3043,0.3035,-9.7853,0.5703,-0.5487,0.0375,0.734,-0.0586,0.044,0.022,30.0,-103.1,24.7,-6.4,122.92,86.16,-30.43,,53.764,,,,NaN,,,,0 / 0,7508,2014-12-14 04:27:07:288
0.1079,-9.8753,1.0787,0.1059,-9.78,0.7153,0.0196,-0.095,0.3651,0.0098,0.1161,0.088,30.0,-103.1,25.2,-5.9,107.79,85.84,-15.46,,53.764,,,,NaN,,,,0 / 0,7557,2014-12-14 04:27:07:337
0.1863,-10.091,1.3533,0.1284,-9.7779,0.7389,0.1952,-0.3327,0.5948,0.0098,0.1808,-0.0305,30.0,-101.8,25.6,-6.9,102.66,85.61,-9.86,,53.764,,,,NaN,,,,0 / 0,7608,2014-12-14 04:27:07:388
0.1863,-10.091,1.3533,0.1284,-9.7779,0.7389,0.1952,-0.3327,0.5948,0.0098,0.1808,-0.0305,30.0,-101.8,25.6,-6.9,102.66,85.61,-9.86,,53.764,,,,NaN,,,,0 / 0,7658,2014-12-14 04:27:07:438
-0.3628,-10.1793,1.0689,0.1227,-9.7766,0.7567,-0.5542,-0.334,0.3221,-0.0977,-0.0257,-0.0525,30.0,-102.2,25.6,-5.4,104.68,85.43,-12.48,,53.764,,,,NaN,,,,0 / 0,7708,2014-12-14 04:27:07:488
-0.1373,-10.091,1.1278,0.0941,-9.7757,0.7733,-0.2314,-0.3154,0.3545,0.0794,0.2126,-0.0049,30.0,-102.2,26.0,-5.9,99.13,85.44,-6.94,,53.764,,,,NaN,,,,0 / 0,7758,2014-12-14 04:27:07:538
-0.1177,-9.738,1.2553,0.101,-9.7749,0.7826,-0.2187,0.0369,0.4727,0.0098,0.1491,-0.0513,30.0,-101.8,25.2,-5.9,99.58,85.38,-7.36,,53.764,,,,NaN,,,,0 / 0,7808,2014-12-14 04:27:07:588