ACCELEROMETER X (m/s²),ACCELEROMETER Y (m/s²),ACCELEROMETER Z (m/s²),GRAVITY X (m/s²),GRAVITY Y (m/s²),GRAVITY Z (m/s²),LINEAR ACCELERATION X (m/s²),LINEAR ACCELERATION Y (m/s²),LINEAR ACCELERATION Z (m/s²),GYROSCOPE X (rad/s),GYROSCOPE Y (rad/s),GYROSCOPE Z (rad/s),LIGHT (lux),MAGNETIC FIELD X (μT),MAGNETIC FIELD Y (μT),MAGNETIC FIELD Z (μT),ORIENTATION X (°),ORIENTATION Y (°),ORIENTATION Z (°),PROXIMITY (i),SOUND LEVEL (dB),LOCATION Latitude : ,LOCATION Longitude : ,LOCATION Altitude ( m),LOCATION Altitude-google ( m),LOCATION Speed ( Kmh),LOCATION Accuracy ( m),LOCATION ORIENTATION (°),Satellites in range,Time since start in ms ,YYYY-MO-DD HH-MI-SS_SSS
0.2942,-9.9538,0.3432,-1.4991,-9.4919,1.9563,1.7933,-0.4618,-1.613,0.7526,1.168,0.6634,232.0,-93.1,-4.4,33.1,34.2,75.44,37.46,,59.649,,,,NaN,,,,0 / 0,13,2014-12-14 04:23:04:057
0.3334,-9.9538,0.1765,-1.5157,-9.4856,1.974,1.8492,-0.4682,-1.7974,0.7709,1.1558,0.6597,232.0,-93.1,-4.0,33.1,34.2,75.44,37.46,,59.649,,,,NaN,,,,0 / 0,64,2014-12-14 04:23:04:108
0.4903,-9.9538,0.0883,-1.5276,-9.4833,1.9756,2.018,-0.4704,-1.8873,0.7453,1.1814,0.6561,232.0,-93.5,-4.4,33.1,33.97,75.25,37.71,,59.649,,,,NaN,,,,0 / 0,113,2014-12-14 04:23:04:157
0.5982,-9.9538,0.0785,-1.5195,-9.4853,1.9726,2.1177,-0.4685,-1.8942,0.7685,1.1716,0.6548,232.0,-93.5,-4.8,33.6,33.97,75.25,37.71,,45.673,,,,NaN,,,,0 / 0,163,2014-12-14 04:23:04:207
0.6276,-9.8557,0.1177,-1.4812,-9.49,1.9788,2.071,-0.4437,-1.8751,0.7685,1.1716,0.6548,232.0,-93.5,-4.8,33.6,33.97,75.25,37.71,,45.673,,,,NaN,,,,0 / 0,213,2014-12-14 04:23:04:257
0.4315,-10.0028,0.0392,-1.4611,-9.493,1.9796,1.8926,-0.5098,-1.9403,0.7428,1.1961,0.6524,232.0,-93.5,-4.4,33.1,35.24,75.47,36.43,,45.673,,,,NaN,,,,0 / 0,263,2014-12-14 04:23:04:307
0.5099,-9.9636,0.1275,-1.4535,-9.4968,1.967,1.9634,-0.4668,-1.8395,0.744,1.2107,0.6426,232.0,-94.0,-4.8,34.1,35.24,75.47,36.43,,45.673,,,,NaN,,,,0 / 0,313,2014-12-14 04:23:04:357
0.3334,-9.9832,0.0686,-1.4515,-9.4988,1.9587,1.7849,-0.4844,-1.89,0.7611,1.2071,0.6585,232.0,-93.5,-4.0,33.6,34.55,75.61,36.54,,45.673,,,,NaN,,,,0 / 0,363,2014-12-14 04:23:04:407
0.3236,-9.9636,-0.0588,-1.4705,-9.4971,1.9527,1.7941,-0.4664,-2.0115,0.7721,1.2486,0.6536,232.0,-93.5,-4.0,34.1,34.55,75.61,36.54,,45.673,,,,NaN,,,,0 / 0,412,2014-12-14 04:23:04:456
0.2844,-9.9145,0.1863,-1.5373,-9.49,1.9357,1.8216,-0.4245,-1.7493,0.7844,1.2865,0.6597,232.0,-94.0,-4.4,33.6,33.77,75.59,37.51,,45.673,,,,NaN,,,,0 / 0,462,2014-12-14 04:23:04:506
0.255,-9.8753,0.1863,-1.5507,-9.4853,1.9481,1.8057,-0.39,-1.7618,0.7709,1.2511,0.6524,232.0,-93.5,-4.4,34.1,32.58,75.29,38.52,,45.673,,,,NaN,,,,0 / 0,513,2014-12-14 04:23:04:557
0.353,-10.0224,0.1275,-1.5579,-9.482,1.9581,1.911,-0.5404,-1.8306,0.7587,1.2181,0.6353,232.0,-94.0,-4.4,34.1,32.58,75.29,38.52,,50.545,,,,NaN,,,,0 / 0,563,2014-12-14 04:23:04:607
0.4413,-9.9047,0.0981,-1.5259,-9.4845,1.9713,1.9672,-0.4202,-1.8732,0.7758,1.2132,0.6353,232.0,-94.4,-4.4,34.6,33.02,75.27,37.74,,50.545,,,,NaN,,,,0 / 0,613,2014-12-14 04:23:04:657
0.4413,-9.9047,0.0981,-1.5259,-9.4845,1.9713,1.9672,-0.4202,-1.8732,0.7758,1.2132,0.6353,232.0,-94.4,-4.4,34.6,33.02,75.27,37.74,,50.545,,,,NaN,,,,0 / 0,663,2014-12-14 04:23:04:707
0.4413,-9.9047,0.0981,-1.5259,-9.4845,1.9713,1.9672,-0.4202,-1.8732,0.7758,1.2132,0.6353,232.0,-94.4,-4.4,34.6,33.02,75.27,37.74,,50.545,,,,NaN,,,,0 / 0,713,2014-12-14 04:23:04:757
0.5099,-9.9243,0.0883,-1.5106,-9.486,1.9757,2.0206,-0.4383,-1.8874,0.7575,1.2401,0.6426,232.0,-93.5,-4.4,33.6,33.72,75.31,37.4,,50.545,,,,NaN,,,,0 / 0,763,2014-12-14 04:23:04:807
0.3727,-9.9145,0.1863,-1.4458,-9.4809,2.0475,1.8185,-0.4336,-1.8612,0.7868,1.1509,0.6487,232.0,-94.0,-4.0,34.1,36.16,75.19,35.23,,50.545,,,,NaN,,,,0 / 0,813,2014-12-14 04:23:04:857
0.304,-9.9145,0.0981,-1.4475,-9.4793,2.0536,1.7515,-0.4352,-1.9556,0.7526,1.1264,0.6365,232.0,-93.5,-4.0,33.6,36.16,75.19,35.23,,50.545,,,,NaN,,,,0 / 0,863,2014-12-14 04:23:04:907
0.6865,-9.7968,0.049,-1.4399,-9.4828,2.0429,2.1255,-0.2931,-2.005,0.7514,1.1203,0.6353,232.0,-94.0,-4.0,34.6,35.51,75.15,35.32,,50.545,,,,NaN,,,,0 / 0,912,2014-12-14 04:23:04:956
0.6669,-9.9341,0.0686,-1.3892,-9.4891,2.0487,2.0561,-0.445,-1.9801,0.7245,1.0898,0.6475,232.0,-94.4,-4.0,34.1,35.51,75.15,35.32,,50.545,,,,NaN,,,,0 / 0,962,2014-12-14 04:23:05:006
0.5982,-9.9439,0.0883,-1.3807,-9.4906,2.0475,1.9789,-0.4533,-1.9592,0.7208,1.1081,0.6597,232.0,-94.4,-4.0,34.1,37.38,75.41,33.99,,50.545,,,,NaN,,,,0 / 0,1012,2014-12-14 04:23:05:056
0.5296,-9.8753,0.049,-1.3642,-9.4873,2.0739,1.9036,-0.3292,-2.0052,0.7428,1.1985,0.672,232.0,-94.0,-4.0,34.6,37.74,75.45,33.64,,43.536,,,,NaN,,,,0 / 0,1063,2014-12-14 04:23:05:107
0.5394,-9.8165,0.0883,-1.3698,-9.4881,2.0663,1.9092,-0.3283,-1.9781,0.7062,1.2315,0.6707,232.0,-94.0,-4.0,34.6,37.51,75.34,33.34,,43.536,,,,NaN,,,,0 / 0,1112,2014-12-14 04:23:05:156
0.049,-10.0812,0.559,-1.362,-9.4969,2.031,1.7052,-0.5157,-1.678,0.5938,1.2779,0.5718,232.0,-94.4,-4.0,35.1,37.51,75.34,33.34,,43.536,,,,NaN,,,,0 / 0,1163,2014-12-14 04:23:05:207
-0.2844,-10.0518,0.5786,-1.368,-9.5008,2.0085,1.0836,-0.551,-1.4299,0.5974,1.2804,0.5437,232.0,-94.4,-4.0,35.1,36.52,75.65,34.26,,43.536,,,,NaN,,,,0 / 0,1213,2014-12-14 04:23:05:257
0.0294,-9.8949,0.657,-1.4518,-9.4905,1.9983,1.4812,-0.4044,-1.3413,0.6548,1.3256,0.5571,232.0,-94.0,-3.5,35.1,36.52,75.65,34.26,,43.536,,,,NaN,,,,0 / 0,1263,2014-12-14 04:23:05:307
0.0981,-9.8753,0.7355,-1.4851,-9.4772,2.0365,1.5831,-0.3981,-1.301,0.639,1.2657,0.5424,232.0,-94.4,-4.0,35.6,34.18,75.11,36.1,,43.536,,,,NaN,,,,0 / 0,1313,2014-12-14 04:23:05:357
0.0392,-9.9243,0.9512,-1.4874,-9.4703,2.0668,1.5266,-0.454,-1.1155,0.6463,1.157,0.4581,232.0,-94.8,-3.5,36.0,34.18,75.11,36.1,,43.536,,,,NaN,,,,0 / 0,1363,2014-12-14 04:23:05:407
0.1177,-9.993,1.2258,-1.4756,-9.4667,2.0917,1.5932,-0.5263,-0.8658,0.7367,0.9126,0.4191,232.0,-94.4,-3.1,36.0,35.05,74.87,35.2,,43.536,,,,NaN,,,,0 / 0,1412,2014-12-14 04:23:05:456
0.1961,-10.2676,0.7551,-1.3955,-9.4336,2.2869,1.5916,-0.834,-1.5318,0.8467,0.8173,0.4801,232.0,-94.4,-2.7,35.6,39.03,74.15,31.39,,43.536,,,,NaN,,,,0 / 0,1463,2014-12-14 04:23:05:507
-0.4609,-12.631,1.4024,-1.342,-9.3665,2.5766,0.8811,-3.2645,-1.1742,1.2498,0.5046,0.6793,232.0,-94.8,-1.8,35.6,43.28,72.77,27.51,,43.536,,,,NaN,,,,0 / 0,1512,2014-12-14 04:23:05:556
1.6769,-10.2381,1.52,-1.3858,-9.2021,3.0938,3.0627,-1.0361,-1.5738,1.923,0.4081,0.6341,232.0,-94.0,-0.9,35.1,47.42,69.78,24.13,,43.536,,,,NaN,,,,0 / 0,1562,2014-12-14 04:23:05:606
1.6181,-8.6004,0.304,-1.1151,-9.0235,3.6747,2.7332,0.4231,-3.3706,1.6298,0.7868,0.7233,232.0,-94.0,0.0,33.6,55.49,66.95,16.88,,42.026,,,,NaN,,,,0 / 0,1613,2014-12-14 04:23:05:657
0.4315,-8.9535,0.3628,-1.1434,-8.9668,3.8025,1.5749,0.0134,-3.4396,1.6298,0.7868,0.7233,232.0,-94.0,0.0,33.6,55.49,66.95,16.88,,42.026,,,,NaN,,,,0 / 0,1662,2014-12-14 04:23:05:706
-0.3825,-8.8652,0.7551,-1.2924,-8.9234,3.8566,0.91,0.0582,-3.1015,1.3476,1.1215,0.9029,468.0,-93.1,0.8,31.7,55.58,65.69,17.74,,42.026,,,,NaN,,,,0 / 0,1713,2014-12-14 04:23:05:757
0.0294,-8.1984,1.3043,-1.6959,-8.8248,3.9264,1.7253,0.6265,-2.6221,1.0751,0.7025,0.8601,468.0,-92.2,1.7,29.7,51.13,64.14,23.36,,42.026,,,,NaN,,,,0 / 0,1762,2014-12-14 04:23:05:806
1.1964,-8.3062,1.5593,-1.7574,-8.7911,3.9747,3.0813,0.2985,-2.2488,0.9749,0.6573,0.8308,468.0,-92.7,1.3,30.2,51.13,64.14,23.36,,42.026,,,,NaN,,,,0 / 0,1813,2014-12-14 04:23:05:857
1.6966,-8.9927,1.9809,-1.6198,-8.778,4.0612,3.3752,-0.2049,-2.3255,0.8735,0.7062,0.9077,468.0,-92.7,1.7,29.7,50.93,63.69,23.85,,42.026,,,,NaN,,,,0 / 0,1862,2014-12-14 04:23:05:906
1.3435,-9.4732,1.7162,-1.5806,-8.7792,4.074,3.2575,-0.2233,-2.5344,0.821,0.7563,1.0605,614.0,-91.8,2.1,29.7,53.36,63.54,21.2,,42.026,,,,NaN,,,,0 / 0,1913,2014-12-14 04:23:05:957
1.3435,-9.4732,1.7162,-1.5809,-8.8173,3.9907,2.8754,-0.8324,-2.1666,0.5901,0.8662,1.1374,614.0,-90.9,1.7,30.7,53.36,63.54,21.2,,42.026,,,,NaN,,,,0 / 0,1962,2014-12-14 04:23:06:006
0.9022,-9.9538,2.2849,-1.6223,-8.8995,3.7865,2.5245,-1.0543,-1.5016,0.2834,1.0348,0.9493,614.0,-90.5,2.1,29.7,50.71,65.16,23.19,,42.026,,,,NaN,,,,0 / 0,2012,2014-12-14 04:23:06:056
1.9809,-14.0039,1.4906,-1.4737,-9.1481,3.2111,2.939,-0.4206,-1.1133,0.0098,1.0922,0.7648,614.0,-90.0,3.0,30.7,50.71,65.16,23.19,,42.026,,,,NaN,,,,0 / 0,2062,2014-12-14 04:23:06:106
2.2948,-16.838,1.2945,-1.4108,-9.2036,3.0781,3.7055,-7.6345,-1.7836,-0.4557,1.5345,0.2309,614.0,-90.0,3.0,33.1,46.59,69.8,24.62,,42.026,,,,NaN,,,,0 / 0,2112,2014-12-14 04:23:06:156
2.7557,-6.1488,-2.4124,-1.3923,-9.4869,2.0566,4.148,3.3382,-4.4691,-0.2297,2.1881,0.7013,614.0,-88.7,3.4,35.1,35.06,75.33,34.1,,49.002,,,,NaN,,,,0 / 0,2162,2014-12-14 04:23:06:206
-4.8445,-11.6405,-4.6484,-1.3978,-9.6842,0.6586,3.8566,4.1453,-4.1792,-0.2908,1.4636,0.4191,614.0,-88.7,3.9,35.6,35.06,75.33,34.1,,49.002,,,,NaN,,,,0 / 0,2213,2014-12-14 04:23:06:257
-4.8445,-11.6405,-4.6484,-1.6007,-9.6659,0.4229,-2.5083,-2.6611,-2.9334,0.1246,1.8705,0.8442,361.0,-88.3,3.9,39.0,350.83,80.28,75.2,,49.002,,,,NaN,,,,0 / 0,2263,2014-12-14 04:23:06:307
2.2653,-9.0613,-0.8238,-1.931,-9.6145,-0.0626,4.1963,0.5531,-0.7612,0.1222,1.4746,0.7355,361.0,-87.9,3.9,39.0,350.83,80.28,75.2,,49.002,,,,NaN,,,,0 / 0,2313,2014-12-14 04:23:06:357
0.2059,-9.3752,-1.726,-1.6986,-9.6513,-0.3718,2.772,0.3553,-1.2875,0.0574,2.2639,0.8051,361.0,-87.4,4.3,39.5,330.17,79.49,94.94,,49.002,,,,NaN,,,,0 / 0,2363,2014-12-14 04:23:06:407
0.0392,-9.8361,-1.5396,-1.7534,-9.6309,-0.5855,1.0188,0.2409,-1.2457,0.2688,1.9071,0.6976,184.0,-87.4,4.7,40.9,330.17,79.49,94.94,,49.002,,,,NaN,,,,0 / 0,2412,2014-12-14 04:23:06:456
0.1961,-9.8263,-1.7652,-1.7183,-9.6341,-0.6339,1.9144,-0.1922,-1.1312,0.3531,1.6616,0.6023,184.0,-87.4,4.3,41.4,314.33,79.24,110.25,,49.002,,,,NaN,,,,0 / 0,2462,2014-12-14 04:23:06:506
-0.7355,-9.1202,-2.4419,-1.5404,-9.648,-0.8452,1.0501,0.4297,-1.7045,0.2187,1.7532,0.5498,184.0,-88.7,4.7,43.4,305.45,79.68,118.75,,49.002,,,,NaN,,,,0 / 0,2512,2014-12-14 04:23:06:556
1.1866,-10.3656,-2.0006,-1.3541,-9.636,-1.2184,2.5407,-0.7296,-0.7822,0.3238,2.0061,0.4801,92.0,-89.6,5.2,44.8,291.61,79.3,131.98,,49.002,,,,NaN,,,,0 / 0,2562,2014-12-14 04:23:06:606
-0.3727,-11.1011,-2.4713,-1.0445,-9.672,-1.2377,0.6718,-1.4291,-1.2335,0.4081,1.7642,0.303,92.0,-90.0,5.2,45.3,291.61,79.3,131.98,,56.766,,,,NaN,,,,0 / 0,2612,2014-12-14 04:23:06:656
-1.1278,-11.1698,-2.6086,-0.958,-9.6794,-1.2495,-0.1109,-1.4903,-1.3591,0.4728,1.9242,0.2993,92.0,-90.5,5.6,45.8,280.81,80.76,142.52,,56.766,,,,NaN,,,,0 / 0,2663,2014-12-14 04:23:06:707
-1.1278,-11.1698,-2.6086,-0.958,-9.6794,-1.2495,-0.1109,-1.4903,-1.3591,0.4728,1.9242,0.2993,92.0,-90.5,5.6,45.8,280.81,80.76,142.52,,56.766,,,,NaN,,,,0 / 0,2712,2014-12-14 04:23:06:756
-0.3628,-10.9344,-1.8633,-0.9391,-9.6826,-1.239,0.5763,-1.2518,-0.6242,0.639,1.6567,0.3042,92.0,-91.4,6.0,47.3,280.25,80.88,142.84,,56.766,,,,NaN,,,,0 / 0,2762,2014-12-14 04:23:06:806
-0.4609,-11.4346,0.4413,-0.822,-9.7196,-1.0116,0.3611,-1.7149,1.4529,0.9994,1.8509,0.1906,92.0,-92.7,6.9,47.8,282.19,82.36,140.9,,56.766,,,,NaN,,,,0 / 0,2812,2014-12-14 04:23:06:856
2.0202,-11.7288,1.6867,-0.8086,-9.6821,1.3314,2.8287,-2.0466,0.3553,3.8362,0.7587,0.6109,92.0,-92.7,9.5,44.8,282.19,82.36,140.9,,56.766,,,,NaN,,,,0 / 0,2862,2014-12-14 04:23:06:906
2.1084,-10.905,-0.2942,-0.7997,-9.6155,1.753,2.9081,-1.2895,-2.0472,3.7299,0.7062,0.6439,64.0,-92.7,10.4,43.9,40.0,78.67,24.52,,56.766,,,,NaN,,,,0 / 0,2954,2014-12-14 04:23:06:998
2.3242,-11.4149,-6.6979,-0.9088,-9.4203,2.5694,3.233,-1.9946,-9.2674,3.003,0.7905,1.2547,64.0,-90.5,13.0,39.9,46.16,73.86,19.48,,56.766,,,,NaN,,,,0 / 0,3013,2014-12-14 04:23:07:057
2.3242,-11.4149,-6.6979,-0.9088,-9.4203,2.5694,3.233,-1.9946,-9.2674,3.003,0.7905,1.2547,64.0,-90.5,13.0,39.9,46.16,73.86,19.48,,56.766,,,,NaN,,,,0 / 0,3018,2014-12-14 04:23:07:062
-0.8336,-12.1014,-3.7658,-1.4213,-9.3803,2.4818,0.5878,-2.7211,-6.2476,2.595,0.8955,1.9572,64.0,-87.0,14.7,37.0,36.76,73.04,29.8,,56.766,,,,NaN,,,,0 / 0,3063,2014-12-14 04:23:07:107
2.5399,-8.4435,-0.6669,-2.004,-9.1134,3.0167,4.5439,0.6699,-3.6836,2.2932,-0.27,1.4221,64.0,-81.8,16.5,28.7,36.76,73.04,29.8,,56.766,,,,NaN,,,,0 / 0,3112,2014-12-14 04:23:07:156
2.334,-7.355,-1.3043,-1.951,-9.0418,3.2573,4.285,1.6868,-4.5616,2.0464,-0.1906,1.3708,592.0,-81.4,16.5,27.3,39.99,67.22,30.92,,56.766,,,,NaN,,,,0 / 0,3163,2014-12-14 04:23:07:207
2.2948,-5.5506,-1.3239,-1.9046,-8.9794,3.4515,4.4249,3.4092,-4.6283,1.3024,0.3299,1.135,592.0,-79.2,16.9,21.9,44.57,66.3,28.89,,56.766,,,,NaN,,,,0 / 0,3213,2014-12-14 04:23:07:257
1.422,-7.963,1.9908,-1.3288,-9.1417,3.2915,3.1565,0.8158,-0.8518,0.7672,0.4081,0.8259,992.0,-78.7,17.3,20.4,44.57,66.3,28.89,,56.49,,,,NaN,,,,0 / 0,3262,2014-12-14 04:23:07:306
1.8633,-10.7579,5.325,-1.0508,-9.2541,3.0705,2.9141,-1.5038,2.2545,-0.3848,1.7593,0.6439,992.0,-76.6,19.5,21.4,50.56,68.78,21.98,,56.49,,,,NaN,,,,0 / 0,3312,2014-12-14 04:23:07:356
2.03,-12.0524,4.3934,-0.66,-9.1606,3.4378,2.69,-2.8918,0.9556,0.6011,0.0428,0.303,992.0,-76.6,20.8,22.4,60.01,69.09,10.87,,56.49,,,,NaN,,,,0 / 0,3363,2014-12-14 04:23:07:407
4.2365,-18.1227,-0.4315,-0.1174,-9.3146,3.065,4.3539,-8.8081,-3.4965,0.0892,2.0207,0.2602,460.0,-76.6,23.4,23.9,66.68,71.77,2.19,,56.49,,,,NaN,,,,0 / 0,3412,2014-12-14 04:23:07:456
4.2365,-18.1227,-0.4315,-0.1174,-9.3146,3.065,4.3539,-8.8081,-3.4965,0.0892,2.0207,0.2602,460.0,-76.6,23.4,23.9,66.68,71.77,2.19,,56.49,,,,NaN,,,,0 / 0,3462,2014-12-14 04:23:07:506
-0.304,-4.9131,-4.8543,-0.6589,-9.5598,2.0846,0.3549,4.6467,-6.9389,-0.193,2.9444,1.1887,460.0,-73.1,25.2,25.8,50.35,77.12,17.54,,56.49,,,,NaN,,,,0 / 0,3513,2014-12-14 04:23:07:557
0.304,-4.3443,-3.3048,-0.8178,-9.6062,1.7953,1.1219,5.2618,-5.1001,-0.2224,2.5681,0.9114,460.0,-72.2,25.2,25.8,43.62,78.39,24.49,,56.49,,,,NaN,,,,0 / 0,3570,2014-12-14 04:23:07:614
0.304,-4.3443,-3.3048,-0.8178,-9.6062,1.7953,1.1219,5.2618,-5.1001,-0.2224,2.5681,0.9114,460.0,-72.2,25.2,25.8,43.62,78.39,24.49,,56.49,,,,NaN,,,,0 / 0,3613,2014-12-14 04:23:07:657
-1.9417,-9.179,-4.5797,-0.9064,-9.7191,0.9418,-1.0353,0.5401,-5.5215,-0.7062,1.1362,0.2578,460.0,-72.2,26.9,28.7,23.29,82.34,43.9,,56.49,,,,NaN,,,,0 / 0,3664,2014-12-14 04:23:07:708
-2.4124,-11.4247,-1.824,-1.1473,-9.7386,0.1191,-1.2652,-1.6862,-1.9431,-0.3384,1.5797,0.5315,460.0,-71.4,27.3,31.2,23.29,82.34,43.9,,56.49,,,,NaN,,,,0 / 0,3713,2014-12-14 04:23:07:757
1.2945,-8.9731,-1.5495,-1.4521,-9.6863,-0.4868,2.7465,0.7132,-1.0627,-0.2272,1.5369,0.6072,460.0,-70.0,28.6,33.6,317.48,81.02,108.53,,56.49,,,,NaN,,,,0 / 0,3763,2014-12-14 04:23:07:807
-0.3825,-9.787,-1.471,-1.3061,-9.67,-0.9778,0.9236,-0.1171,-0.4932,0.0391,1.8888,0.6439,211.0,-69.2,29.1,38.0,317.48,81.02,108.53,,56.49,,,,NaN,,,,0 / 0,3813,2014-12-14 04:23:07:857
1.0787,-9.4732,-2.4909,-0.981,-9.6221,-1.6194,2.0597,0.1489,-0.8715,0.0709,2.0073,0.3335,170.0,-69.2,29.9,39.5,283.74,79.7,139.74,,56.49,,,,NaN,,,,0 / 0,3863,2014-12-14 04:23:07:907
0.2452,-10.9834,-2.1771,-0.981,-9.6221,-1.6194,2.0597,0.1489,-0.8715,0.0709,2.0073,0.3335,170.0,-74.0,29.9,41.9,275.48,78.87,148.79,,56.49,,,,NaN,,,,0 / 0,3912,2014-12-14 04:23:07:956
-0.2354,-10.9933,-2.2457,-0.2948,-9.6372,-1.7913,-0.1937,-1.4659,-0.3346,0.5363,1.8937,0.1527,170.0,-74.4,29.9,41.9,275.48,78.87,148.79,,58.235,,,,NaN,,,,0 / 0,3963,2014-12-14 04:23:08:007
-0.0785,-13.6607,1.824,-0.2391,-9.798,-0.3361,0.1606,-3.8627,2.1601,0.9432,1.5821,0.1466,170.0,-84.4,31.7,36.0,254.94,79.33,170.65,,58.235,,,,NaN,,,,0 / 0,4012,2014-12-14 04:23:08:056
0.657,-13.0723,3.8344,-0.2913,-9.7995,0.2338,1.0261,-3.0733,2.5108,2.5815,1.1692,0.5095,69.0,-86.1,31.7,32.6,17.54,87.82,51.25,,58.235,,,,NaN,,,,0 / 0,4062,2014-12-14 04:23:08:106
0.3727,-13.1311,-5.3152,-1.0167,-9.4057,2.5824,0.242,-0.8594,-2.0281,2.799,0.1344,1.7006,69.0,-86.6,29.5,19.9,17.54,87.82,51.25,,58.235,,,,NaN,,,,0 / 0,4112,2014-12-14 04:23:08:156
2.3438,-9.6694,-2.2065,-1.694,-9.1965,2.9538,4.2617,0.5677,-5.4605,2.9138,0.1038,1.7275,69.0,-86.1,27.3,11.7,51.5,72.23,27.54,,58.235,,,,NaN,,,,0 / 0,4162,2014-12-14 04:23:08:206
2.2457,-8.1787,-2.0986,-1.6561,-9.0633,3.3591,3.9018,0.8846,-5.4577,2.3115,-0.3555,1.6432,69.0,-87.4,22.6,1.4,59.79,67.55,26.24,,58.235,,,,NaN,,,,0 / 0,4212,2014-12-14 04:23:08:256
1.5102,-7.0216,-2.334,-1.702,-8.9692,3.5815,3.2122,1.9476,-5.9155,1.6909,-0.4545,1.5589,69.0,-89.2,20.4,-4.0,64.18,66.15,25.42,,58.235,,,,NaN,,,,0 / 0,4262,2014-12-14 04:23:08:306
1.7652,-6.4822,-1.3729,-1.5882,-9.0867,3.3286,3.3534,2.6045,-4.7015,0.865,-0.2981,1.1301,69.0,-92.7,18.6,-6.9,64.18,66.15,25.42,,58.235,,,,NaN,,,,0 / 0,4313,2014-12-14 04:23:08:357
1.8731,-7.3158,0.5099,-1.4212,-9.2161,3.0354,3.2942,1.9004,-2.5255,0.1588,0.5119,1.1912,69.0,-94.4,19.1,-5.9,66.1,70.02,25.09,,55.535,,,,NaN,,,,0 / 0,4363,2014-12-14 04:23:08:407
2.128,-8.9241,2.4713,-1.2667,-9.3091,2.8118,3.3947,0.3851,-0.3405,-0.1943,0.9407,1.1741,137.0,-94.8,21.3,-3.5,66.1,70.02,25.09,,55.535,,,,NaN,,,,0 / 0,4412,2014-12-14 04:23:08:456
1.8044,-9.3261,2.5988,-1.1931,-9.323,2.7979,2.9975,-0.0031,-0.1991,-0.2236,0.788,1.1203,137.0,-94.4,21.3,-3.5,66.04,71.93,23.09,,55.535,,,,NaN,,,,0 / 0,4462,2014-12-14 04:23:08:506
0.6374,-13.5332,3.9913,-0.8659,-9.3211,2.922,1.5033,-4.2121,1.0693,0.4569,-0.0709,0.733,137.0,-97.0,23.0,-1.5,66.04,71.93,23.09,,55.535,,,,NaN,,,,0 / 0,4513,2014-12-14 04:23:08:557
3.1185,-7.5511,3.6187,-0.6501,-9.2144,3.2927,3.7686,1.6633,0.3259,0.5791,0.0977,0.6866,137.0,-97.9,23.0,-1.0,71.62,71.63,15.66,,55.535,,,,NaN,,,,0 / 0,4562,2014-12-14 04:23:08:606
1.9908,-16.3085,-1.9417,-0.2557,-9.2342,3.2915,2.2464,-7.0742,-5.2332,-0.2566,1.0739,0.0293,137.0,-102.2,23.9,0.9,80.04,69.95,5.74,,55.535,,,,NaN,,,,0 / 0,4612,2014-12-14 04:23:08:656
3.6579,-7.9238,-0.8238,-0.5789,-9.7037,1.2936,2.2464,-7.0742,-5.2332,-0.2566,1.0739,0.0293,176.0,-102.2,23.9,0.9,80.04,69.95,5.74,,55.535,,,,NaN,,,,0 / 0,4662,2014-12-14 04:23:08:706
1.3239,-3.6579,-1.0689,-0.3823,-9.7393,1.0821,1.7062,6.0814,-2.151,-0.1454,1.6225,0.0599,176.0,-100.5,26.9,5.3,66.16,83.28,19.46,,55.535,,,,NaN,,,,0 / 0,4712,2014-12-14 04:23:08:756
-0.9218,-10.1597,-1.7848,-1.4766,-9.6737,-0.6395,0.5548,-0.486,-1.1453,0.0452,2.5461,1.0079,176.0,-97.9,29.5,10.2,331.79,80.56,113.42,,57.543,,,,NaN,,,,0 / 0,4763,2014-12-14 04:23:08:807
1.1572,-9.1104,-1.9907,-1.3238,-9.6836,-0.803,2.481,0.5733,-1.1877,0.077,1.4856,0.6377,176.0,-97.4,30.4,11.7,323.04,80.92,121.24,,57.543,,,,NaN,,,,0 / 0,4812,2014-12-14 04:23:08:856
0.1569,-9.4046,-3.1479,-1.1332,-9.6644,-1.2187,1.2901,0.2598,-1.9293,0.0281,2.5998,0.6133,208.0,-96.6,31.7,13.6,306.87,80.23,137.08,,57.543,,,,NaN,,,,0 / 0,4863,2014-12-14 04:23:08:907
0.1569,-9.6792,-3.1872,-1.1024,-9.6543,-1.3225,1.2593,-0.0248,-1.8647,0.0513,2.496,0.5889,208.0,-96.1,31.3,14.6,306.87,80.23,137.08,,57.543,,,,NaN,,,,0 / 0,4913,2014-12-14 04:23:08:957
-0.2746,-10.1107,-3.1381,-0.8085,-9.5647,-2.0085,0.534,-0.546,-1.1296,-0.204,1.868,0.3445,208.0,-96.1,31.7,17.5,285.05,77.25,158.07,,57.543,,,,NaN,,,,0 / 0,4962,2014-12-14 04:23:09:006
-0.0883,-10.7579,-1.0885,-0.4298,-9.5387,-2.2358,0.3416,-1.2192,1.1473,0.0684,2.1893,0.2602,208.0,-97.0,33.0,20.9,273.12,76.58,169.12,,57.543,,,,NaN,,,,0 / 0,5100,2014-12-14 04:23:09:144
-0.0883,-10.7579,-1.0885,-0.4298,-9.5387,-2.2358,0.3416,-1.2192,1.1473,0.0684,2.1893,0.2602,208.0,-97.0,33.0,20.9,273.12,76.58,169.12,,57.543,,,,NaN,,,,0 / 0,5105,2014-12-14 04:23:09:149
-0.0883,-10.7579,-1.0885,-0.4298,-9.5387,-2.2358,0.3416,-1.2192,1.1473,0.0684,2.1893,0.2602,208.0,-97.0,33.0,20.9,273.12,76.58,169.12,,57.543,,,,NaN,,,,0 / 0,5112,2014-12-14 04:23:09:156
-0.2059,-10.552,0.0196,-0.265,-9.6555,-1.6947,0.059,-0.8965,1.7143,1.0336,1.9071,0.2346,1189.0,-98.7,32.1,21.9,269.53,78.48,171.66,,57.543,,,,NaN,,,,0 / 0,5163,2014-12-14 04:23:09:207
1.3729,-11.6111,1.7358,-0.1338,-9.7895,-0.5636,0.2515,-5.7638,2.1327,2.3592,1.9157,0.1869,1189.0,-99.6,31.3,18.5,273.63,86.61,166.64,,59.078,,,,NaN,,,,0 / 0,5212,2014-12-14 04:23:09:256
1.7848,-11.2678,1.726,-0.415,-9.7194,1.2378,2.1998,-1.5485,0.4882,3.4954,1.8839,1.1826,1189.0,-98.3,27.8,10.2,63.88,82.35,18.53,,59.078,,,,NaN,,,,0 / 0,5263,2014-12-14 04:23:09:307
2.2261,-11.2188,1.0297,-0.5056,-9.6672,1.5685,2.7317,-1.5516,-0.5388,3.3011,1.1118,1.4416,1189.0,-97.9,26.9,8.7,63.88,82.35,18.53,,59.078,,,,NaN,,,,0 / 0,5312,2014-12-14 04:23:09:356
1.5789,-12.1406,-5.9919,-0.9998,-9.4624,2.3737,2.5787,-2.6783,-8.3655,2.6927,1.0605,2.0721,1189.0,-94.8,23.9,0.4,64.43,74.77,22.84,,59.078,,,,NaN,,,,0 / 0,5362,2014-12-14 04:23:09:406
2.1967,-8.1493,-1.118,-1.6959,-9.1657,3.047,3.8926,1.0164,-4.165,2.3543,-0.2456,1.7642,1189.0,-92.7,17.8,-7.9,63.67,69.17,29.1,,59.078,,,,NaN,,,,0 / 0,5413,2014-12-14 04:23:09:457
2.1084,-6.6293,-2.5791,-1.7872,-9.0382,3.3596,3.8956,2.4089,-5.9388,1.7092,-0.3934,1.5113,1189.0,-93.5,14.7,-10.8,63.67,69.17,29.1,,59.078,,,,NaN,,,,0 / 0,5462,2014-12-14 04:23:09:506
1.9711,-6.3351,-2.1084,-1.7574,-9.0518,3.3387,3.7285,2.7167,-5.4471,1.4991,-0.573,1.2889,243.0,-94.4,13.9,-12.2,67.93,67.37,27.76,,59.078,,,,NaN,,,,0 / 0,5512,2014-12-14 04:23:09:556
2.1182,-7.2961,-0.049,-1.4812,-9.2012,3.0519,3.5995,1.9051,-3.1009,0.6304,0.3555,1.0409,243.0,-97.4,13.4,-13.2,70.31,69.76,25.89,,59.078,,,,NaN,,,,0 / 0,5562,2014-12-14 04:23:09:606
1.9613,-7.7178,0.6669,-1.4405,-9.2277,2.9909,3.4018,1.5098,-2.3241,0.4581,0.5034,1.0898,243.0,-97.9,13.9,-12.7,70.31,69.76,25.89,,59.078,,,,NaN,,,,0 / 0,5612,2014-12-14 04:23:09:656
1.52,-12.376,3.7854,-1.2713,-9.3166,2.7848,2.9384,0.0297,1.7066,-0.3189,1.2181,0.8906,243.0,-97.4,16.0,-10.3,69.46,71.81,24.54,,59.078,,,,NaN,,,,0 / 0,5663,2014-12-14 04:23:09:707
1.5004,-12.2583,3.6775,-0.8519,-9.2594,3.1159,2.3524,-2.999,0.5616,0.3506,0.5815,0.4313,243.0,-99.2,18.6,-8.3,76.39,70.77,15.29,,59.912,,,,NaN,,,,0 / 0,5712,2014-12-14 04:23:09:756
2.3928,-10.3068,3.6775,-0.7492,-9.2537,3.1587,3.142,-1.053,0.5188,0.5009,1.0702,0.3054,243.0,-100.5,18.6,-7.9,76.39,70.77,15.29,,59.912,,,,NaN,,,,0 / 0,5763,2014-12-14 04:23:09:807
3.501,-13.8568,3.6971,-0.4574,-9.2129,3.3291,3.9584,-4.6439,0.368,0.0965,1.631,-0.1796,243.0,-100.9,18.6,-8.8,83.77,69.96,7.82,,59.912,,,,NaN,,,,0 / 0,5813,2014-12-14 04:23:09:857
0.4217,-3.9619,-2.4615,-0.6435,-9.7527,0.8006,-0.2293,5.4378,-4.1447,0.0709,2.397,0.3506,60.0,-97.0,22.1,-4.9,88.11,72.68,2.97,,59.912,,,,NaN,,,,0 / 0,5863,2014-12-14 04:23:09:907
-2.2948,-5.58,-3.4912,-0.6481,-9.7625,0.6669,-1.6467,4.1825,-4.158,-0.3751,1.8314,0.2944,60.0,-96.1,22.6,-4.4,47.37,84.56,44.18,,59.912,,,,NaN,,,,0 / 0,5913,2014-12-14 04:23:09:957
1.9417,-8.826,-1.2847,-1.9194,-9.5983,-0.599,3.8611,0.7723,-0.6857,0.1185,2.4667,1.1118,60.0,-93.5,24.3,-2.0,344.4,78.17,107.33,,59.912,,,,NaN,,,,0 / 0,5962,2014-12-14 04:23:10:006
3.1774,-8.3062,-0.8532,-1.8797,-9.5966,-0.7363,5.0571,1.2904,-0.1169,-0.0428,2.1185,0.8528,60.0,-92.7,24.7,-1.0,344.4,78.17,107.33,,59.912,,,,NaN,,,,0 / 0,6012,2014-12-14 04:23:10:056
-1.0199,-9.5517,-3.0597,-1.2963,-9.627,-1.3458,0.149,0.0067,-1.5178,-0.0892,2.419,0.5168,60.0,-90.5,26.5,0.9,337.55,78.48,113.85,,59.912,,,,NaN,,,,0 / 0,6063,2014-12-14 04:23:10:107
-0.912,-9.8851,-2.4222,-1.2942,-9.5991,-1.5337,0.3822,-0.286,-0.8886,-0.0892,2.419,0.5168,60.0,-90.5,26.5,0.9,337.55,78.48,113.85,,59.912,,,,NaN,,,,0 / 0,6113,2014-12-14 04:23:10:157
-0.1667,-9.1692,-2.5791,-1.0569,-9.5384,-2.0182,1.2433,0.1044,-0.3256,-0.1662,2.2211,0.3457,60.0,-90.0,27.8,4.8,309.95,77.91,140.94,,59.912,,,,NaN,,,,0 / 0,6162,2014-12-14 04:23:10:206
0.1667,-9.4634,-2.4124,-1.0569,-9.5384,-2.0182,1.2433,0.1044,-0.3256,-0.1662,2.2211,0.3457,60.0,-90.0,27.8,4.8,309.95,77.91,140.94,,59.912,,,,NaN,,,,0 / 0,6212,2014-12-14 04:23:10:256
-0.3236,-10.6206,-2.7753,-0.726,-9.5089,-2.2858,0.4024,-1.1117,-0.4895,0.1283,2.0745,0.2602,60.0,-90.5,29.1,8.7,292.57,76.27,156.52,,61.198,,,,NaN,,,,0 / 0,6262,2014-12-14 04:23:10:306
-0.0098,-10.905,-2.0104,-0.4011,-9.531,-2.2735,0.0773,-1.3928,0.3165,0.2236,1.9645,0.1918,60.0,-90.9,29.1,9.7,277.87,76.38,170.0,,61.198,,,,NaN,,,,0 / 0,6312,2014-12-14 04:23:10:356
-0.5198,-11.3169,-1.4612,-0.2263,-9.5791,-2.0879,0.0518,-1.9467,1.5643,0.463,2.2541,0.2737,60.0,-91.4,28.6,10.7,277.87,76.38,170.0,,61.198,,,,NaN,,,,0 / 0,6362,2014-12-14 04:23:10:406
-0.5198,-11.3169,-1.4612,-0.2263,-9.5791,-2.0879,0.0518,-1.9467,1.5643,0.463,2.2541,0.2737,47.0,-91.4,28.6,10.7,277.87,76.38,170.0,,61.198,,,,NaN,,,,0 / 0,6413,2014-12-14 04:23:10:457
-0.1569,-11.2776,0.8826,-0.1676,-9.6644,-1.6556,0.0106,-1.6132,2.5382,0.9114,2.171,0.3018,47.0,-91.4,27.3,9.7,272.38,80.23,174.22,,61.198,,,,NaN,,,,0 / 0,6463,2014-12-14 04:23:10:507
1.7064,-12.2191,-1.52,-0.7936,-9.5328,2.1601,2.4999,-2.6863,-3.6801,3.6151,0.336,1.5467,47.0,-92.2,16.0,-2.5,66.13,80.71,22.38,,61.198,,,,NaN,,,,0 / 0,6512,2014-12-14 04:23:10:556
-0.1667,-11.3953,-5.0406,-1.3456,-9.3328,2.6941,1.6398,-2.5528,-9.4019,2.8491,0.5742,1.9621,47.0,-93.5,8.2,-7.4,67.34,72.12,26.54,,61.198,,,,NaN,,,,0 / 0,6563,2014-12-14 04:23:10:607
1.0395,-10.5421,-2.4026,-1.8523,-9.2633,2.6326,2.8918,-1.2788,-5.0352,2.7782,0.2712,1.6884,47.0,-93.5,5.6,-8.3,67.34,72.12,26.54,,61.198,,,,NaN,,,,0 / 0,6613,2014-12-14 04:23:10:657
1.775,-7.3256,-1.0493,-2.0829,-9.0049,3.2777,4.1129,1.0812,-3.8857,2.2333,-0.4276,1.5223,47.0,-96.6,1.3,-9.8,65.14,66.67,32.43,,61.198,,,,NaN,,,,0 / 0,6662,2014-12-14 04:23:10:706
0.9807,-5.7271,-1.8338,-2.3485,-8.7691,3.7092,3.3292,3.042,-5.543,1.8619,-0.7257,1.4306,47.0,-100.5,-0.5,-9.3,65.14,66.67,32.43,,61.198,,,,NaN,,,,0 / 0,6712,2014-12-14 04:23:10:756
1.6769,-6.0017,-2.1575,-2.4751,-8.7585,3.6515,4.1521,2.7568,-5.8089,1.3073,-0.6267,1.2535,47.0,-104.4,-1.4,-7.9,63.2,63.27,34.13,,59.53,,,,NaN,,,,0 / 0,6763,2014-12-14 04:23:10:807
2.3634,-7.6002,-1.5396,-2.4711,-8.8332,3.4697,4.2649,0.0716,-3.4955,0.7025,0.2908,1.3427,47.0,-107.4,-1.4,-5.4,63.2,63.27,34.13,,59.53,,,,NaN,,,,0 / 0,6812,2014-12-14 04:23:10:856
1.0689,-8.2964,1.7162,-2.3763,-9.0131,3.0475,3.4452,0.7167,-1.3314,0.4606,0.7831,1.3219,47.0,-107.9,-0.5,-4.9,56.95,66.79,37.94,,59.53,,,,NaN,,,,0 / 0,6862,2014-12-14 04:23:10:906
1.9123,-10.1107,3.4225,-2.2335,-9.1331,2.7872,4.2779,0.0355,0.0809,-0.1051,0.2993,0.7782,67.0,-109.2,3.9,-0.5,52.64,68.64,38.71,,59.53,,,,NaN,,,,0 / 0,6912,2014-12-14 04:23:10:956
1.7652,-10.6402,4.5797,-2.1291,-9.1541,2.7999,3.9532,-1.4273,0.9463,0.0037,0.0391,0.65,67.0,-109.6,4.3,0.9,52.64,68.64,38.71,,59.53,,,,NaN,,,,0 / 0,6962,2014-12-14 04:23:11:006
2.5497,-9.1692,4.462,-1.5487,-9.1596,3.1422,4.0984,-0.0096,1.3198,0.5363,1.2828,0.4154,67.0,-112.2,5.2,4.8,62.01,69.07,26.24,,59.53,,,,NaN,,,,0 / 0,7012,2014-12-14 04:23:11:056
4.4718,-15.2297,-5.7859,-0.6084,-9.4279,2.6297,5.0802,-5.8018,-8.4156,-0.4068,1.3916,0.4569,67.0,-114.0,7.8,8.7,72.05,74.02,13.03,,59.53,,,,NaN,,,,0 / 0,7063,2014-12-14 04:23:11:107
-0.0588,-7.0706,-7.8355,-0.5983,-9.6028,1.8968,0.5395,2.5322,-9.7323,-0.9273,3.4233,1.0397,37.0,-113.5,9.1,9.7,67.01,78.3,17.51,,59.53,,,,NaN,,,,0 / 0,7112,2014-12-14 04:23:11:156
-0.2844,-1.8142,-4.0109,-1.1513,-9.7373,0.1749,-0.5886,6.0567,-2.6769,-0.4337,2.9224,0.799,37.0,-113.5,9.1,9.7,67.01,78.3,17.51,,59.53,,,,NaN,,,,0 / 0,7162,2014-12-14 04:23:11:206
-1.8927,-12.0033,-0.8434,-1.8955,-9.5538,-1.1411,0.0029,-2.4495,0.2977,0.2309,1.8082,0.9774,37.0,-111.3,13.9,14.6,325.13,80.43,118.45,,63.109,,,,NaN,,,,0 / 0,7212,2014-12-14 04:23:11:256
2.0006,-8.8848,-0.657,-1.7445,-9.575,-1.2029,3.745,0.6902,0.5459,0.1051,1.6457,0.6133,37.0,-110.0,16.0,16.5,317.17,77.52,124.59,,63.109,,,,NaN,,,,0 / 0,7265,2014-12-14 04:23:11:309
2.0006,-8.8848,-0.657,-1.7445,-9.575,-1.2029,3.745,0.6902,0.5459,0.1051,1.6457,0.6133,37.0,-110.0,16.0,16.5,317.17,77.52,124.59,,63.109,,,,NaN,,,,0 / 0,7313,2014-12-14 04:23:11:357
-0.2746,-9.6203,-1.7946,-1.6679,-9.5519,-1.466,1.3933,-0.0684,-0.3286,0.2395,2.0195,0.7685,21.0,-109.2,17.3,17.0,310.62,76.91,131.31,,63.109,,,,NaN,,,,0 / 0,7363,2014-12-14 04:23:11:407
-0.0686,-9.4144,-2.1967,-1.4867,-9.5637,-1.5798,1.4181,0.1493,-0.6169,0.3653,1.6628,0.5815,21.0,-109.2,19.1,19.5,310.62,76.91,131.31,,63.109,,,,NaN,,,,0 / 0,7413,2014-12-14 04:23:11:457
0.5786,-9.2084,-2.4517,-1.4063,-9.5627,-1.6577,1.9849,0.3542,-0.794,0.2834,1.7776,0.5461,21.0,-109.2,19.9,20.4,301.26,77.19,139.69,,63.109,,,,NaN,,,,0 / 0,7463,2014-12-14 04:23:11:507
-0.4413,-10.1695,-2.7459,-0.9167,-9.5642,-1.9635,0.4754,-0.6053,-0.7823,0.292,2.1979,0.4435,21.0,-109.6,21.3,21.4,286.16,77.23,154.97,,63.109,,,,NaN,,,,0 / 0,7513,2014-12-14 04:23:11:557
-0.4217,-9.9538,-3.0401,-0.8591,-9.5665,-1.9786,0.4374,-0.3873,-1.0615,0.4129,1.9303,0.4508,21.0,-109.2,21.7,21.9,286.16,77.23,154.97,,63.109,,,,NaN,,,,0 / 0,7562,2014-12-14 04:23:11:606
-0.3923,-10.0714,-2.9714,-0.8135,-9.5659,-2.0004,0.4212,-0.5055,-0.971,0.4288,1.9829,0.3335,17.0,-109.6,22.1,21.9,282.97,77.28,157.87,,63.109,,,,NaN,,,,0 / 0,7614,2014-12-14 04:23:11:658
0.2354,-10.2283,-1.9123,-0.6036,-9.5869,-1.9743,0.839,-0.6415,0.062,0.4985,2.2077,0.2566,17.0,-110.5,23.9,22.4,278.12,77.85,163.0,,63.109,,,,NaN,,,,0 / 0,7663,2014-12-14 04:23:11:707
-0.255,-10.1891,-0.6178,-0.3729,-9.6374,-1.7751,0.1179,-0.5517,1.1573,0.6231,2.3946,0.1063,17.0,-110.9,24.3,22.9,278.12,77.85,163.0,,54.197,,,,NaN,,,,0 / 0,7713,2014-12-14 04:23:11:757
-0.1177,-15.1317,-1.6966,-0.3239,-9.7272,-1.203,0.2062,-5.4045,-0.4936,1.7019,2.1466,0.4374,17.0,-110.9,24.7,20.4,276.42,82.7,164.93,,54.197,,,,NaN,,,,0 / 0,7762,2014-12-14 04:23:11:806
3.0989,-13.0428,0.0981,-0.5387,-9.7912,-0.1104,3.6376,-3.2516,0.2085,3.1081,0.8552,0.992,17.0,-110.0,24.7,15.6,276.42,82.7,164.93,,54.197,,,,NaN,,,,0 / 0,7812,2014-12-14 04:23:11:856
3.1675,-11.768,-0.9022,-0.5253,-9.7894,0.2495,3.6929,-1.9786,-1.1517,3.1851,0.7391,0.9077,17.0,-110.0,24.3,14.6,17.45,86.6,64.59,,54.197,,,,NaN,,,,0 / 0,7868,2014-12-14 04:23:11:912
3.1675,-11.768,-0.9022,-0.5253,-9.7894,0.2495,3.6929,-1.9786,-1.1517,3.1851,0.7391,0.9077,17.0,-110.0,24.3,14.6,17.45,86.6,64.59,,54.197,,,,NaN,,,,0 / 0,7912,2014-12-14 04:23:11:956
2.8439,-8.9535,-4.4522,-0.4523,-9.7168,1.2447,3.2962,0.7633,-5.6969,2.5791,0.3604,0.9529,17.0,-109.6,23.0,8.2,64.61,82.24,19.97,,54.197,,,,NaN,,,,0 / 0,7963,2014-12-14 04:23:12:007
2.7655,-9.1202,-3.7069,-0.4934,-9.6387,1.7386,2.9451,0.9402,-5.5044,1.675,0.4606,1.4099,17.0,-107.0,19.5,-2.0,73.57,79.38,15.84,,54.197,,,,NaN,,,,0 / 0,8013,2014-12-14 04:23:12:057
2.5007,-7.7669,-3.1283,-0.4934,-9.6387,1.7386,2.9451,0.9402,-5.5044,1.675,0.4606,1.4099,17.0,-107.0,19.5,-2.0,73.57,79.38,15.84,,54.197,,,,NaN,,,,0 / 0,8063,2014-12-14 04:23:12:107
3.1774,-7.6786,-1.1376,-0.5282,-9.6868,1.434,3.7055,2.0082,-2.5716,0.8882,1.3402,0.7734,17.0,-105.3,19.5,-4.0,70.56,81.03,20.22,,54.197,,,,NaN,,,,0 / 0,8113,2014-12-14 04:23:12:157
1.471,-7.9532,-0.1765,-0.142,-9.7029,1.4156,1.613,1.7497,-1.5921,0.5473,0.1454,0.6854,17.0,-106.6,19.5,-3.5,84.38,81.66,5.73,,54.197,,,,NaN,,,,0 / 0,8163,2014-12-14 04:23:12:207
1.8731,-8.5612,-0.5982,-0.3424,-9.7376,1.1101,2.2154,1.1764,-1.7083,-0.0831,1.5406,0.931,17.0,-107.4,22.1,0.4,84.38,81.66,5.73,,54.197,,,,NaN,,,,0 / 0,8213,2014-12-14 04:23:12:257
1.9025,-10.7971,0.2942,-0.3197,-9.7597,0.9031,2.2222,-1.0374,-0.6089,-0.0538,1.5821,0.9065,17.0,-106.6,22.1,0.9,69.31,83.54,19.03,,55.93,,,,NaN,,,,0 / 0,8262,2014-12-14 04:23:12:306
0.863,-13.1703,1.0787,-0.2844,-9.7466,1.0453,1.1474,-3.4237,0.0334,1.2156,0.3653,0.7685,17.0,-108.3,23.0,1.9,71.89,84.17,16.47,,55.93,,,,NaN,,,,0 / 0,8312,2014-12-14 04:23:12:356
1.2651,-8.7279,-0.863,-0.5002,-9.7139,1.2493,1.7653,0.986,-2.1123,1.2156,0.3653,0.7685,17.0,-108.3,23.0,1.9,71.89,84.17,16.47,,55.93,,,,NaN,,,,0 / 0,8363,2014-12-14 04:23:12:407
0.2157,-9.9636,0.2746,-0.5596,-9.7177,1.1932,1.8737,0.8034,-0.242,0.6353,0.6463,0.8723,17.0,-108.3,23.4,1.9,62.56,82.28,25.13,,55.93,,,,NaN,,,,0 / 0,8412,2014-12-14 04:23:12:456
1.3631,-10.6108,0.3138,-0.8662,-9.6619,1.4382,2.2293,-0.9489,-1.1244,0.9175,0.8357,0.8259,17.0,-108.7,23.0,2.9,56.03,80.14,31.06,,55.93,,,,NaN,,,,0 / 0,8462,2014-12-14 04:23:12:506
0.5001,-8.8848,0.0785,-0.9625,-9.6161,1.6658,1.4626,0.7313,-1.5874,0.8112,1.2792,0.876,17.0,-108.7,23.0,3.4,56.91,78.69,30.02,,55.93,,,,NaN,,,,0 / 0,8513,2014-12-14 04:23:12:557
0.0588,-9.8753,0.6178,-1.2031,-9.589,1.6656,1.2619,-0.2863,-1.0478,0.7074,1.5797,0.8992,17.0,-107.9,23.4,2.9,56.91,78.69,30.02,,55.93,,,,NaN,,,,0 / 0,8562,2014-12-14 04:23:12:606
-1.0003,-10.042,0.5099,-1.5868,-9.5126,1.7787,0.5865,-0.5294,-1.2687,0.9407,1.2437,0.832,17.0,-107.4,23.9,3.4,50.04,77.66,36.91,,55.93,,,,NaN,,,,0 / 0,8613,2014-12-14 04:23:12:657
-0.7943,-9.7478,0.657,-1.7265,-9.4807,1.8181,0.9322,-0.2671,-1.1611,0.7685,1.2816,0.6793,17.0,-107.4,23.4,2.4,44.15,75.19,43.52,,55.93,,,,NaN,,,,0 / 0,8662,2014-12-14 04:23:12:706
0.0883,-9.9243,0.2844,-1.9495,-9.4278,1.8672,2.0378,-0.4965,-1.5828,0.7685,1.2816,0.6793,17.0,-107.0,23.4,1.9,44.15,75.19,43.52,,55.93,,,,NaN,,,,0 / 0,8713,2014-12-14 04:23:12:757
0.2059,-9.9636,0.3432,-1.9626,-9.4265,1.86,2.1686,-0.5371,-1.5167,0.7709,1.2914,0.672,17.0,-107.0,23.0,2.4,41.23,73.99,46.54,,55.93,,,,NaN,,,,0 / 0,8762,2014-12-14 04:23:12:806
0.0785,-9.8263,0.2746,-1.9808,-9.4369,1.7864,2.0592,-0.3893,-1.5118,0.6927,1.4734,0.661,17.0,-106.6,23.4,1.4,40.12,74.17,47.7,,46.654,,,,NaN,,,,0 / 0,8812,2014-12-14 04:23:12:856
0.0785,-9.8263,0.2746,-1.9808,-9.4369,1.7864,2.0592,-0.3893,-1.5118,0.6927,1.4734,0.661,17.0,-106.6,23.4,1.4,40.12,74.17,47.7,,46.654,,,,NaN,,,,0 / 0,8862,2014-12-14 04:23:12:906
-0.1079,-9.9047,0.2746,-2.1331,-9.4187,1.7052,2.0253,-0.486,-1.4307,0.7868,1.2889,0.6512,17.0,-105.7,23.9,2.9,36.92,74.04,50.36,,46.654,,,,NaN,,,,0 / 0,8913,2014-12-14 04:23:12:957
-0.0785,-9.9538,0.1471,-2.1467,-9.4166,1.6997,2.0683,-0.5371,-1.5526,0.7587,1.3134,0.6683,17.0,-105.7,23.9,2.9,35.7,73.79,51.63,,46.654,,,,NaN,,,,0 / 0,8962,2014-12-14 04:23:13:006
0.0588,-9.993,0.1275,-2.1557,-9.4184,1.6783,2.2145,-0.5745,-1.5508,0.7282,1.2584,0.672,17.0,-106.1,23.4,2.9,35.7,73.79,51.63,,46.654,,,,NaN,,,,0 / 0,9013,2014-12-14 04:23:13:057
-0.0588,-10.2087,0.1569,-2.1464,-9.4316,1.6148,2.0876,-0.7771,-1.4579,0.7819,1.1313,0.6194,17.0,-105.3,23.4,2.4,34.91,74.1,53.04,,46.654,,,,NaN,,,,0 / 0,9062,2014-12-14 04:23:13:106
0.2256,-10.0028,0.1569,-2.1367,-9.4336,1.6164,2.3623,-0.5692,-1.4595,0.8234,1.2486,0.6243,17.0,-105.7,23.4,2.4,35.09,74.14,52.89,,46.654,,,,NaN,,,,0 / 0,9112,2014-12-14 04:23:13:156
-0.1079,-9.9734,0.2648,-2.0954,-9.4482,1.5844,1.9875,-0.5251,-1.3196,0.7367,1.328,0.6671,17.0,-105.3,23.9,2.9,35.09,74.14,52.89,,46.654,,,,NaN,,,,0 / 0,9162,2014-12-14 04:23:13:206
-0.1079,-9.9734,0.2648,-2.0954,-9.4482,1.5844,1.9875,-0.5251,-1.3196,0.7367,1.328,0.6671,17.0,-105.3,23.9,2.9,35.09,74.14,52.89,,46.654,,,,NaN,,,,0 / 0,9212,2014-12-14 04:23:13:256