ACCELEROMETER X (m/s²),ACCELEROMETER Y (m/s²),ACCELEROMETER Z (m/s²),GRAVITY X (m/s²),GRAVITY Y (m/s²),GRAVITY Z (m/s²),LINEAR ACCELERATION X (m/s²),LINEAR ACCELERATION Y (m/s²),LINEAR ACCELERATION Z (m/s²),GYROSCOPE X (rad/s),GYROSCOPE Y (rad/s),GYROSCOPE Z (rad/s),LIGHT (lux),MAGNETIC FIELD X (μT),MAGNETIC FIELD Y (μT),MAGNETIC FIELD Z (μT),ORIENTATION X (°),ORIENTATION Y (°),ORIENTATION Z (°),PROXIMITY (i),SOUND LEVEL (dB),LOCATION Latitude : ,LOCATION Longitude : ,LOCATION Altitude ( m),LOCATION Altitude-google ( m),LOCATION Speed ( Kmh),LOCATION Accuracy ( m),LOCATION ORIENTATION (°),Satellites in range,Time since start in ms ,YYYY-MO-DD HH-MI-SS_SSS
0.2256,-10.0224,-0.049,0.4494,-9.7924,-0.2785,-0.2329,-0.23,0.2294,0.0195,-0.0415,-0.0122,212.0,-84.4,33.0,74.1,169.84,86.91,-121.77,,57.3,,,,NaN,,,,0 / 0,11,2014-12-14 04:27:15:764
0.2256,-9.993,-0.1079,0.4477,-9.7925,-0.2781,-0.2221,-0.2005,0.1703,0.0354,-0.022,0.0037,212.0,-84.4,33.4,73.6,170.31,86.92,-121.85,,57.3,,,,NaN,,,,0 / 0,61,2014-12-14 04:27:15:814
0.3432,-9.9243,-0.0785,0.4475,-9.7924,-0.2797,-0.1435,-0.1417,0.2307,0.0257,-0.0281,-0.0049,212.0,-84.8,33.0,74.1,170.31,86.92,-121.85,,40.085,,,,NaN,,,,0 / 0,111,2014-12-14 04:27:15:864
0.3334,-9.9832,-0.0392,0.4673,-9.7913,-0.2861,-0.1374,-0.2308,0.2563,0.0159,-0.0049,-0.0098,212.0,-84.8,33.4,73.6,170.58,86.83,-121.79,,40.085,,,,NaN,,,,0 / 0,160,2014-12-14 04:27:15:913
0.3825,-9.9439,-0.049,0.4715,-9.7912,-0.2846,-0.089,-0.1528,0.2356,0.0244,0.0061,-0.0012,212.0,-84.0,33.0,73.1,169.94,86.78,-121.12,,40.085,,,,NaN,,,,0 / 0,211,2014-12-14 04:27:15:964
0.3628,-9.9832,-0.0981,0.5059,-9.7887,-0.309,-0.2019,-0.0866,0.358,-0.0073,0.0147,-0.0159,212.0,-85.3,33.0,74.6,169.8,86.53,-121.42,,40.085,,,,NaN,,,,0 / 0,261,2014-12-14 04:27:16:014
0.1961,-9.9145,0.1863,0.5054,-9.789,-0.2993,-0.2896,-0.1843,0.4268,-0.0195,-0.011,-0.044,212.0,-84.4,33.0,74.6,169.8,86.53,-121.42,,40.085,,,,NaN,,,,0 / 0,310,2014-12-14 04:27:16:063
0.2746,-9.9341,0.049,0.5212,-9.7884,-0.2925,-0.2466,-0.1457,0.3415,-0.0391,0.0635,-0.0684,212.0,-84.8,33.0,75.1,167.64,86.51,-119.3,,40.085,,,,NaN,,,,0 / 0,360,2014-12-14 04:27:16:113
0.2256,-9.8361,0.1569,0.5395,-9.7872,-0.3006,-0.3139,-0.0489,0.4575,-0.1136,0.1637,-0.0684,212.0,-85.3,33.0,74.6,167.64,86.51,-119.3,,40.085,,,,NaN,,,,0 / 0,410,2014-12-14 04:27:16:163
-0.7159,-10.1205,0.0098,0.5212,-9.7876,-0.3189,-1.2371,-0.3329,0.3287,-0.1161,0.1417,-0.088,212.0,-85.3,33.0,74.6,169.83,86.43,-121.46,,40.085,,,,NaN,,,,0 / 0,461,2014-12-14 04:27:16:214
-0.7257,-10.091,-0.2059,0.4999,-9.7885,-0.3241,-1.2256,-0.3025,0.1181,-0.1466,0.1197,-0.1429,212.0,-85.7,33.0,74.6,169.83,86.43,-121.46,,40.085,,,,NaN,,,,0 / 0,513,2014-12-14 04:27:16:266
-0.049,-10.0714,0.049,0.4977,-9.7785,-0.5504,-0.5467,-0.2929,0.5995,-0.1466,0.1197,-0.1429,212.0,-86.6,32.1,75.6,186.91,85.66,-137.88,,40.085,,,,NaN,,,,0 / 0,560,2014-12-14 04:27:16:313
-0.2354,-10.0714,0.049,0.5195,-9.7759,-0.5757,-0.7548,-0.2955,0.6247,-0.3348,0.1319,-0.3067,212.0,-87.0,32.1,77.0,186.91,85.66,-137.88,,38.283,,,,NaN,,,,0 / 0,611,2014-12-14 04:27:16:364
-0.1079,-9.6694,-0.2942,0.5822,-9.7633,-0.7133,-0.69,0.094,0.4191,-0.3103,0.1148,-0.2981,212.0,-89.6,30.8,78.5,188.66,84.83,-140.02,,38.283,,,,NaN,,,,0 / 0,661,2014-12-14 04:27:16:414
0.3432,-9.9243,-0.0981,0.6671,-9.7449,-0.8728,-0.2695,-0.2717,1.0267,-0.3726,0.1148,-0.3115,212.0,-90.5,29.9,79.9,190.4,84.25,-141.72,,38.283,,,,NaN,,,,0 / 0,710,2014-12-14 04:27:16:463
0.3236,-10.1695,1.1572,0.8546,-9.7319,-0.8543,-0.531,-0.4376,2.0115,-0.2688,0.1246,-0.3348,212.0,-91.4,29.5,80.4,190.4,84.25,-141.72,,38.283,,,,NaN,,,,0 / 0,760,2014-12-14 04:27:16:513
-0.0196,-10.5716,1.9319,0.9011,-9.741,-0.6865,-0.9207,-0.8306,2.6184,-0.1112,0.0147,-0.3018,150.0,-92.2,29.1,80.4,184.13,82.92,-134.99,,38.283,,,,NaN,,,,0 / 0,811,2014-12-14 04:27:16:564
-0.8238,-12.8271,0.6767,0.765,-9.7762,0.1092,-1.5888,-3.0509,0.5675,0.8687,-0.4142,-0.1356,150.0,-91.4,29.5,77.5,130.33,85.48,-81.88,,38.283,,,,NaN,,,,0 / 0,861,2014-12-14 04:27:16:614
3.3735,-10.601,1.7456,0.5102,-9.7356,1.0618,2.8633,-0.8653,0.6838,1.7202,-0.6683,0.2321,150.0,-90.0,31.7,70.2,76.0,83.1,-25.66,,38.283,,,,NaN,,,,0 / 0,911,2014-12-14 04:27:16:664
2.9714,-8.1984,-1.2258,0.9136,-9.6442,1.5247,2.0578,1.4459,-2.7506,1.1411,-0.7062,0.2431,150.0,-88.3,33.0,64.8,81.47,79.56,-30.93,,38.283,,,,NaN,,,,0 / 0,960,2014-12-14 04:27:16:713
0.0294,-9.1104,-1.216,1.0825,-9.6341,1.4772,-1.0531,0.5237,-2.6933,0.6781,-0.0073,0.237,150.0,-87.4,33.0,62.4,81.47,79.56,-30.93,,38.283,,,,NaN,,,,0 / 0,1011,2014-12-14 04:27:16:764
0.7061,-8.2768,-0.0785,1.0598,-9.6452,1.4206,-1.1677,0.4956,-2.1267,0.573,-0.1161,0.2566,413.0,-87.0,33.0,61.4,88.44,79.59,-36.72,,38.283,,,,NaN,,,,0 / 0,1060,2014-12-14 04:27:16:813
1.0199,-8.1787,0.0883,0.9114,-9.6867,1.2276,0.1085,1.508,-1.1393,0.215,-0.5351,0.2077,413.0,-86.1,32.6,59.9,88.86,81.03,-36.59,,38.283,,,,NaN,,,,0 / 0,1111,2014-12-14 04:27:16:864
1.3337,-8.1395,0.255,0.9067,-9.6924,1.1853,0.427,1.5529,-0.9303,0.1393,-0.5669,0.1735,413.0,-86.6,32.1,60.4,88.86,81.03,-36.59,,53.288,,,,NaN,,,,0 / 0,1161,2014-12-14 04:27:16:914
2.7066,-8.9044,1.9025,1.1707,-9.6887,0.9639,1.5359,0.7843,0.9386,-0.2224,-0.4545,0.2101,413.0,-83.5,31.3,59.9,99.11,81.44,-46.95,,53.288,,,,NaN,,,,0 / 0,1210,2014-12-14 04:27:16:963
1.7064,-9.3654,2.9518,1.3487,-9.6542,1.0713,0.3577,0.2889,1.8805,-0.3054,-0.2407,0.3922,565.0,-81.8,31.3,59.5,104.31,80.42,-53.2,,53.288,,,,NaN,,,,0 / 0,1261,2014-12-14 04:27:17:014
1.7064,-9.3654,2.9518,1.3487,-9.6542,1.0713,0.3577,0.2889,1.8805,-0.3054,-0.2407,0.3922,565.0,-81.8,29.9,60.9,104.31,80.42,-53.2,,53.288,,,,NaN,,,,0 / 0,1310,2014-12-14 04:27:17:063
0.1863,-9.2673,2.3242,1.235,-9.6549,1.1951,-1.0486,0.3876,1.1291,-0.4081,-0.391,0.2199,565.0,-80.9,29.1,60.4,96.32,79.74,-46.35,,53.288,,,,NaN,,,,0 / 0,1360,2014-12-14 04:27:17:113
2.942,-13.0527,1.5789,1.2443,-9.6753,1.0052,1.6977,-3.3773,0.5737,-1.2718,1.0104,-0.5864,565.0,-81.4,26.5,63.4,100.6,80.61,-51.07,,53.288,,,,NaN,,,,0 / 0,1410,2014-12-14 04:27:17:163
2.3046,-16.838,-3.3146,1.5157,-9.6647,0.6827,0.7889,-7.1733,-3.9974,-0.854,1.223,-0.182,565.0,-83.1,25.6,64.8,115.17,80.24,-65.75,,53.288,,,,NaN,,,,0 / 0,1460,2014-12-14 04:27:17:213
1.8338,-7.9434,-3.55,1.4358,-9.7006,0.0838,0.398,1.7572,-3.6338,-0.9835,2.0256,0.2505,565.0,-84.8,23.9,67.8,115.17,80.24,-65.75,,53.288,,,,NaN,,,,0 / 0,1511,2014-12-14 04:27:17:264
-1.1768,-5.7957,-4.0698,2.0104,-9.5541,-0.9206,-3.1872,3.7584,-3.1492,-1.4245,0.3176,-0.5901,565.0,-87.9,22.1,70.7,160.7,78.18,-111.06,,53.288,,,,NaN,,,,0 / 0,1560,2014-12-14 04:27:17:313
1.2945,-9.4536,0.5296,0.7095,-9.527,-2.2144,0.585,0.0734,2.744,-0.5486,0.3042,-0.0134,565.0,-89.6,18.2,74.6,214.39,76.28,-162.23,,57.821,,,,NaN,,,,0 / 0,1611,2014-12-14 04:27:17:364
2.1084,-9.7478,-1.1474,0.817,-9.5308,-2.1601,1.2914,-0.217,1.0128,-0.5266,-0.2688,-0.2786,169.0,-90.0,16.9,76.0,214.39,76.28,-162.23,,57.821,,,,NaN,,,,0 / 0,1661,2014-12-14 04:27:17:414
0.6276,-9.3261,-3.903,1.0424,-9.4864,-2.2565,-0.4147,0.1603,-1.6466,-0.6793,0.5534,-0.2248,169.0,-90.9,16.0,76.5,206.6,75.32,-155.21,,57.821,,,,NaN,,,,0 / 0,1710,2014-12-14 04:27:17:463
0.6276,-9.9145,-3.3441,1.1623,-9.3362,-2.7667,-0.5346,-0.5783,-0.5774,-0.7978,0.744,-0.2566,169.0,-92.2,14.3,78.0,209.1,72.18,-157.21,,57.821,,,,NaN,,,,0 / 0,1760,2014-12-14 04:27:17:513
0.0392,-10.0812,-3.3539,1.2851,-9.1783,-3.2058,-1.2459,-0.9029,-0.1481,-0.8015,0.2468,-0.4154,169.0,-93.1,12.6,79.9,209.1,72.18,-157.21,,57.821,,,,NaN,,,,0 / 0,1811,2014-12-14 04:27:17:564
0.6472,-10.2676,-1.9123,1.3352,-9.0378,-3.5646,-0.8154,-1.1906,1.4954,-0.6414,0.518,-0.4166,83.0,-96.6,7.3,83.4,211.57,67.16,-159.47,,57.821,,,,NaN,,,,0 / 0,1861,2014-12-14 04:27:17:614
0.6472,-10.2676,-1.9123,1.4834,-9.0317,-3.5211,-1.3363,-1.2358,2.2756,-0.4618,0.8076,-0.4423,83.0,-96.6,7.3,83.4,211.57,67.16,-159.47,,57.821,,,,NaN,,,,0 / 0,1911,2014-12-14 04:27:17:664
-0.7159,-10.65,-0.5786,1.5845,-9.1243,-3.2259,-2.3004,-1.5257,2.6473,-0.0623,0.5889,-0.5217,83.0,-98.7,5.2,83.4,205.81,68.5,-153.84,,57.821,,,,NaN,,,,0 / 0,1961,2014-12-14 04:27:17:714
0.1079,-14.3471,1.9711,1.5393,-9.4733,-2.0144,-1.4314,-4.8738,3.9855,1.7031,0.4252,-0.3274,52.0,-101.4,4.7,82.9,193.79,75.02,-142.62,,57.821,,,,NaN,,,,0 / 0,2010,2014-12-14 04:27:17:763
0.7355,-13.1017,2.3438,1.5022,-9.5447,-1.6771,-0.7667,-3.557,4.0209,2.0831,0.551,-0.0929,52.0,-101.8,5.6,81.9,193.79,75.02,-142.62,,57.821,,,,NaN,,,,0 / 0,2060,2014-12-14 04:27:17:813
4.9327,-12.6212,-4.2953,1.124,-9.7268,0.5441,3.8088,-2.8943,-4.8394,1.6567,-0.4716,1.2437,52.0,-100.0,9.5,76.0,122.44,82.66,-70.42,,57.821,,,,NaN,,,,0 / 0,2111,2014-12-14 04:27:17:864
-0.3727,-12.2485,-4.0894,0.8276,-9.7589,0.5003,-1.2002,-2.4897,-4.5897,1.9242,-0.6243,1.3793,52.0,-97.9,12.1,74.6,113.28,82.89,-61.25,,57.272,,,,NaN,,,,0 / 0,2161,2014-12-14 04:27:17:914
2.7655,-8.5318,-1.5004,0.3071,-9.7549,0.9582,2.4584,1.2231,-2.4586,1.8314,-1.4917,1.0153,52.0,-94.4,15.6,70.2,70.43,84.11,-17.77,,57.272,,,,NaN,,,,0 / 0,2210,2014-12-14 04:27:17:963
2.2555,-7.4629,-2.6772,0.3182,-9.7367,1.1253,1.9373,2.2738,-3.8025,1.2181,-1.438,0.92,304.0,-92.7,16.5,69.7,70.43,84.11,-17.77,,57.272,,,,NaN,,,,0 / 0,2260,2014-12-14 04:27:18:013
2.3438,-5.9428,-1.9025,0.4388,-9.7665,0.7707,1.905,3.8236,-2.6732,0.4435,-1.3549,0.5498,304.0,-87.4,18.6,67.3,81.2,84.81,-29.66,,57.272,,,,NaN,,,,0 / 0,2311,2014-12-14 04:27:18:064
2.3438,-5.9428,-1.9025,0.4388,-9.7665,0.7707,1.905,3.8236,-2.6732,0.4435,-1.3549,0.5498,304.0,-87.4,18.6,67.3,81.2,84.81,-29.66,,57.272,,,,NaN,,,,0 / 0,2361,2014-12-14 04:27:18:114
2.2163,-10.1695,4.9524,1.0225,-9.7463,-0.3664,1.1938,-0.4232,5.3188,-1.0678,0.0709,-0.2162,304.0,-86.1,16.0,75.1,147.46,84.97,-97.87,,57.272,,,,NaN,,,,0 / 0,2410,2014-12-14 04:27:18:163
2.1182,-11.0129,5.3544,1.4225,-9.7008,0.2016,-0.4026,-2.9694,3.5936,-0.3005,-1.1741,-0.1442,689.0,-85.7,15.6,77.5,128.51,81.58,-81.93,,57.272,,,,NaN,,,,0 / 0,2461,2014-12-14 04:27:18:214
1.4416,-11.4934,3.3931,1.4206,-9.6895,0.5159,0.8447,0.5105,3.495,-0.1063,0.1979,-0.0513,689.0,-85.7,16.0,78.5,128.51,81.58,-81.93,,57.272,,,,NaN,,,,0 / 0,2511,2014-12-14 04:27:18:264
2.687,-9.4536,3.1185,1.466,-9.6775,0.606,1.221,0.2239,2.5125,-0.1454,0.4093,-0.1515,689.0,-85.7,15.6,78.5,113.51,80.69,-67.54,,57.272,,,,NaN,,,,0 / 0,2561,2014-12-14 04:27:18:314
2.432,-8.777,-8.0611,1.7602,-9.6392,0.3983,0.6719,0.8622,-8.4594,-1.4258,1.6554,0.0501,689.0,-89.6,16.0,80.4,123.98,79.4,-77.25,,57.272,,,,NaN,,,,0 / 0,2610,2014-12-14 04:27:18:363
1.6279,-7.7374,-8.2768,1.7817,-9.6433,0.0417,-0.1538,1.9059,-8.3185,-1.9096,2.1783,0.2553,689.0,-90.5,15.6,81.4,123.98,79.4,-77.25,,63.356,,,,NaN,,,,0 / 0,2660,2014-12-14 04:27:18:413
-2.7262,-7.9238,-6.9235,2.0698,-9.4268,-1.7382,-4.7961,1.503,-5.1853,-1.5516,0.8125,-0.11,689.0,-94.8,13.0,86.3,177.72,74.0,-130.02,,63.356,,,,NaN,,,,0 / 0,2718,2014-12-14 04:27:18:471
1.0003,-10.3362,-0.5198,1.2024,-9.2833,-2.9231,-5.8892,-1.1996,-5.0594,-1.653,1.0812,0.1405,689.0,-95.3,12.6,85.8,177.72,74.0,-130.02,,63.356,,,,NaN,,,,0 / 0,2774,2014-12-14 04:27:18:527
2.0398,-9.8165,-1.4808,1.2,-9.2786,-2.9389,-0.4743,-0.8124,-0.0031,-0.8503,0.4007,-0.2944,219.0,-100.0,9.1,90.7,207.33,71.11,-157.79,,63.356,,,,NaN,,,,0 / 0,2811,2014-12-14 04:27:18:564
2.0398,-9.8165,-1.4808,1.2,-9.2786,-2.9389,-0.4743,-0.8124,-0.0031,-0.8503,0.4007,-0.2944,219.0,-100.0,9.1,90.7,207.33,71.11,-157.79,,63.356,,,,NaN,,,,0 / 0,2861,2014-12-14 04:27:18:614
0.2256,-10.1008,-3.1577,1.2405,-9.2779,-2.9244,-1.3092,-0.6857,0.8846,-0.7416,1.036,-0.1258,219.0,-99.6,9.1,90.7,206.52,71.1,-157.01,,63.356,,,,NaN,,,,0 / 0,2912,2014-12-14 04:27:18:665
0.2256,-10.1008,-3.1577,1.2405,-9.2779,-2.9244,-1.3092,-0.6857,0.8846,-0.7416,1.036,-0.1258,219.0,-99.6,9.1,90.7,206.52,71.1,-157.01,,63.356,,,,NaN,,,,0 / 0,2961,2014-12-14 04:27:18:714
0.4119,-10.4441,-1.9907,1.2786,-9.24,-3.0264,-0.8667,-1.2041,1.0356,-0.5363,0.5828,-0.2773,219.0,-104.4,7.3,92.1,207.42,70.43,-157.1,,63.356,,,,NaN,,,,0 / 0,3011,2014-12-14 04:27:18:764
0.4119,-10.4441,-1.9907,1.2786,-9.24,-3.0264,-0.8667,-1.2041,1.0356,-0.5363,0.5828,-0.2773,219.0,-104.4,7.3,92.1,207.42,70.43,-157.1,,63.356,,,,NaN,,,,0 / 0,3060,2014-12-14 04:27:18:813
-0.0196,-9.7282,-1.2062,1.4916,-9.1292,-3.2562,-1.5112,-0.599,2.05,-0.5547,0.8296,-0.4801,118.0,-110.0,4.3,93.6,206.75,68.58,-155.39,,63.356,,,,NaN,,,,0 / 0,3110,2014-12-14 04:27:18:863
-1.118,-10.4833,0.5099,1.655,-9.1983,-2.9702,-2.7729,-1.285,3.4801,-0.2248,0.7098,-0.6084,118.0,-114.8,3.0,94.1,206.75,68.58,-155.39,,63.356,,,,NaN,,,,0 / 0,3161,2014-12-14 04:27:18:914
1.9515,-12.631,0.5296,0.9594,-9.7442,0.5484,0.9922,-2.8868,-0.0189,2.5962,0.1759,0.9468,118.0,-118.3,13.4,82.4,176.53,80.16,-123.63,,61.486,,,,NaN,,,,0 / 0,3211,2014-12-14 04:27:18:964
4.1678,-13.6705,-6.9431,0.5321,-9.7477,0.9324,0.5016,-3.0197,-8.1004,1.7959,-1.1594,1.675,118.0,-111.3,20.4,76.5,84.07,83.72,-29.72,,61.486,,,,NaN,,,,0 / 0,3261,2014-12-14 04:27:19:014
1.8731,-11.2875,-1.8731,0.0573,-9.783,0.6784,1.8158,-1.5045,-2.5515,2.0721,-1.2804,1.1606,118.0,-107.9,22.6,73.1,60.22,86.02,-4.83,,61.486,,,,NaN,,,,0 / 0,3311,2014-12-14 04:27:19:064
3.0793,-7.8159,-0.6374,0.0068,-9.7385,1.1538,3.0725,1.9226,-1.7912,1.8644,-1.493,1.069,118.0,-104.8,25.6,70.2,55.68,83.24,-0.34,,61.486,,,,NaN,,,,0 / 0,3361,2014-12-14 04:27:19:114
3.3637,-6.9235,-2.0202,0.1108,-9.7019,1.4249,3.2529,2.7785,-3.445,1.1228,-1.0067,1.1472,118.0,-100.9,27.8,66.3,55.68,83.24,-0.34,,61.486,,,,NaN,,,,0 / 0,3410,2014-12-14 04:27:19:163
3.3343,-7.0412,-2.2261,0.1492,-9.702,1.4212,3.1851,2.6608,-3.6473,0.9493,-1.2462,1.036,504.0,-100.0,27.8,65.3,61.49,81.62,-5.99,,61.486,,,,NaN,,,,0 / 0,3460,2014-12-14 04:27:19:213
2.9812,-7.3354,-2.5301,0.2532,-9.7084,1.361,2.728,2.3731,-3.8911,0.8919,-1.4697,0.9517,504.0,-97.9,28.2,64.8,65.44,81.88,-10.54,,61.486,,,,NaN,,,,0 / 0,3519,2014-12-14 04:27:19:272
2.9812,-7.3354,-2.5301,0.2532,-9.7084,1.361,2.728,2.3731,-3.8911,0.8919,-1.4697,0.9517,504.0,-97.9,28.2,64.8,65.44,81.88,-10.54,,61.486,,,,NaN,,,,0 / 0,3561,2014-12-14 04:27:19:314
2.0202,-6.2468,-2.4124,0.5835,-9.7384,0.997,1.4367,3.4915,-3.4094,0.5217,-2.1539,0.4032,504.0,-94.0,29.1,62.9,84.81,83.24,-30.34,,61.486,,,,NaN,,,,0 / 0,3611,2014-12-14 04:27:19:364
0.608,-8.6102,3.3441,0.8241,-9.7717,0.0732,-0.2161,1.1615,3.2709,-0.3042,-0.6243,0.4056,1085.0,-91.8,29.5,63.4,84.81,83.24,-30.34,,61.486,,,,NaN,,,,0 / 0,3661,2014-12-14 04:27:19:414
1.5593,-8.6691,4.0894,0.8099,-9.773,0.057,0.7494,1.1039,4.0324,-1.1643,0.4606,0.0367,1085.0,-90.9,29.1,64.8,139.54,85.25,-85.97,,61.486,,,,NaN,,,,0 / 0,3711,2014-12-14 04:27:19:464
3.0401,-6.8058,3.0891,2.0289,-9.5641,0.7629,1.7369,0.6891,0.8944,-0.9505,0.6023,-0.8027,1085.0,-94.0,25.2,73.1,118.57,77.23,-69.39,,61.486,,,,NaN,,,,0 / 0,3761,2014-12-14 04:27:19:514
-2.079,-6.5999,-0.0785,2.2437,-9.4645,-1.2487,-4.3227,2.8646,1.1702,-1.1448,1.5748,0.1478,1085.0,-99.6,21.3,79.9,169.64,74.82,-119.1,,61.273,,,,NaN,,,,0 / 0,3811,2014-12-14 04:27:19:564
-1.8731,-6.2272,-0.5884,2.1525,-9.4727,-1.3432,-4.0256,3.2455,0.7548,-0.7049,1.0128,-0.0281,598.0,-100.0,21.3,80.4,169.64,74.82,-119.1,,61.273,,,,NaN,,,,0 / 0,3860,2014-12-14 04:27:19:613
1.9319,-9.9538,-1.3239,1.6,-9.4004,-2.2897,-4.7676,-1.3967,-2.2213,-0.8283,-0.3445,0.1136,598.0,-100.9,19.1,83.9,196.64,73.45,-145.05,,61.273,,,,NaN,,,,0 / 0,3911,2014-12-14 04:27:19:664
3.1577,-9.9538,-0.3825,1.0686,-9.3112,-2.8861,1.8341,-0.6916,2.2388,-0.9591,1.1765,0.204,598.0,-101.4,17.8,85.3,212.25,71.71,-159.68,,61.273,,,,NaN,,,,0 / 0,3961,2014-12-14 04:27:19:714
0.2648,-9.993,-2.942,1.4924,-9.2542,-2.8816,-1.2276,-0.7388,-0.0604,-0.6695,1.0531,-0.2065,598.0,-104.0,16.5,87.3,204.97,70.68,-152.62,,61.273,,,,NaN,,,,0 / 0,4010,2014-12-14 04:27:19:763
0.0785,-9.5026,-3.2264,1.4995,-9.1476,-3.2004,-1.4211,-0.355,-0.026,-0.617,0.6683,-0.2334,199.0,-107.0,14.7,88.7,207.81,68.88,-154.89,,61.273,,,,NaN,,,,0 / 0,4060,2014-12-14 04:27:19:813
0.1863,-10.042,-2.5988,1.5323,-9.0128,-3.5484,-1.3459,-1.0292,0.9496,-0.7062,0.854,-0.3763,199.0,-110.0,13.4,90.2,207.81,68.88,-154.89,,61.273,,,,NaN,,,,0 / 0,4110,2014-12-14 04:27:19:863
-0.2452,-10.2381,-1.3435,1.6509,-8.9812,-3.5754,-1.8078,-1.1589,2.1633,-0.4838,0.9872,-0.4081,199.0,-112.7,11.7,90.7,209.43,66.32,-155.22,,61.273,,,,NaN,,,,0 / 0,4161,2014-12-14 04:27:19:914
-1.1866,-10.6304,-0.657,1.6652,-9.1645,-3.0675,-2.8518,-1.4659,2.4104,-0.0476,0.3482,-0.6402,199.0,-117.0,10.4,89.7,206.05,69.15,-151.5,,61.273,,,,NaN,,,,0 / 0,4211,2014-12-14 04:27:19:964
-1.1866,-10.6304,-0.657,1.6652,-9.1645,-3.0675,-2.8518,-1.4659,2.4104,-0.0476,0.3482,-0.6402,199.0,-117.0,10.4,89.7,206.05,69.15,-151.5,,61.943,,,,NaN,,,,0 / 0,4260,2014-12-14 04:27:20:013
-0.8532,-13.896,2.3928,1.53,-9.4529,-2.115,-2.3831,-4.4432,4.5078,0.9102,0.0281,-0.5803,199.0,-118.3,12.6,87.8,198.45,74.56,-144.12,,61.943,,,,NaN,,,,0 / 0,4311,2014-12-14 04:27:20:064
1.52,-11.866,2.1771,1.2266,-9.724,-0.3304,0.2934,-2.142,2.5075,2.9468,0.0134,0.4753,199.0,-117.9,17.3,80.4,198.45,74.56,-144.12,,61.943,,,,NaN,,,,0 / 0,4360,2014-12-14 04:27:20:113
3.2362,-14.4452,-5.4329,0.8647,-9.732,0.8429,2.3715,-4.7132,-6.2758,1.7434,-0.5718,1.3952,199.0,-113.1,24.7,71.2,102.2,82.93,-45.73,,61.943,,,,NaN,,,,0 / 0,4410,2014-12-14 04:27:20:163
-1.118,-12.3466,-5.6682,0.4173,-9.77,0.7378,-1.5352,-2.5766,-6.4061,2.0733,-1.0458,1.6029,199.0,-109.2,27.3,65.8,102.2,82.93,-45.73,,61.943,,,,NaN,,,,0 / 0,4461,2014-12-14 04:27:20:214
2.4124,-9.2673,-0.5982,-0.1364,-9.7556,0.9896,2.5489,0.4884,-1.5878,2.0562,-1.6921,1.0531,246.0,-104.0,29.5,58.5,51.58,84.15,7.85,,61.943,,,,NaN,,,,0 / 0,4511,2014-12-14 04:27:20:264
1.9025,-6.0605,-2.4517,-0.0147,-9.7138,1.346,1.9172,3.6533,-3.7976,0.9297,-1.9096,0.9395,246.0,-97.9,30.4,50.7,60.25,82.11,0.63,,61.943,,,,NaN,,,,0 / 0,4560,2014-12-14 04:27:20:313
2.638,-5.5506,-2.2065,0.1638,-9.7603,0.9379,2.4742,4.2098,-3.1444,0.1662,-1.4575,0.4936,246.0,-95.3,29.9,49.2,71.22,84.43,-9.91,,61.943,,,,NaN,,,,0 / 0,4611,2014-12-14 04:27:20:364
2.6968,-7.5217,-0.5099,0.6013,-9.7861,0.2012,2.0956,2.2644,-0.7111,-0.7734,-0.661,0.3971,246.0,-93.5,29.1,49.7,71.22,84.43,-9.91,,61.943,,,,NaN,,,,0 / 0,4661,2014-12-14 04:27:20:414
2.1967,-8.1787,0.2059,0.6907,-9.7822,0.0432,1.506,1.6035,0.1627,-0.9908,-0.5547,0.3824,1377.0,-94.0,29.1,51.2,147.28,85.95,-86.42,,61.518,,,,NaN,,,,0 / 0,4710,2014-12-14 04:27:20:463
2.9224,-11.0423,5.58,1.0392,-9.7454,-0.3439,1.8832,-1.2969,5.9238,-0.5779,-0.7599,-0.5168,1377.0,-94.8,25.6,57.5,174.06,84.35,-114.56,,61.518,,,,NaN,,,,0 / 0,4761,2014-12-14 04:27:20:514
2.893,-11.1011,3.5206,1.6216,-9.6567,0.5374,1.2714,-1.4444,2.9832,-0.1222,0.1271,-0.2456,1377.0,-95.7,25.2,56.5,128.78,79.97,-71.67,,61.518,,,,NaN,,,,0 / 0,4810,2014-12-14 04:27:20:563
2.4811,-14.1804,5.3152,1.6808,-9.6416,0.621,0.8003,-4.5389,4.6942,-0.0953,-0.0855,-0.6915,1377.0,-97.0,24.7,57.0,128.78,79.97,-71.67,,61.518,,,,NaN,,,,0 / 0,4860,2014-12-14 04:27:20:613
1.2062,-5.4427,-7.2275,1.7649,-9.6453,0.1562,-0.5587,4.2026,-7.3837,-2.1063,3.0494,0.2529,927.0,-98.3,23.0,58.5,142.15,79.59,-84.94,,61.518,,,,NaN,,,,0 / 0,4911,2014-12-14 04:27:20:664
-3.903,-12.7683,-5.1191,1.8876,-9.5669,-1.04,-4.5747,1.6235,-4.4517,-1.0776,0.0305,-0.3348,927.0,-100.0,20.8,61.4,142.15,79.59,-84.94,,61.518,,,,NaN,,,,0 / 0,4960,2014-12-14 04:27:20:713
0.0588,-10.1695,-3.3931,1.4935,-9.2612,-2.8584,-1.4347,-0.9083,-0.5347,-0.9334,1.2779,-0.2688,342.0,-102.7,16.5,66.3,215.86,73.7,-155.68,,61.518,,,,NaN,,,,0 / 0,5142,2014-12-14 04:27:20:895
0.0588,-10.1695,-3.3931,1.4935,-9.2612,-2.8584,-1.4347,-0.9083,-0.5347,-0.9334,1.2779,-0.2688,342.0,-102.7,16.5,66.3,215.86,73.7,-155.68,,61.518,,,,NaN,,,,0 / 0,5143,2014-12-14 04:27:20:896
0.0588,-10.1695,-3.3931,1.4935,-9.2612,-2.8584,-1.4347,-0.9083,-0.5347,-0.9334,1.2779,-0.2688,342.0,-102.7,16.5,66.3,215.86,73.7,-155.68,,61.518,,,,NaN,,,,0 / 0,5145,2014-12-14 04:27:20:898
0.0588,-10.1695,-3.3931,1.4935,-9.2612,-2.8584,-1.4347,-0.9083,-0.5347,-0.9334,1.2779,-0.2688,342.0,-102.7,16.5,66.3,215.86,73.7,-155.68,,61.518,,,,NaN,,,,0 / 0,5161,2014-12-14 04:27:20:914
0.4217,-9.7086,-2.3634,1.5783,-9.147,-3.1642,-1.1566,-0.5616,0.8008,-0.6964,0.6402,-0.38,342.0,-104.0,14.7,67.3,213.79,69.32,-153.45,,61.518,,,,NaN,,,,0 / 0,5211,2014-12-14 04:27:20:964
0.6178,-9.5026,-2.1771,1.7171,-8.9832,-3.539,-1.0992,-0.5195,1.3619,-0.6964,0.6402,-0.38,342.0,-104.0,14.7,67.3,213.79,69.32,-153.45,,65.326,,,,NaN,,,,0 / 0,5260,2014-12-14 04:27:21:013
0.912,-9.6497,-1.5495,1.8029,-8.9555,-3.5664,-0.8909,-0.6943,2.017,-0.7086,1.2303,-0.4166,150.0,-108.7,11.7,68.7,214.5,65.95,-153.18,,65.326,,,,NaN,,,,0 / 0,5311,2014-12-14 04:27:21:064
0.0981,-10.3656,-0.559,1.9644,-8.9509,-3.4918,-1.8664,-1.4147,2.9328,-0.3934,1.1277,-0.5205,150.0,-110.9,9.9,68.7,214.5,65.95,-153.18,,65.326,,,,NaN,,,,0 / 0,5361,2014-12-14 04:27:21:114
-1.1278,-10.9834,1.118,1.8851,-9.2494,-2.6579,-3.0129,-1.734,3.7759,0.2969,0.5205,-0.4288,150.0,-112.7,8.6,66.8,205.86,70.59,-144.65,,65.326,,,,NaN,,,,0 / 0,5410,2014-12-14 04:27:21:163
1.5887,-12.1897,1.216,0.9419,-9.7529,0.4053,0.6467,-2.4368,0.8107,2.9615,-0.2199,1.1374,87.0,-111.8,11.7,55.6,129.55,84.0,-66.72,,65.326,,,,NaN,,,,0 / 0,5460,2014-12-14 04:27:21:213
1.5887,-12.1897,1.216,0.9419,-9.7529,0.4053,0.6467,-2.4368,0.8107,2.9615,-0.2199,1.1374,87.0,-111.8,11.7,55.6,129.55,84.0,-66.72,,65.326,,,,NaN,,,,0 / 0,5511,2014-12-14 04:27:21:264
-0.3628,-12.3466,-6.2174,0.4461,-9.7542,0.9095,-0.8089,-2.5924,-7.127,2.0415,-0.6182,1.6542,87.0,-105.7,14.7,48.7,90.55,84.07,-26.13,,65.326,,,,NaN,,,,0 / 0,5560,2014-12-14 04:27:21:313
2.2457,-7.5021,-2.3732,-0.1142,-9.7315,1.2062,2.762,0.6113,-2.0299,1.3891,-1.4795,1.1167,87.0,-99.6,16.0,41.9,60.09,82.9,5.41,,65.326,,,,NaN,,,,0 / 0,5611,2014-12-14 04:27:21:364
1.6181,-6.5214,-2.7164,-0.1107,-9.6856,1.532,1.7288,3.1642,-4.2484,1.1949,-1.8424,0.9468,550.0,-99.2,16.0,40.9,62.46,80.99,4.13,,65.326,,,,NaN,,,,0 / 0,5661,2014-12-14 04:27:21:414
1.7946,-4.8249,-2.9028,0.0052,-9.7205,1.2967,1.7894,4.8957,-4.1995,0.7587,-1.9572,0.4459,550.0,-99.2,16.0,40.9,62.46,80.99,4.13,,62.736,,,,NaN,,,,0 / 0,5711,2014-12-14 04:27:21:464
3.599,-4.8347,-2.7753,0.1925,-9.7554,0.9828,3.4066,4.9207,-3.7581,-0.2663,-0.6353,0.3726,550.0,-95.7,14.7,39.5,67.43,82.4,-0.23,,62.736,,,,NaN,,,,0 / 0,5761,2014-12-14 04:27:21:514
0.9316,-9.2869,2.383,0.8176,-9.7722,-0.0727,0.114,0.4853,2.4557,-1.2608,0.2578,0.2468,550.0,-94.8,14.3,40.4,161.98,85.2,-95.08,,62.736,,,,NaN,,,,0 / 0,5811,2014-12-14 04:27:21:564
2.0594,-10.6304,3.6383,1.2067,-9.7319,0.0599,0.6959,-0.0233,4.7057,-1.2486,0.2199,-0.1014,2351.0,-94.8,13.9,42.4,161.98,85.2,-95.08,,62.736,,,,NaN,,,,0 / 0,5860,2014-12-14 04:27:21:613
1.6966,-11.258,2.9714,1.3783,-9.7086,0.1191,0.3182,-1.5495,2.8523,-0.7795,-0.2615,-0.3409,2351.0,-94.8,12.6,45.8,148.45,81.89,-85.06,,62.736,,,,NaN,,,,0 / 0,5910,2014-12-14 04:27:21:663
2.9028,-12.0131,3.0204,1.5447,-9.6811,0.2455,1.3581,-2.332,2.775,-0.7795,-0.2615,-0.3409,2351.0,-94.8,12.6,45.8,148.45,81.89,-85.06,,62.736,,,,NaN,,,,0 / 0,5960,2014-12-14 04:27:21:713
2.1477,-10.1205,-5.0602,1.887,-9.6058,0.5809,0.2607,-0.5146,-5.6412,-0.5192,0.6854,-0.1967,1484.0,-95.3,10.8,46.8,135.12,78.39,-72.89,,62.736,,,,NaN,,,,0 / 0,6011,2014-12-14 04:27:21:764
2.1182,-4.7072,-0.3334,2.0951,-9.5358,-0.922,0.0231,4.8286,0.5886,-0.8491,0.8601,-0.2541,1484.0,-95.7,10.4,51.2,175.56,76.5,-113.75,,62.736,,,,NaN,,,,0 / 0,6060,2014-12-14 04:27:21:813
-7.3844,-13.239,-5.835,1.697,-9.4816,-1.841,-7.6888,-3.267,-2.3856,-0.8173,0.551,0.1564,1484.0,-95.7,8.6,53.6,198.95,75.21,-137.33,,62.736,,,,NaN,,,,0 / 0,6110,2014-12-14 04:27:21:863
3.7854,-9.13,-0.559,0.8736,-9.4732,-2.3802,2.9117,0.3432,1.8212,-0.8247,-0.0843,0.0232,1484.0,-95.3,7.8,55.1,221.48,75.02,-159.84,,62.736,,,,NaN,,,,0 / 0,6161,2014-12-14 04:27:21:914
1.8044,-9.6203,-2.8243,1.501,-9.3506,-2.5465,0.3035,-0.2698,-0.2779,-0.8699,0.463,-0.3115,1484.0,-94.8,6.9,56.0,221.48,75.02,-159.84,,64.015,,,,NaN,,,,0 / 0,6210,2014-12-14 04:27:21:963
0.7845,-9.8949,-3.197,1.6101,-9.3152,-2.6086,-0.8255,-0.5797,-0.5884,-0.8687,0.8772,-0.2749,620.0,-95.7,6.0,56.0,209.8,71.78,-148.32,,64.015,,,,NaN,,,,0 / 0,6261,2014-12-14 04:27:22:014
0.4119,-10.3558,-2.2653,1.6947,-9.2279,-2.8537,-1.2828,-1.1279,0.5884,-0.5913,0.606,-0.3115,620.0,-96.1,5.6,58.0,209.71,70.41,-148.89,,64.015,,,,NaN,,,,0 / 0,6310,2014-12-14 04:27:22:063
0.2256,-9.385,-2.4517,1.6676,-9.1819,-3.0137,-1.4421,-0.2031,0.562,-0.5058,0.9236,-0.3042,620.0,-97.0,4.7,58.5,211.87,69.44,-151.04,,64.015,,,,NaN,,,,0 / 0,6361,2014-12-14 04:27:22:114
0.4511,-9.8655,-1.9809,1.7781,-9.1464,-3.0581,-1.327,-0.7191,1.0772,-0.3433,1.014,-0.2981,620.0,-98.7,3.9,59.0,211.87,69.44,-151.04,,64.015,,,,NaN,,,,0 / 0,6411,2014-12-14 04:27:22:164
0.3334,-10.042,-1.7652,1.7972,-9.1476,-3.0434,-1.4637,-0.8944,1.2782,-0.314,0.9872,-0.314,316.0,-98.3,3.4,58.5,210.38,68.87,-149.44,,64.015,,,,NaN,,,,0 / 0,6460,2014-12-14 04:27:22:213
-0.2059,-9.8557,-0.7355,1.9033,-9.2425,-2.6692,-2.1092,-0.6132,1.9337,0.0159,0.8063,-0.485,316.0,-99.6,3.0,58.5,207.03,69.89,-145.91,,64.015,,,,NaN,,,,0 / 0,6511,2014-12-14 04:27:22:264
0.7747,-15.1415,-0.6865,2.0152,-9.4832,-1.4758,-1.2404,-5.6582,0.7893,1.6115,1.4087,-0.1698,316.0,-100.5,3.0,56.5,207.03,69.89,-145.91,,64.015,,,,NaN,,,,0 / 0,6560,2014-12-14 04:27:22:313
2.1967,-14.9649,0.1569,1.8193,-9.6215,-0.5358,0.3774,-5.3434,0.6927,2.6719,1.675,0.4875,260.0,-101.4,3.4,54.6,187.96,75.24,-126.22,,64.015,,,,NaN,,,,0 / 0,6610,2014-12-14 04:27:22:363
5.6781,-10.0028,-4.6091,1.5621,-9.6673,0.5227,4.116,-0.3355,-5.1318,1.9731,0.876,1.1032,260.0,-100.0,4.7,48.2,135.14,80.33,-71.5,,64.015,,,,NaN,,,,0 / 0,6661,2014-12-14 04:27:22:414
5.6781,-10.0028,-4.6091,1.5621,-9.6673,0.5227,4.116,-0.3355,-5.1318,1.9731,0.876,1.1032,260.0,-100.0,4.7,48.2,135.14,80.33,-71.5,,56.885,,,,NaN,,,,0 / 0,6711,2014-12-14 04:27:22:464
-1.0787,-12.4348,-2.0398,1.2463,-9.7084,0.6029,-2.3251,-2.7264,-2.6427,1.6163,-1.945,1.0177,260.0,-96.1,5.6,44.3,128.92,81.88,-64.18,,56.885,,,,NaN,,,,0 / 0,6761,2014-12-14 04:27:22:514
3.197,-8.8358,-2.5203,0.6542,-9.7548,0.7654,2.5428,0.919,-3.2857,1.2156,-1.2303,1.0165,1086.0,-94.4,6.0,39.9,107.05,84.11,-40.52,,56.885,,,,NaN,,,,0 / 0,6810,2014-12-14 04:27:22:563
3.6873,-6.4724,-2.1575,0.8671,-9.7539,0.5292,2.8202,3.2815,-2.6867,0.518,-0.7123,0.5583,1086.0,-92.2,5.2,38.0,125.77,84.05,-58.6,,56.885,,,,NaN,,,,0 / 0,6861,2014-12-14 04:27:22:614
2.3438,-5.7271,-0.4805,1.1997,-9.7318,0.1497,1.1441,4.0048,-0.6302,-0.3409,-0.3018,0.369,1086.0,-91.8,4.7,37.5,150.08,82.92,-82.89,,56.885,,,,NaN,,,,0 / 0,6910,2014-12-14 04:27:22:663
1.3337,-6.541,0.559,1.2823,-9.7222,-0.0647,0.0514,3.1812,0.6237,-0.8919,-0.5388,0.4019,2088.0,-91.4,5.2,39.5,150.08,82.92,-82.89,,56.885,,,,NaN,,,,0 / 0,6961,2014-12-14 04:27:22:714
1.6573,-8.2278,1.2651,1.2148,-9.724,-0.372,0.4425,1.4962,1.6371,-0.9383,-0.2407,0.1649,2088.0,-90.9,4.7,39.5,173.2,82.56,-107.03,,56.885,,,,NaN,,,,0 / 0,7010,2014-12-14 04:27:22:763
1.8927,-18.7503,5.5211,1.6705,-9.6595,-0.2735,0.2222,-9.0909,5.7946,0.4875,-0.7941,-0.0904,2088.0,-90.0,4.3,41.9,163.94,80.06,-99.3,,56.885,,,,NaN,,,,0 / 0,7060,2014-12-14 04:27:22:813
1.6769,-5.8153,2.1869,1.5092,-9.6623,0.73,0.1677,3.8469,1.4569,0.3897,0.9273,0.2285,2088.0,-90.5,3.9,40.4,129.5,80.16,-64.19,,56.885,,,,NaN,,,,0 / 0,7111,2014-12-14 04:27:22:864
-2.1477,-11.1011,-0.9512,1.4965,-9.6591,0.7953,-3.6442,-1.442,-1.7465,-0.0525,-0.1014,0.2602,1607.0,-90.0,3.9,40.4,129.5,80.16,-64.19,,56.885,,,,NaN,,,,0 / 0,7160,2014-12-14 04:27:22:913
-3.0793,-11.2384,-0.3923,1.255,-9.7041,0.652,-4.3343,-1.5343,-1.0442,0.1588,0.0855,0.1918,1607.0,-89.6,4.3,40.9,127.5,81.71,-62.55,,58.165,,,,NaN,,,,0 / 0,7211,2014-12-14 04:27:22:964
0.6767,-9.2281,1.9908,0.6236,-9.7596,0.7288,0.053,0.5316,1.2619,0.011,-0.3848,-0.0562,1607.0,-89.6,4.3,40.4,106.3,84.39,-40.55,,58.165,,,,NaN,,,,0 / 0,7260,2014-12-14 04:27:23:013
0.6767,-9.2281,1.9908,0.6236,-9.7596,0.7288,0.053,0.5316,1.2619,0.011,-0.3848,-0.0562,1607.0,-89.6,4.3,40.4,106.3,84.39,-40.55,,58.165,,,,NaN,,,,0 / 0,7310,2014-12-14 04:27:23:063
0.0883,-9.9636,1.2651,0.7552,-9.7472,0.7699,-0.6669,-0.2164,0.4951,-0.1881,0.2297,0.1026,1607.0,-88.7,4.3,39.9,109.89,83.69,-44.45,,58.165,,,,NaN,,,,0 / 0,7361,2014-12-14 04:27:23:114
-0.0098,-9.8459,1.9711,0.6002,-9.7557,0.7982,-0.61,-0.0902,1.173,-0.0757,0.1552,-0.0183,1607.0,-88.7,3.9,40.4,109.89,83.69,-44.45,,58.165,,,,NaN,,,,0 / 0,7410,2014-12-14 04:27:23:163
-0.5982,-9.7968,1.4318,0.5823,-9.7514,0.8611,-1.1805,-0.0454,0.5706,-0.1429,0.0745,-0.0244,1607.0,-89.2,4.3,41.9,101.91,84.16,-36.94,,58.165,,,,NaN,,,,0 / 0,7460,2014-12-14 04:27:23:213
-0.8924,-9.7674,1.2454,0.561,-9.7528,0.8592,-1.4534,-0.0146,0.3862,-0.1503,0.0525,-0.0134,1607.0,-89.6,3.9,41.9,97.84,83.99,-33.14,,58.165,,,,NaN,,,,0 / 0,7511,2014-12-14 04:27:23:264
-0.4119,-9.8949,1.1082,0.4107,-9.7655,0.7978,-0.8226,-0.1294,0.3103,-0.0855,-0.0305,-0.0501,1607.0,-89.2,4.3,41.4,92.28,84.75,-27.24,,58.165,,,,NaN,,,,0 / 0,7560,2014-12-14 04:27:23:313
-0.4119,-9.8949,1.1082,0.4107,-9.7655,0.7978,-0.8226,-0.1294,0.3103,-0.0855,-0.0305,-0.0501,1607.0,-89.2,4.3,41.4,92.28,84.75,-27.24,,58.165,,,,NaN,,,,0 / 0,7610,2014-12-14 04:27:23:363
0.4119,-10.1499,1.1082,0.5182,-9.7685,0.692,-0.0099,-0.3787,0.4821,-0.0806,-0.1417,-0.0635,1607.0,-89.2,3.4,42.4,94.21,85.13,-29.64,,58.165,,,,NaN,,,,0 / 0,7660,2014-12-14 04:27:23:413
-0.0588,-9.993,0.7943,0.5244,-9.7723,0.6311,-0.5832,-0.2207,0.1633,-0.0819,0.0195,-0.0318,1365.0,-89.2,3.4,42.4,104.27,85.2,-39.72,,61.271,,,,NaN,,,,0 / 0,7711,2014-12-14 04:27:23:464