ACCELEROMETER X (m/s²),ACCELEROMETER Y (m/s²),ACCELEROMETER Z (m/s²),GRAVITY X (m/s²),GRAVITY Y (m/s²),GRAVITY Z (m/s²),LINEAR ACCELERATION X (m/s²),LINEAR ACCELERATION Y (m/s²),LINEAR ACCELERATION Z (m/s²),GYROSCOPE X (rad/s),GYROSCOPE Y (rad/s),GYROSCOPE Z (rad/s),LIGHT (lux),MAGNETIC FIELD X (μT),MAGNETIC FIELD Y (μT),MAGNETIC FIELD Z (μT),ORIENTATION X (°),ORIENTATION Y (°),ORIENTATION Z (°),PROXIMITY (i),SOUND LEVEL (dB),LOCATION Latitude : ,LOCATION Longitude : ,LOCATION Altitude ( m),LOCATION Altitude-google ( m),LOCATION Speed ( Kmh),LOCATION Accuracy ( m),LOCATION ORIENTATION (°),Satellites in range,Time since start in ms ,YYYY-MO-DD HH-MI-SS_SSS
0.559,-9.8753,-0.2354,0.6685,-9.7826,-0.1524,-0.1096,-0.0926,-0.0829,0.0305,0.0086,0.0061,416.0,-93.5,1.7,35.6,171.65,85.99,-102.84,,62.316,,,,NaN,,,,0 / 0,11,2014-12-14 04:21:27:624
0.4903,-9.9439,-0.1471,0.6805,-9.7813,-0.1842,-0.1901,-0.1627,0.0371,0.022,0.0183,0.0049,416.0,-93.1,1.7,35.1,174.51,85.88,-105.15,,62.316,,,,NaN,,,,0 / 0,62,2014-12-14 04:21:27:675
0.559,-9.9243,-0.2746,0.6779,-9.7815,-0.1807,-0.1189,-0.1428,-0.0939,0.0269,0.022,0.0,416.0,-93.1,2.1,34.6,174.51,85.88,-105.15,,62.316,,,,NaN,,,,0 / 0,111,2014-12-14 04:21:27:724
0.4119,-9.9538,-0.1863,0.6719,-9.7817,-0.1942,-0.2601,-0.1721,0.0079,0.0464,0.0232,0.0037,416.0,-93.5,2.1,35.1,174.84,85.9,-105.48,,62.316,,,,NaN,,,,0 / 0,161,2014-12-14 04:21:27:774
0.4119,-9.9538,-0.1863,0.6719,-9.7817,-0.1942,-0.2601,-0.1721,0.0079,0.0464,0.0232,0.0037,416.0,-93.5,2.1,35.1,174.84,85.9,-105.48,,62.316,,,,NaN,,,,0 / 0,212,2014-12-14 04:21:27:825
0.3432,-9.9439,-0.1471,0.6185,-9.7858,-0.163,-0.2408,-0.1594,0.0823,0.0684,0.0147,0.0183,416.0,-92.7,1.7,34.6,175.26,86.15,-105.9,,62.316,,,,NaN,,,,0 / 0,262,2014-12-14 04:21:27:875
0.3727,-9.9145,-0.0981,0.6,-9.7873,-0.1378,-0.1916,-0.0403,0.2807,0.0745,0.0037,0.011,416.0,-93.1,1.7,35.6,175.26,86.15,-105.9,,39.008,,,,NaN,,,,0 / 0,312,2014-12-14 04:21:27:925
0.1569,-10.042,0.5884,0.6237,-9.786,-0.1269,-0.4864,-0.256,0.5976,0.0538,0.044,-0.0562,416.0,-92.7,1.7,35.6,170.79,86.17,-101.99,,39.008,,,,NaN,,,,0 / 0,362,2014-12-14 04:21:27:975
0.0686,-10.0322,0.7355,0.5998,-9.7882,-0.0362,-0.5312,-0.244,0.7717,0.0452,0.11,-0.0733,416.0,-93.1,2.1,35.1,162.77,86.49,-93.45,,39.008,,,,NaN,,,,0 / 0,412,2014-12-14 04:21:28:025
-0.8532,-10.1401,0.814,0.5689,-9.7896,0.0992,-1.4221,-0.3504,0.7147,-0.0684,0.16,-0.1613,416.0,-93.5,2.1,35.1,162.77,86.49,-93.45,,39.008,,,,NaN,,,,0 / 0,461,2014-12-14 04:21:28:074
-0.9611,-10.1401,0.6865,0.547,-9.7906,0.1231,-1.5081,-0.3495,0.5634,-0.0611,0.1234,-0.1845,416.0,-93.5,2.1,35.6,146.08,86.72,-77.32,,39.008,,,,NaN,,,,0 / 0,511,2014-12-14 04:21:28:124
-0.049,-9.8557,0.657,0.4634,-9.7939,0.186,-0.5124,-0.0618,0.4711,-0.011,0.011,-0.237,416.0,-94.0,2.6,35.1,137.61,87.08,-68.13,,39.008,,,,NaN,,,,0 / 0,562,2014-12-14 04:21:28:175
0.0588,-9.8753,0.6669,0.4707,-9.7933,0.199,-0.4119,-0.082,0.4678,-0.0134,0.0098,-0.2419,416.0,-94.0,2.1,36.0,137.61,87.08,-68.13,,39.008,,,,NaN,,,,0 / 0,612,2014-12-14 04:21:28:225
0.2059,-10.1205,0.9709,0.5921,-9.7834,0.3235,-0.3861,-0.337,0.6473,0.1038,0.0122,-0.2505,416.0,-94.8,3.0,35.6,130.44,86.05,-61.35,,39.008,,,,NaN,,,,0 / 0,661,2014-12-14 04:21:28:274
0.1667,-10.6991,0.8041,0.6257,-9.7572,0.7586,-0.459,-0.9418,0.0456,0.4753,-0.7465,-0.121,416.0,-94.4,3.4,33.1,130.44,86.05,-61.35,,39.008,,,,NaN,,,,0 / 0,711,2014-12-14 04:21:28:324
0.3727,-11.9739,0.5001,0.6386,-9.7494,0.8442,-0.2659,-2.2246,-0.3441,0.4911,-0.7966,-0.1515,416.0,-94.8,3.4,33.6,107.14,83.8,-37.1,,37.453,,,,NaN,,,,0 / 0,761,2014-12-14 04:21:28:374
4.0207,-9.6497,0.863,0.9097,-9.6858,1.2359,3.1111,0.0361,-0.3729,0.9566,-1.0275,-0.0183,416.0,-95.7,3.9,31.7,107.37,81.0,-36.35,,37.453,,,,NaN,,,,0 / 0,812,2014-12-14 04:21:28:425
4.0207,-9.179,0.7649,1.0216,-9.6659,1.303,2.9991,0.4868,-0.5381,0.9249,-0.898,-0.0342,416.0,-95.3,3.9,31.2,107.37,81.0,-36.35,,37.453,,,,NaN,,,,0 / 0,863,2014-12-14 04:21:28:476
0.9022,-8.7671,0.3923,1.5127,-9.5494,1.6405,-0.7674,0.7626,-0.9834,0.6231,0.2065,0.0794,416.0,-94.4,3.4,28.2,115.13,76.85,-42.68,,37.453,,,,NaN,,,,0 / 0,912,2014-12-14 04:21:28:525
0.5982,-8.8456,0.7257,1.4976,-9.5493,1.6549,-0.8994,0.7037,-0.9292,0.595,-0.1295,0.1344,416.0,-94.8,3.9,27.3,115.13,76.85,-42.68,,37.453,,,,NaN,,,,0 / 0,962,2014-12-14 04:21:28:575
0.9611,-8.1493,1.6966,1.3647,-9.5458,1.7846,-0.4037,1.3965,-0.0881,0.3531,-0.4093,0.0489,559.0,-94.4,4.3,26.3,110.91,76.76,-37.41,,37.453,,,,NaN,,,,0 / 0,1011,2014-12-14 04:21:28:624
1.216,-8.267,2.1869,1.3607,-9.5215,1.9133,-0.1446,1.2545,0.2735,0.1087,-0.0977,0.1197,559.0,-94.4,4.3,25.3,109.86,76.41,-36.22,,37.453,,,,NaN,,,,0 / 0,1061,2014-12-14 04:21:28:674
2.0104,-8.826,2.3928,1.3183,-9.5027,2.0326,0.6921,0.6767,0.3602,0.1087,-0.0977,0.1197,559.0,-94.4,4.3,25.3,109.86,76.41,-36.22,,37.453,,,,NaN,,,,0 / 0,1111,2014-12-14 04:21:28:724
2.0496,-10.0518,3.6677,1.3491,-9.4793,2.1199,0.6846,-0.9342,1.6252,-0.0904,-0.1368,0.3604,559.0,-92.7,5.2,25.8,106.37,75.64,-32.9,,37.453,,,,NaN,,,,0 / 0,1161,2014-12-14 04:21:28:774
2.0006,-10.395,3.6971,1.3429,-9.4616,2.2012,0.6871,-1.1198,1.6528,-0.1258,-0.1735,0.314,559.0,-92.2,5.2,25.8,104.32,74.76,-31.39,,49.057,,,,NaN,,,,0 / 0,1211,2014-12-14 04:21:28:824
2.0006,-10.395,3.6971,1.3429,-9.4616,2.2012,0.6871,-1.1198,1.6528,-0.1258,-0.1735,0.314,559.0,-92.2,5.2,25.8,104.32,74.76,-31.39,,49.057,,,,NaN,,,,0 / 0,1261,2014-12-14 04:21:28:874
2.7753,-10.9246,1.6867,1.3526,-9.4829,2.1014,1.4227,-1.4417,-0.4147,-1.3231,0.3201,-0.1014,559.0,-91.4,6.0,28.2,103.42,74.9,-31.35,,49.057,,,,NaN,,,,0 / 0,1312,2014-12-14 04:21:28:925
0.8728,-5.3937,-4.2463,1.4029,-9.6039,1.4024,-0.5301,4.2103,-5.6487,-0.9175,1.2914,0.507,559.0,-90.0,7.3,29.7,115.32,78.33,-45.01,,49.057,,,,NaN,,,,0 / 0,1362,2014-12-14 04:21:28:975
1.5691,-4.8151,-4.0894,1.4588,-9.6975,-0.023,-4.55,-0.6613,-4.0908,-1.4868,0.6463,-0.0024,559.0,-90.0,7.8,34.1,115.32,78.33,-45.01,,49.057,,,,NaN,,,,0 / 0,1412,2014-12-14 04:21:29:025
-2.893,-11.209,-1.6181,0.9428,-9.7069,-1.0287,-3.8357,-1.5021,-0.5894,-0.8625,0.6512,0.2199,396.0,-89.6,8.6,35.1,206.83,81.82,-137.5,,49.057,,,,NaN,,,,0 / 0,1461,2014-12-14 04:21:29:074
1.3827,-9.1692,-1.0493,0.4276,-9.6759,-1.5377,0.9551,0.5067,0.4884,-0.8222,0.4227,0.0428,396.0,-89.2,8.6,38.0,232.4,80.63,-164.46,,49.057,,,,NaN,,,,0 / 0,1512,2014-12-14 04:21:29:125
-1.0199,-9.5713,-1.7162,0.5196,-9.6169,-1.8482,-1.5395,0.0456,0.1321,-0.7929,1.1093,0.1662,237.0,-88.7,9.5,39.9,231.55,78.71,-164.3,,49.057,,,,NaN,,,,0 / 0,1561,2014-12-14 04:21:29:174
-0.3628,-9.7282,-1.5396,0.3534,-9.5794,-2.0688,-0.7162,-0.1488,0.5291,-0.562,1.0397,0.0782,237.0,-88.7,9.5,41.9,231.55,78.71,-164.3,,49.057,,,,NaN,,,,0 / 0,1611,2014-12-14 04:21:29:224
0.0294,-9.5321,-2.5203,0.3461,-9.5554,-2.1781,-0.4043,0.0797,-0.3982,-0.5095,0.9456,0.0183,237.0,-88.3,9.9,42.4,237.15,77.47,-170.94,,55.012,,,,NaN,,,,0 / 0,1661,2014-12-14 04:21:29:274
-0.2648,-9.3654,-2.991,0.3799,-9.4856,-2.4596,-0.6447,0.1202,-0.5315,-0.6634,0.4985,-0.1405,237.0,-88.3,9.9,45.8,237.12,76.27,-170.97,,55.012,,,,NaN,,,,0 / 0,1711,2014-12-14 04:21:29:324
0.2942,-10.1205,-2.6968,0.52,-9.3232,-2.9962,-0.1669,-1.111,0.5053,-0.5901,0.8784,-0.2211,145.0,-89.2,11.3,48.2,234.82,71.94,-170.15,,55.012,,,,NaN,,,,0 / 0,1762,2014-12-14 04:21:29:375
0.5099,-10.8462,-2.2849,0.5589,-9.3101,-3.0298,-0.0489,-1.536,0.7449,-0.5107,0.9688,-0.2639,145.0,-89.6,10.8,48.7,234.82,71.94,-170.15,,55.012,,,,NaN,,,,0 / 0,1811,2014-12-14 04:21:29:424
-1.5691,-11.0227,-1.5887,0.8678,-9.3436,-2.8485,-2.4369,-1.6791,1.2598,-0.1295,0.7905,-0.4447,145.0,-90.0,12.1,49.7,228.36,71.83,-164.35,,55.012,,,,NaN,,,,0 / 0,1862,2014-12-14 04:21:29:475
-1.6377,-11.4738,0.5001,0.8485,-9.3644,-2.7855,-2.957,-1.8839,2.001,0.0525,0.5852,-0.3946,145.0,-90.9,12.6,50.7,226.69,72.73,-163.06,,55.012,,,,NaN,,,,0 / 0,1912,2014-12-14 04:21:29:525
-0.2354,-14.0627,2.638,0.7352,-9.6467,-1.6032,-0.9705,-4.416,4.2412,1.361,0.5767,-0.4924,145.0,-90.5,15.2,49.2,218.2,79.64,-155.37,,55.012,,,,NaN,,,,0 / 0,1961,2014-12-14 04:21:29:574
0.0098,-14.6315,2.7753,0.7567,-9.6944,-1.2712,-0.7469,-4.9371,4.0465,1.8228,0.4948,-0.4655,99.0,-90.9,15.2,48.7,218.2,79.64,-155.37,,55.012,,,,NaN,,,,0 / 0,2011,2014-12-14 04:21:29:624
2.0986,-12.935,2.0006,0.7012,-9.778,0.2629,1.3974,-3.157,1.7377,2.9431,-0.1918,0.1894,99.0,-90.5,17.8,42.9,133.25,85.62,-69.45,,55.012,,,,NaN,,,,0 / 0,2062,2014-12-14 04:21:29:675
1.3141,-11.7876,-3.0793,0.6444,-9.7164,1.1607,0.6697,-2.0712,-4.24,2.6035,-0.92,0.7477,99.0,-87.9,19.5,38.0,94.01,82.22,-29.04,,55.012,,,,NaN,,,,0 / 0,2112,2014-12-14 04:21:29:725
1.3141,-11.7876,-3.0793,0.6444,-9.7164,1.1607,0.6697,-2.0712,-4.24,2.6035,-0.92,0.7477,99.0,-87.9,19.5,38.0,94.01,82.22,-29.04,,55.012,,,,NaN,,,,0 / 0,2161,2014-12-14 04:21:29:774
1.0493,-13.0625,-6.7666,0.5148,-9.6917,1.4061,0.5345,-3.3708,-8.1726,2.2614,-0.5534,0.9908,99.0,-87.0,19.5,35.6,85.8,81.22,-20.11,,55.012,,,,NaN,,,,0 / 0,2211,2014-12-14 04:21:29:824
0.5198,-10.6794,-1.7064,-0.082,-9.7232,1.2741,0.6018,-0.9563,-2.9805,1.9633,-0.9493,0.6658,553.0,-83.1,20.4,25.8,67.5,82.52,3.68,,61.117,,,,NaN,,,,0 / 0,2262,2014-12-14 04:21:29:875
2.7262,-7.3942,-1.0689,0.0127,-9.6332,1.8363,2.7135,2.239,-2.9052,1.3402,-1.2486,0.7953,553.0,-82.2,19.9,19.0,67.5,82.52,3.68,,61.117,,,,NaN,,,,0 / 0,2311,2014-12-14 04:21:29:924
2.0888,-6.2076,-1.5102,0.255,-9.646,1.7495,1.8846,3.4287,-3.3188,0.5192,-1.1887,0.4252,553.0,-81.4,18.6,10.7,80.33,79.21,-0.4,,61.117,,,,NaN,,,,0 / 0,2362,2014-12-14 04:21:29:975
1.8633,-6.9333,0.0588,0.5812,-9.6829,1.4402,1.2821,2.7496,-1.3814,-0.0024,-0.9065,0.1625,623.0,-82.7,17.8,9.7,103.02,80.89,-21.97,,61.117,,,,NaN,,,,0 / 0,2412,2014-12-14 04:21:30:025
1.6573,-7.3746,1.422,0.7137,-9.6975,1.2729,0.9436,2.3229,0.1491,-0.3958,-0.6988,0.2126,623.0,-83.1,18.2,9.7,103.02,80.89,-21.97,,61.117,,,,NaN,,,,0 / 0,2461,2014-12-14 04:21:30:074
2.8243,-12.6408,5.2073,1.1309,-9.6676,1.1953,-0.6265,-5.2693,4.4819,-1.1851,-0.1197,0.0513,623.0,-82.7,19.9,12.1,116.81,82.02,-36.97,,61.117,,,,NaN,,,,0 / 0,2511,2014-12-14 04:21:30:124
2.1771,-9.6301,4.5111,1.2116,-9.5762,1.7316,0.9655,-0.0539,2.7794,0.2126,-0.6597,-0.1014,236.0,-84.4,20.4,10.2,114.97,77.55,-34.98,,61.117,,,,NaN,,,,0 / 0,2561,2014-12-14 04:21:30:174
2.7851,-7.404,4.0305,1.2218,-9.5559,1.8339,1.5633,2.1518,2.1967,0.0806,-0.2944,-0.0745,236.0,-84.4,20.8,10.2,113.34,77.01,-33.67,,61.117,,,,NaN,,,,0 / 0,2624,2014-12-14 04:21:30:237
5.0995,-5.8644,0.5884,1.2218,-9.5559,1.8339,1.5633,2.1518,2.1967,-1.2156,0.5803,-0.369,236.0,-84.4,20.8,10.2,113.34,77.01,-33.67,,61.117,,,,NaN,,,,0 / 0,2662,2014-12-14 04:21:30:275
5.0995,-5.8644,0.5884,1.4406,-9.5097,1.9133,3.6588,3.6453,-1.3249,-1.2156,0.5803,-0.369,236.0,-84.8,21.3,10.2,116.41,75.86,-36.98,,61.117,,,,NaN,,,,0 / 0,2711,2014-12-14 04:21:30:324
5.0995,-5.8644,0.5884,1.4406,-9.5097,1.9133,3.6588,3.6453,-1.3249,-1.2156,0.5803,-0.369,236.0,-84.8,21.3,10.2,116.41,75.86,-36.98,,61.117,,,,NaN,,,,0 / 0,2762,2014-12-14 04:21:30:375
6.1194,-17.093,-6.2272,2.0127,-9.5129,1.2747,4.1067,-7.5801,-7.5019,-2.3555,1.3561,-0.4679,236.0,-85.3,23.4,13.6,134.75,75.94,-57.65,,61.117,,,,NaN,,,,0 / 0,2811,2014-12-14 04:21:30:424
2.4909,-18.4855,-5.4917,2.0823,-9.5401,0.906,0.4086,-8.9454,-6.3977,-1.9694,0.7807,0.1845,236.0,-85.3,23.9,15.1,143.51,76.61,-66.49,,61.117,,,,NaN,,,,0 / 0,2861,2014-12-14 04:21:30:474
-4.6287,-12.3956,-4.972,1.941,-9.6083,0.2883,-6.5698,-2.7873,-5.2602,-0.8589,1.091,0.8296,236.0,-84.0,24.3,16.0,159.24,78.46,-81.55,,61.117,,,,NaN,,,,0 / 0,2911,2014-12-14 04:21:30:524
1.3533,-4.3149,-3.6088,1.1625,-9.7319,-0.3314,0.1908,5.4169,-3.2775,-0.7709,-0.452,-0.4142,236.0,-83.1,25.6,16.0,185.24,82.92,-105.91,,61.117,,,,NaN,,,,0 / 0,2962,2014-12-14 04:21:30:575
-0.5786,-5.2858,-4.8445,1.2745,-9.696,-0.7306,-1.8531,4.4102,-4.1139,-1.361,0.215,-0.4386,153.0,-84.0,26.0,18.0,198.76,81.38,-119.82,,61.117,,,,NaN,,,,0 / 0,3011,2014-12-14 04:21:30:624
-0.5786,-5.2858,-4.8445,1.2745,-9.696,-0.7306,-1.8531,4.4102,-4.1139,-1.361,0.215,-0.4386,153.0,-84.0,26.0,18.0,198.76,81.38,-119.82,,61.117,,,,NaN,,,,0 / 0,3062,2014-12-14 04:21:30:675
-2.1869,-10.2578,-2.0104,1.1683,-9.6174,-1.5204,-1.2958,0.1539,-0.1957,-1.0177,0.777,0.3494,153.0,-82.7,27.3,22.9,219.79,78.72,-142.46,,61.117,,,,NaN,,,,0 / 0,3112,2014-12-14 04:21:30:725
1.6671,-9.3948,-1.5593,0.9986,-9.597,-1.7525,-1.3712,0.0649,1.3308,-0.5938,0.942,-0.0831,153.0,-83.1,28.6,25.8,226.43,78.13,-150.33,,61.117,,,,NaN,,,,0 / 0,3162,2014-12-14 04:21:30:775
0.3334,-9.738,-2.3634,0.7836,-9.5024,-2.2934,-0.4502,-0.2356,-0.07,-0.617,0.6341,-0.2162,153.0,-84.0,29.5,29.7,236.38,75.69,-161.14,,61.117,,,,NaN,,,,0 / 0,3212,2014-12-14 04:21:30:825
-0.0196,-10.6991,-2.2065,0.9586,-9.409,-2.5926,-0.9782,-1.29,0.3861,-0.661,0.8821,-0.3103,153.0,-85.7,30.4,32.1,236.38,75.69,-161.14,,61.117,,,,NaN,,,,0 / 0,3262,2014-12-14 04:21:30:875
-0.9905,-10.9638,-1.5004,0.9586,-9.409,-2.5926,-0.9782,-1.29,0.3861,-0.661,0.8821,-0.3103,153.0,-85.7,30.4,32.1,236.38,75.69,-161.14,,61.117,,,,NaN,,,,0 / 0,3312,2014-12-14 04:21:30:925
-0.1569,-14.2098,3.0597,0.9485,-9.6848,-1.2145,-1.1054,-4.525,4.2741,1.6591,0.4044,-0.4264,153.0,-92.2,32.1,28.7,232.44,74.17,-157.97,,63.728,,,,NaN,,,,0 / 0,3362,2014-12-14 04:21:30:975
0.8728,-11.9151,-2.0398,0.7317,-9.7382,0.896,0.141,-2.1769,-2.9358,2.7257,-0.7025,0.7648,153.0,-92.7,30.4,15.1,118.0,83.23,-39.24,,63.728,,,,NaN,,,,0 / 0,3412,2014-12-14 04:21:31:025
1.4514,-9.7478,-0.559,0.0504,-9.6753,1.5988,2.0702,1.1315,-2.3819,1.9169,-1.6298,0.8076,127.0,-89.6,22.1,-3.0,91.38,80.61,-1.81,,63.728,,,,NaN,,,,0 / 0,3462,2014-12-14 04:21:31:075
1.118,-6.4234,-2.0594,0.1054,-9.553,2.2135,1.0125,3.1296,-4.2729,1.3964,-1.4661,0.7587,127.0,-90.5,18.2,-8.3,91.38,80.61,-1.81,,63.728,,,,NaN,,,,0 / 0,3511,2014-12-14 04:21:31:124
1.0297,-6.3547,-1.8437,0.1057,-9.5532,2.2127,0.9239,3.1985,-4.0563,1.2437,-1.4306,0.7196,127.0,-91.4,17.8,-9.3,95.63,76.94,-2.74,,63.728,,,,NaN,,,,0 / 0,3562,2014-12-14 04:21:31:175
2.7753,-6.0115,-1.1278,0.2161,-9.6152,1.9161,2.5592,3.6037,-3.0439,-0.066,-1.124,0.3653,1096.0,-94.0,15.2,-11.3,101.11,78.66,-6.43,,63.728,,,,NaN,,,,0 / 0,3612,2014-12-14 04:21:31:225
1.8044,-7.1392,0.4707,0.6933,-9.7223,1.0797,1.7549,3.2412,-2.3875,-0.6023,-0.7318,0.485,1096.0,-95.7,16.5,-10.8,112.51,80.23,-17.87,,63.728,,,,NaN,,,,0 / 0,3662,2014-12-14 04:21:31:275
2.1182,-8.6789,3.805,0.6949,-9.7469,0.8279,1.4234,1.068,2.9771,-1.2242,0.171,0.5339,1096.0,-94.8,17.8,-9.3,112.51,80.23,-17.87,,63.728,,,,NaN,,,,0 / 0,3712,2014-12-14 04:21:31:325
1.7946,-11.4934,6.0605,0.7925,-9.7333,0.8968,1.0021,-1.76,5.1637,-1.0934,-0.2688,0.1869,1096.0,-94.8,19.5,-7.9,135.86,83.44,-42.1,,63.728,,,,NaN,,,,0 / 0,3761,2014-12-14 04:21:31:374
2.5595,-9.8753,4.9131,1.0485,-9.5802,1.8141,1.5111,-0.2951,3.099,0.1564,-0.8919,-0.1906,1096.0,-97.9,18.6,-7.9,122.05,77.66,-30.03,,63.728,,,,NaN,,,,0 / 0,3812,2014-12-14 04:21:31:425
-1.167,-4.3738,-4.1874,1.5205,-9.6679,-0.624,-2.6875,5.2942,-3.5634,-1.0763,0.4875,-0.1185,1096.0,-96.6,23.4,-0.5,203.52,80.35,-112.31,,63.728,,,,NaN,,,,0 / 0,3862,2014-12-14 04:21:31:475
-1.1866,-4.6484,-4.5797,1.4891,-9.6561,-0.8439,-3.5611,1.415,-1.892,-1.4551,0.6426,-0.3042,3762.0,-96.6,24.7,2.4,203.52,80.35,-112.31,,63.728,,,,NaN,,,,0 / 0,3911,2014-12-14 04:21:31:524
1.3631,-8.7475,-0.6472,0.6141,-9.6197,-1.8039,-0.9569,0.1097,1.7786,-0.788,0.4496,0.4569,3762.0,-95.7,26.5,5.3,234.8,77.44,-144.21,,60.657,,,,NaN,,,,0 / 0,3962,2014-12-14 04:21:31:575
-0.7845,-9.1888,-1.2749,0.7286,-9.5957,-1.8872,-1.5132,0.4069,0.6123,-0.5718,0.8772,0.0134,3762.0,-94.0,27.8,8.7,247.16,78.1,-158.89,,60.657,,,,NaN,,,,0 / 0,4012,2014-12-14 04:21:31:625
-0.4315,-9.179,-2.8341,0.6075,-9.5686,-2.0599,-0.9213,0.3602,-0.9017,-0.6634,0.5522,-0.0757,2776.0,-93.5,28.2,10.7,247.16,78.1,-158.89,,60.657,,,,NaN,,,,0 / 0,4062,2014-12-14 04:21:31:675
0.1765,-9.6007,-2.6772,0.6012,-9.5043,-2.3403,-0.4247,-0.0964,-0.3369,-0.8173,0.4386,-0.2468,2776.0,-93.1,28.6,11.7,253.05,75.74,-165.59,,60.657,,,,NaN,,,,0 / 0,4111,2014-12-14 04:21:31:724
0.2942,-10.5618,-2.1967,0.9806,-9.2864,-2.9951,-0.6864,-1.2753,0.7984,-0.8723,1.1008,-0.3702,2776.0,-94.0,31.3,17.0,248.54,71.25,-161.87,,60.657,,,,NaN,,,,0 / 0,4162,2014-12-14 04:21:31:775
-1.118,-11.1698,-0.8826,1.1175,-9.2911,-2.932,-2.2354,-1.8786,2.0494,-0.3751,0.8296,-0.5021,2776.0,-95.3,32.1,19.0,248.54,71.25,-161.87,,60.657,,,,NaN,,,,0 / 0,4212,2014-12-14 04:21:31:825
-0.5099,-11.1992,0.5394,1.0157,-9.4231,-2.5186,-1.5256,-1.7761,3.0579,-0.171,0.6756,-0.485,185.0,-94.8,32.1,19.5,243.62,72.19,-158.98,,60.657,,,,NaN,,,,0 / 0,4262,2014-12-14 04:21:31:875
-0.7943,-15.063,2.3928,0.9856,-9.6494,-1.4448,-1.7799,-5.4136,3.8376,0.8234,0.6158,-0.5901,185.0,-96.6,32.1,18.5,243.62,72.19,-158.98,,60.657,,,,NaN,,,,0 / 0,4312,2014-12-14 04:21:31:925
0.9905,-14.1902,2.942,0.7988,-9.7666,-0.3817,0.1916,-4.4236,3.3237,2.7306,-0.6842,0.4985,185.0,-95.7,28.2,4.3,229.86,79.73,-145.7,,60.657,,,,NaN,,,,0 / 0,4361,2014-12-14 04:21:31:974
1.8927,-12.2583,-4.3149,0.6245,-9.7164,1.1715,1.2681,-2.5419,-5.4864,2.4716,-0.7135,0.8234,185.0,-95.3,26.0,1.4,115.32,82.22,-28.06,,54.367,,,,NaN,,,,0 / 0,4412,2014-12-14 04:21:32:025
0.2354,-10.65,-2.3928,0.1561,-9.7254,1.2503,1.2681,-2.5419,-5.4864,2.4716,-0.7135,0.8234,185.0,-95.3,26.0,1.4,115.32,82.22,-28.06,,54.367,,,,NaN,,,,0 / 0,4462,2014-12-14 04:21:32:075
1.167,-10.2185,-0.4903,-0.0207,-9.7122,1.3574,1.1876,-0.5063,-1.8477,1.8436,-1.0727,0.8564,185.0,-91.8,19.5,-8.8,92.96,82.04,0.87,,54.367,,,,NaN,,,,0 / 0,4512,2014-12-14 04:21:32:125
1.1376,-6.3939,-2.9028,0.0623,-9.6132,1.9374,1.0753,3.2192,-4.8401,1.201,-1.6115,0.7611,185.0,-94.0,11.7,-16.1,99.88,78.6,-1.84,,54.367,,,,NaN,,,,0 / 0,4562,2014-12-14 04:21:32:175
2.1673,-6.3351,-1.4808,0.1305,-9.6964,1.4607,2.0368,3.3613,-2.9415,0.2651,-1.1081,0.463,185.0,-97.9,8.2,-17.1,104.12,81.4,-5.1,,54.367,,,,NaN,,,,0 / 0,4611,2014-12-14 04:21:32:224
1.824,-7.2177,-0.7943,0.1305,-9.6964,1.4607,2.0368,3.3613,-2.9415,0.2651,-1.1081,0.463,185.0,-97.9,8.2,-17.1,104.12,81.4,-5.1,,54.367,,,,NaN,,,,0 / 0,4662,2014-12-14 04:21:32:275
1.7554,-7.7865,0.3236,0.4078,-9.7635,0.8239,1.3475,1.977,-0.5003,-0.5657,-1.146,0.4606,185.0,-100.5,8.6,-17.1,117.48,83.53,-18.34,,54.367,,,,NaN,,,,0 / 0,4712,2014-12-14 04:21:32:325
2.8145,-9.8557,5.3446,0.4078,-9.7635,0.8239,1.3475,1.977,-0.5003,-0.7734,-0.5095,0.0208,185.0,-100.5,11.3,-14.2,117.48,84.25,-50.77,,54.367,,,,NaN,,,,0 / 0,4762,2014-12-14 04:21:32:375
2.1771,-13.6607,6.3155,0.7606,-9.7574,0.6209,1.7989,-2.4519,5.6455,-0.4398,-0.9126,-0.1014,185.0,-101.4,11.3,-14.2,148.21,84.25,-50.77,,54.367,,,,NaN,,,,0 / 0,4812,2014-12-14 04:21:32:425
2.1771,-13.6607,6.3155,0.8486,-9.7382,0.7857,1.3284,-3.9224,5.5298,0.0489,-0.562,-0.2651,185.0,-101.8,11.3,-13.2,143.85,83.23,-47.21,,57.44,,,,NaN,,,,0 / 0,4861,2014-12-14 04:21:32:474
2.1771,-13.6607,6.3155,0.8486,-9.7382,0.7857,1.3284,-3.9224,5.5298,0.0489,-0.562,-0.2651,185.0,-101.8,11.3,-13.2,143.85,83.23,-47.21,,57.44,,,,NaN,,,,0 / 0,4911,2014-12-14 04:21:32:524
3.2558,-13.3469,-5.1681,1.6067,-9.5904,1.27,1.6491,-3.7564,-6.4381,-1.4612,0.7636,0.1356,51.0,-107.4,8.6,-10.3,131.91,78.36,-36.25,,57.44,,,,NaN,,,,0 / 0,4962,2014-12-14 04:21:32:575
0.5198,-9.7282,-2.6576,0.6425,-9.4727,-2.4548,-0.1227,-0.2555,-0.2028,-1.1582,0.5644,-0.4117,36.0,-101.8,14.3,-0.5,257.81,75.0,-165.33,,57.44,,,,NaN,,,,0 / 0,5165,2014-12-14 04:21:32:778
0.5198,-9.7282,-2.6576,0.6425,-9.4727,-2.4548,-0.1227,-0.2555,-0.2028,-1.1582,0.5644,-0.4117,36.0,-101.8,14.3,-0.5,257.81,75.0,-165.33,,57.44,,,,NaN,,,,0 / 0,5168,2014-12-14 04:21:32:781
0.5198,-9.7282,-2.6576,0.6425,-9.4727,-2.4548,-0.1227,-0.2555,-0.2028,-1.1582,0.5644,-0.4117,36.0,-101.8,14.3,-0.5,257.81,75.0,-165.33,,57.44,,,,NaN,,,,0 / 0,5171,2014-12-14 04:21:32:784
0.5198,-9.7282,-2.6576,0.6425,-9.4727,-2.4548,-0.1227,-0.2555,-0.2028,-1.1582,0.5644,-0.4117,36.0,-101.8,14.3,-0.5,257.81,75.0,-165.33,,57.44,,,,NaN,,,,0 / 0,5173,2014-12-14 04:21:32:786
-0.1961,-10.5421,-2.5693,0.8011,-9.3694,-2.7825,-0.9972,-1.1727,0.2131,-1.1301,0.5253,-0.3995,36.0,-102.7,14.7,1.9,257.81,75.0,-165.33,,57.44,,,,NaN,,,,0 / 0,5211,2014-12-14 04:21:32:824
-0.7355,-10.6794,-2.0986,0.8606,-9.2865,-3.0317,-1.5961,-1.393,0.9331,-1.1228,0.7782,-0.2957,36.0,-102.7,15.6,3.9,255.61,71.25,-164.15,,57.44,,,,NaN,,,,0 / 0,5262,2014-12-14 04:21:32:875
-0.049,-10.6304,-1.4318,0.9517,-9.2446,-3.1307,-1.1086,-1.376,1.7675,-0.7636,0.8858,-0.4154,36.0,-103.5,16.0,7.3,253.16,70.51,-163.09,,60.492,,,,NaN,,,,0 / 0,5311,2014-12-14 04:21:32:924
-0.0883,-10.6304,-1.2062,0.999,-9.2454,-3.1138,-1.0873,-1.385,1.9076,-0.6451,1.0336,-0.4667,25.0,-103.1,16.0,7.3,253.16,70.51,-163.09,,60.492,,,,NaN,,,,0 / 0,5362,2014-12-14 04:21:32:975
-1.1376,-10.8756,-0.2157,1.2165,-9.331,-2.7611,-2.3541,-1.5446,2.5453,-0.0819,0.7074,-0.4924,25.0,-104.8,16.0,8.7,244.96,72.08,-156.22,,60.492,,,,NaN,,,,0 / 0,5411,2014-12-14 04:21:33:024
1.4906,-13.4155,2.9714,0.9052,-9.7378,-0.7256,0.5854,-3.6777,3.6971,2.6108,0.121,0.2272,25.0,-107.4,11.7,7.8,244.96,72.08,-156.22,,60.492,,,,NaN,,,,0 / 0,5462,2014-12-14 04:21:33:075
1.7652,-11.5032,-1.4906,0.7918,-9.7664,0.4019,0.9734,-1.7368,-1.8926,2.6524,-0.6903,0.5974,25.0,-107.9,9.1,4.8,150.12,84.81,-63.08,,60.492,,,,NaN,,,,0 / 0,5511,2014-12-14 04:21:33:124
0.4119,-11.7288,-5.4329,0.4942,-9.7495,0.9342,-0.0824,-1.9792,-6.3671,2.1075,0.1417,1.0544,25.0,-107.9,6.9,2.9,115.8,83.81,-27.88,,60.492,,,,NaN,,,,0 / 0,5562,2014-12-14 04:21:33:175
2.2948,-9.3163,-0.8041,0.2005,-9.729,1.2154,2.0943,0.4127,-2.0195,1.9303,-1.5479,0.7953,25.0,-108.3,5.6,1.4,98.37,82.78,-9.37,,60.492,,,,NaN,,,,0 / 0,5611,2014-12-14 04:21:33:224
1.4808,-6.7764,-2.5399,0.2282,-9.6668,1.6344,1.2526,2.8904,-4.1743,1.4649,-1.6493,0.8735,25.0,-109.2,5.2,0.9,98.37,82.78,-9.37,,60.492,,,,NaN,,,,0 / 0,5661,2014-12-14 04:21:33:274
1.2062,-6.6783,-2.6968,0.2303,-9.6642,1.6491,0.9759,2.9859,-4.346,1.3744,-1.7006,0.8491,25.0,-109.2,5.6,0.9,96.79,80.22,-7.95,,60.492,,,,NaN,,,,0 / 0,5711,2014-12-14 04:21:33:324
1.2749,-6.6195,-2.0888,0.1922,-9.7061,1.3872,1.0827,3.0866,-3.476,0.5156,-1.6958,0.4765,55.0,-112.2,5.6,1.9,96.36,81.79,-7.89,,57.948,,,,NaN,,,,0 / 0,5762,2014-12-14 04:21:33:375
1.775,-8.4337,1.5102,0.2223,-9.7725,0.7872,1.5527,1.3388,0.723,-0.2639,-0.8247,0.6536,55.0,-113.1,8.6,3.9,96.36,81.79,-7.89,,57.948,,,,NaN,,,,0 / 0,5812,2014-12-14 04:21:33:425
1.9908,-8.2768,2.2065,0.218,-9.7753,0.7529,1.7728,1.4985,1.4536,-0.3848,-0.5583,0.661,55.0,-113.1,9.1,4.3,103.72,85.42,-16.15,,57.948,,,,NaN,,,,0 / 0,5862,2014-12-14 04:21:33:475
2.03,-9.8949,3.5108,0.5488,-9.7413,0.9884,1.4812,-0.1536,2.5224,-0.6622,-0.832,0.1234,55.0,-113.1,12.6,7.8,103.72,85.42,-16.15,,57.948,,,,NaN,,,,0 / 0,5911,2014-12-14 04:21:33:524
1.9711,-10.8658,3.55,0.6254,-9.7312,1.0411,1.3457,-1.1346,2.5089,-0.4545,-1.2449,-0.066,40.0,-114.0,14.3,9.2,115.52,82.89,-30.99,,57.948,,,,NaN,,,,0 / 0,5961,2014-12-14 04:21:33:574
3.2558,-6.6097,3.4421,1.0959,-9.6197,1.5591,2.1599,3.01,1.883,-0.4166,0.0538,-0.0867,40.0,-115.7,16.0,10.7,117.86,78.79,-35.1,,57.948,,,,NaN,,,,0 / 0,6011,2014-12-14 04:21:33:624
3.1774,-14.4648,-5.4329,1.6316,-9.6115,1.0613,1.5457,-4.8533,-6.4942,-0.3848,0.9945,0.044,40.0,-117.0,18.2,12.1,117.86,78.79,-35.1,,57.948,,,,NaN,,,,0 / 0,6062,2014-12-14 04:21:33:675
1.5396,-10.1597,-5.1877,1.6212,-9.6331,0.8629,-0.0816,-0.5265,-6.0506,-0.3519,1.4661,0.3201,40.0,-116.6,18.2,11.7,144.68,79.21,-61.97,,57.948,,,,NaN,,,,0 / 0,6111,2014-12-14 04:21:33:724
-1.9319,-1.2258,-7.7473,1.2173,-9.7196,-0.4666,-3.1492,8.4938,-7.2806,-0.9982,1.1167,0.4264,40.0,-113.5,20.8,10.7,195.93,82.36,-110.97,,57.948,,,,NaN,,,,0 / 0,6161,2014-12-14 04:21:33:774
-2.0594,-3.3048,-7.0608,1.1181,-9.7069,-0.8342,-3.1775,6.4021,-6.2266,-1.1741,0.8601,0.4313,29.0,-113.1,21.3,11.2,195.93,82.36,-110.97,,57.948,,,,NaN,,,,0 / 0,6212,2014-12-14 04:21:33:825
1.4416,-8.1591,-0.6276,0.3687,-9.6805,-1.5239,1.2985,1.9332,-0.2118,-0.0696,0.9737,0.1246,29.0,-110.9,23.0,11.2,254.1,80.28,-167.59,,62.952,,,,NaN,,,,0 / 0,6262,2014-12-14 04:21:33:875
0.0098,-9.1888,-2.5693,0.3687,-9.6805,-1.5239,1.2985,1.9332,-0.2118,-0.6817,0.2553,-0.033,29.0,-110.5,24.3,12.6,251.79,80.8,-166.4,,62.952,,,,NaN,,,,0 / 0,6312,2014-12-14 04:21:33:925
-1.5887,-11.0325,-0.9807,0.5762,-9.5744,-2.0419,-2.1649,-1.4581,1.0612,-0.336,0.4142,-0.0293,29.0,-110.0,24.7,13.6,250.12,77.51,-164.24,,62.952,,,,NaN,,,,0 / 0,6362,2014-12-14 04:21:33:975
-0.353,-10.9442,-0.7649,0.2719,-9.6015,-1.9767,-0.6249,-0.2738,0.643,0.3897,-0.1381,-0.1124,22.0,-110.9,25.2,14.6,257.89,78.26,-172.17,,62.952,,,,NaN,,,,0 / 0,6411,2014-12-14 04:21:34:024
-0.9611,-10.9442,-0.7649,0.2652,-9.6439,-1.7596,-1.2263,-1.3004,0.9947,0.3897,-0.1381,-0.1124,22.0,-110.9,25.2,14.6,257.89,78.26,-172.17,,62.952,,,,NaN,,,,0 / 0,6461,2014-12-14 04:21:34:074
-0.5982,-9.7772,-1.9809,0.1369,-9.7029,-1.4164,-0.7352,-0.0744,-0.5646,0.8259,-0.2272,-0.1686,22.0,-110.9,25.2,12.6,259.75,81.66,-174.48,,62.952,,,,NaN,,,,0 / 0,6511,2014-12-14 04:21:34:124
1.1376,-8.826,-1.1768,0.1326,-9.7629,-0.9163,1.005,0.9369,-0.2605,1.1044,0.0696,0.0293,22.0,-110.9,23.4,9.2,258.28,84.58,-171.77,,62.952,,,,NaN,,,,0 / 0,6561,2014-12-14 04:21:34:174
1.9221,-9.787,-3.4029,0.3181,-9.7693,-0.7936,1.604,-0.0177,-2.6093,0.3274,0.4166,-0.0024,22.0,-110.0,23.0,6.8,245.55,85.0,-158.16,,62.952,,,,NaN,,,,0 / 0,6611,2014-12-14 04:21:34:224
0.2354,-11.0031,0.2844,0.5562,-9.726,-1.125,-0.3208,-1.277,1.4094,-0.0257,0.4728,-0.033,22.0,-109.6,23.0,8.2,245.55,85.0,-158.16,,62.952,,,,NaN,,,,0 / 0,6662,2014-12-14 04:21:34:275
0.8826,-9.5517,0.9414,0.6106,-9.7527,-0.8264,0.272,0.201,1.7678,0.2651,-0.1087,-0.1857,22.0,-110.0,23.0,7.3,241.61,82.65,-153.69,,62.952,,,,NaN,,,,0 / 0,6712,2014-12-14 04:21:34:325
1.2945,-8.9241,1.4024,0.6503,-9.764,-0.6416,0.6442,0.84,2.044,0.2944,-0.0648,-0.0806,26.0,-110.0,22.1,7.8,221.28,84.65,-134.61,,62.952,,,,NaN,,,,0 / 0,6762,2014-12-14 04:21:34:375
-0.2942,-9.7772,0.5884,0.7306,-9.7773,-0.2036,-1.0248,0.0,0.792,-0.0916,0.6646,0.1002,26.0,-109.6,22.6,5.3,193.22,85.56,-105.57,,53.311,,,,NaN,,,,0 / 0,6812,2014-12-14 04:21:34:425
-0.7257,-10.7187,0.7257,0.6418,-9.7853,-0.0819,-1.3675,-0.9334,0.8076,0.0953,-0.1918,-0.1344,26.0,-109.2,21.7,5.8,193.22,85.56,-105.57,,53.311,,,,NaN,,,,0 / 0,6862,2014-12-14 04:21:34:475
-0.1177,-9.2477,1.1278,0.504,-9.7911,0.2273,-0.6217,0.5434,0.9005,-0.0171,-0.1833,-0.0904,26.0,-109.6,22.1,6.3,152.26,86.77,-65.72,,53.311,,,,NaN,,,,0 / 0,6911,2014-12-14 04:21:34:524
1.4514,-10.0812,0.5688,0.4818,-9.7883,0.3583,0.9696,-0.293,0.2105,0.0806,0.1038,-0.022,26.0,-109.6,21.7,7.3,139.21,86.49,-53.36,,53.311,,,,NaN,,,,0 / 0,6962,2014-12-14 04:21:34:575
1.726,-9.993,0.9316,0.6199,-9.7769,0.4464,1.106,-0.2161,0.4853,0.1038,0.0855,-0.0122,26.0,-109.6,22.1,6.8,139.95,85.53,-54.25,,53.311,,,,NaN,,,,0 / 0,7011,2014-12-14 04:21:34:624
0.304,-9.9341,0.3236,0.737,-9.7629,0.559,-0.433,-0.1712,-0.2353,0.0819,0.0195,0.0464,26.0,-109.2,21.7,6.8,138.3,84.59,-52.82,,53.311,,,,NaN,,,,0 / 0,7061,2014-12-14 04:21:34:674
0.304,-9.9341,0.3236,0.737,-9.7629,0.559,-0.433,-0.1712,-0.2353,0.0819,0.0195,0.0464,26.0,-109.2,21.7,6.8,138.3,84.59,-52.82,,53.311,,,,NaN,,,,0 / 0,7112,2014-12-14 04:21:34:725
0.2354,-9.8066,0.6865,0.6079,-9.7731,0.5367,-0.3725,-0.0336,0.1498,-0.0024,0.1417,-0.0061,26.0,-109.2,22.6,6.8,134.07,85.26,-48.56,,53.311,,,,NaN,,,,0 / 0,7161,2014-12-14 04:21:34:774
0.5198,-10.1107,0.7453,0.5585,-9.7739,0.5736,-0.0387,-0.3367,0.1717,0.0269,0.0721,-0.033,26.0,-109.2,22.1,6.8,129.74,85.32,-44.23,,53.311,,,,NaN,,,,0 / 0,7211,2014-12-14 04:21:34:824
0.3334,-9.8851,0.5688,0.5737,-9.7709,0.6094,-0.2403,-0.1142,-0.0406,-0.0195,0.0733,-0.0428,26.0,-108.7,22.1,6.8,128.72,85.1,-43.27,,45.316,,,,NaN,,,,0 / 0,7261,2014-12-14 04:21:34:874
0.4511,-9.9145,0.5296,0.5356,-9.775,0.5767,-0.0845,-0.1395,-0.0471,-0.0073,0.0403,-0.0244,26.0,-108.7,22.6,6.8,128.36,85.4,-42.88,,45.316,,,,NaN,,,,0 / 0,7311,2014-12-14 04:21:34:924
0.4903,-9.9341,0.4903,0.5317,-9.7755,0.5722,-0.0414,-0.1586,-0.0818,0.0024,0.0391,-0.0305,26.0,-109.2,22.6,7.3,128.36,85.4,-42.88,,45.316,,,,NaN,,,,0 / 0,7361,2014-12-14 04:21:34:974
0.5296,-9.8949,0.4609,0.5423,-9.7762,0.5497,-0.0324,-0.0795,-0.2457,0.0024,0.0391,-0.0305,26.0,-109.2,23.0,6.8,130.12,85.48,-44.61,,45.316,,,,NaN,,,,0 / 0,7411,2014-12-14 04:21:35:024
0.4903,-9.993,0.3923,0.5323,-9.7794,0.5002,-0.2087,-0.292,-0.1766,0.0244,0.0024,-0.011,26.0,-108.7,22.6,7.3,130.12,85.48,-44.61,,45.316,,,,NaN,,,,0 / 0,7461,2014-12-14 04:21:35:074
0.5492,-9.8851,0.4609,0.5142,-9.7813,0.4826,0.035,-0.1038,-0.0217,0.0073,0.0525,-0.0134,26.0,-109.2,22.6,7.3,132.43,85.88,-46.82,,45.316,,,,NaN,,,,0 / 0,7512,2014-12-14 04:21:35:125
0.4805,-9.9636,0.4609,0.5107,-9.7814,0.4825,-0.0302,-0.1821,-0.0216,0.011,-0.0232,-0.0244,26.0,-109.6,22.6,7.3,132.28,85.89,-46.63,,45.316,,,,NaN,,,,0 / 0,7562,2014-12-14 04:21:35:175