ACCELEROMETER X (m/s²),ACCELEROMETER Y (m/s²),ACCELEROMETER Z (m/s²),GRAVITY X (m/s²),GRAVITY Y (m/s²),GRAVITY Z (m/s²),LINEAR ACCELERATION X (m/s²),LINEAR ACCELERATION Y (m/s²),LINEAR ACCELERATION Z (m/s²),GYROSCOPE X (rad/s),GYROSCOPE Y (rad/s),GYROSCOPE Z (rad/s),LIGHT (lux),MAGNETIC FIELD X (μT),MAGNETIC FIELD Y (μT),MAGNETIC FIELD Z (μT),ORIENTATION X (°),ORIENTATION Y (°),ORIENTATION Z (°),PROXIMITY (i),SOUND LEVEL (dB),LOCATION Latitude : ,LOCATION Longitude : ,LOCATION Altitude ( m),LOCATION Altitude-google ( m),LOCATION Speed ( Kmh),LOCATION Accuracy ( m),LOCATION ORIENTATION (°),Satellites in range,Time since start in ms ,YYYY-MO-DD HH-MI-SS_SSS
0.1765,-9.9538,0.3138,0.7633,-9.776,0.1342,-0.5868,-0.1778,0.1796,-0.0098,-0.0403,-0.044,221.0,-86.6,32.6,80.9,125.97,85.47,-80.03,,57.142,,,,NaN,,,,0 / 0,10,2014-12-14 04:24:49:587
0.1961,-9.8949,0.3628,0.7711,-9.7756,0.1151,-0.575,-0.1193,0.2478,-0.0183,-0.0379,-0.0232,221.0,-87.0,32.6,80.9,127.46,85.44,-81.51,,57.142,,,,NaN,,,,0 / 0,60,2014-12-14 04:24:49:637
0.2256,-10.0028,0.2844,0.7882,-9.7749,0.0365,-0.5626,-0.2279,0.2479,-0.0379,-0.0318,-0.044,221.0,-87.0,32.1,81.9,133.05,85.39,-87.35,,57.142,,,,NaN,,,,0 / 0,109,2014-12-14 04:24:49:686
0.1961,-9.9047,0.2157,0.797,-9.7742,0.0202,-0.6008,-0.1305,0.1956,-0.0391,-0.0391,-0.0489,221.0,-87.4,32.1,81.9,133.05,85.39,-87.35,,57.142,,,,NaN,,,,0 / 0,159,2014-12-14 04:24:49:736
0.1471,-10.0224,0.3727,0.808,-9.7733,-0.0253,-0.6609,-0.2491,0.398,-0.0464,-0.0415,-0.0305,221.0,-87.4,31.7,82.4,137.54,85.27,-91.8,,57.142,,,,NaN,,,,0 / 0,209,2014-12-14 04:24:49:786
0.3432,-9.8361,0.5001,0.8178,-9.7724,-0.0425,-0.6707,-0.1323,0.3955,-0.0379,-0.0354,-0.0403,221.0,-87.0,31.7,82.4,138.72,85.21,-92.98,,57.142,,,,NaN,,,,0 / 0,259,2014-12-14 04:24:49:836
0.3432,-9.8459,0.5492,0.8261,-9.7715,-0.0793,-0.4829,-0.0744,0.6284,-0.0611,-0.077,-0.0538,221.0,-87.9,31.3,83.4,141.28,85.15,-95.48,,57.142,,,,NaN,,,,0 / 0,309,2014-12-14 04:24:49:886
-1.118,-10.1107,0.8532,0.84,-9.7702,-0.0878,-1.958,-0.3404,0.941,-0.0843,-0.1515,-0.0672,221.0,-87.4,31.3,83.4,141.28,85.15,-95.48,,57.142,,,,NaN,,,,0 / 0,359,2014-12-14 04:24:49:936
0.7061,-9.8851,0.4805,0.7097,-9.7808,-0.0427,-0.0037,-0.1043,0.5232,0.0574,-0.2737,-0.121,221.0,-86.6,30.8,83.4,141.07,85.06,-95.97,,36.637,,,,NaN,,,,0 / 0,409,2014-12-14 04:24:49:986
0.7845,-10.0714,0.1863,0.7557,-9.7774,-0.0292,0.7643,-0.1567,0.6372,0.0244,-0.171,-0.1234,221.0,-86.6,31.3,83.9,137.36,85.58,-92.21,,36.637,,,,NaN,,,,0 / 0,459,2014-12-14 04:24:50:036
0.353,-9.8066,-0.2844,1.1416,-9.7365,-0.2617,-1.122,-0.2173,0.4872,-0.3225,0.1539,-0.3164,221.0,-88.3,30.8,84.8,147.79,83.14,-102.91,,36.637,,,,NaN,,,,0 / 0,510,2014-12-14 04:24:50:087
-0.3825,-10.0322,0.3825,1.1719,-9.731,-0.3247,-1.5544,-0.3012,0.7072,-0.358,0.1454,-0.3323,221.0,-89.2,30.4,85.8,147.79,83.14,-102.91,,36.637,,,,NaN,,,,0 / 0,559,2014-12-14 04:24:50:136
-0.2059,-9.787,0.5001,1.1553,-9.728,-0.4495,-1.3613,-0.0591,0.9497,-0.3494,0.1234,-0.3567,221.0,-90.9,29.5,87.3,152.77,82.78,-107.47,,36.637,,,,NaN,,,,0 / 0,610,2014-12-14 04:24:50:187
0.2354,-10.0028,0.7845,1.2016,-9.7199,-0.4992,-0.9662,-0.2828,1.2837,-0.3189,-0.0147,-0.3225,221.0,-91.4,29.1,87.3,158.01,82.38,-112.56,,36.637,,,,NaN,,,,0 / 0,660,2014-12-14 04:24:50:237
0.304,-10.0028,0.8041,1.2168,-9.7182,-0.4957,-0.9128,-0.2846,1.2998,-0.2871,-0.033,-0.3286,221.0,-91.4,29.1,88.2,158.01,82.38,-112.56,,36.637,,,,NaN,,,,0 / 0,709,2014-12-14 04:24:50:286
1.118,-11.0521,0.8336,1.3904,-9.7035,-0.2818,-0.2724,-1.3486,1.1154,0.1307,-0.1173,-0.1319,221.0,-92.2,28.6,87.8,146.4,81.68,-101.46,,36.637,,,,NaN,,,,0 / 0,760,2014-12-14 04:24:50:337
1.0591,-11.1698,0.8434,1.4226,-9.701,-0.1946,-0.3635,-1.4688,1.038,0.237,-0.4581,-0.1283,221.0,-91.8,29.5,88.2,146.4,81.68,-101.46,,36.637,,,,NaN,,,,0 / 0,809,2014-12-14 04:24:50:386
0.3825,-11.3659,0.4903,1.4514,-9.6981,0.0995,-1.0689,-1.6678,0.3908,0.5999,-0.3128,-0.0819,221.0,-90.5,29.9,84.8,130.83,81.47,-86.08,,36.637,,,,NaN,,,,0 / 0,859,2014-12-14 04:24:50:436
0.5688,-11.1305,0.3138,1.4143,-9.7013,0.2362,-0.8455,-1.4293,0.0776,1.1301,-0.8283,0.0257,221.0,-90.5,30.8,83.9,130.83,81.47,-86.08,,42.542,,,,NaN,,,,0 / 0,910,2014-12-14 04:24:50:487
3.7069,-8.6004,-0.0785,1.4606,-9.675,0.6573,2.2463,1.0745,-0.7357,1.0556,-0.9041,0.0599,221.0,-89.2,33.0,79.9,111.12,80.6,-65.77,,42.542,,,,NaN,,,,0 / 0,960,2014-12-14 04:24:50:537
2.3046,-9.1888,-0.1765,1.791,-9.605,0.8409,-0.7552,0.1856,-1.3743,0.7416,0.0806,0.2443,221.0,-87.0,35.6,74.1,111.12,80.6,-65.77,,42.542,,,,NaN,,,,0 / 0,1009,2014-12-14 04:24:50:586
0.2157,-9.3457,-0.0392,1.771,-9.6038,0.8953,-1.516,0.209,-1.0816,0.5657,0.0391,0.4191,436.0,-87.0,36.5,72.1,110.09,78.08,-63.72,,42.542,,,,NaN,,,,0 / 0,1059,2014-12-14 04:24:50:636
1.5495,-8.2376,1.0983,1.4951,-9.6509,0.8915,0.1416,1.426,0.2017,0.2065,-0.6109,0.3262,436.0,-83.5,36.9,67.8,106.2,79.78,-59.19,,42.542,,,,NaN,,,,0 / 0,1110,2014-12-14 04:24:50:687
1.9515,-8.267,1.4514,1.4745,-9.6553,0.8783,0.3005,1.0451,0.9849,-0.1772,-0.2187,0.3067,436.0,-82.2,36.5,66.8,106.31,79.92,-59.22,,42.542,,,,NaN,,,,0 / 0,1159,2014-12-14 04:24:50:736
1.7162,-8.8162,2.0692,1.4989,-9.6504,0.8912,-0.1652,0.9028,1.4722,-0.3616,-0.1332,0.3665,436.0,-80.9,36.0,67.3,106.31,79.92,-59.22,,42.542,,,,NaN,,,,0 / 0,1210,2014-12-14 04:24:50:787
1.1866,-9.0319,2.589,1.4277,-9.6607,0.8962,-0.1333,-0.0969,1.8105,-0.6463,-0.4985,0.3421,436.0,-79.6,35.2,68.2,104.13,79.86,-58.12,,42.542,,,,NaN,,,,0 / 0,1259,2014-12-14 04:24:50:836
1.1866,-9.0319,2.589,1.4277,-9.6607,0.8962,-0.1333,-0.0969,1.8105,-0.6463,-0.4985,0.3421,436.0,-79.6,35.2,68.2,104.13,79.86,-58.12,,42.542,,,,NaN,,,,0 / 0,1309,2014-12-14 04:24:50:886
1.775,-9.9734,2.5203,1.4321,-9.6509,0.9895,0.343,-0.3224,1.5308,-0.6597,0.3201,-0.0305,522.0,-77.9,33.9,69.7,101.46,80.03,-56.35,,49.076,,,,NaN,,,,0 / 0,1359,2014-12-14 04:24:50:936
1.775,-9.9734,2.5203,1.4321,-9.6509,0.9895,0.343,-0.3224,1.5308,-0.6597,0.3201,-0.0305,522.0,-77.9,33.9,69.7,101.46,80.03,-56.35,,49.076,,,,NaN,,,,0 / 0,1409,2014-12-14 04:24:50:986
-4.5699,-8.012,-4.717,1.7404,-9.6355,0.547,0.6623,0.3878,-5.7347,-0.7343,1.5149,0.0061,522.0,-80.9,32.6,72.1,117.59,79.28,-72.55,,49.076,,,,NaN,,,,0 / 0,1459,2014-12-14 04:24:51:036
-5.6879,-11.0325,-6.0115,2.1348,-9.4765,-1.3453,-7.8226,-1.556,-4.6662,-1.5088,0.4435,0.2334,271.0,-84.4,29.9,76.5,168.56,75.09,-122.22,,49.076,,,,NaN,,,,0 / 0,1509,2014-12-14 04:24:51:086
2.4419,-9.0417,-1.2749,1.0051,-9.529,-2.0878,1.4368,0.4873,0.8129,-0.7501,1.3488,0.3286,271.0,-85.3,28.6,78.5,168.56,75.09,-122.22,,49.076,,,,NaN,,,,0 / 0,1559,2014-12-14 04:24:51:136
2.2163,-8.8456,-2.1967,1.1589,-9.4926,-2.1719,1.0574,0.647,-0.0248,-0.7001,0.0721,-0.1735,271.0,-86.6,26.5,80.4,201.12,75.46,-151.92,,49.076,,,,NaN,,,,0 / 0,1610,2014-12-14 04:24:51:187
0.0686,-10.7873,-2.5791,1.5018,-9.2631,-2.8477,-1.4332,-1.5242,0.2685,-0.6915,0.8699,-0.2162,271.0,-90.0,24.3,82.9,202.02,70.83,-152.19,,49.076,,,,NaN,,,,0 / 0,1659,2014-12-14 04:24:51:236
0.0686,-10.7873,-2.5791,1.5018,-9.2631,-2.8477,-1.4332,-1.5242,0.2685,-0.6915,0.8699,-0.2162,123.0,-90.0,24.3,82.9,202.02,70.83,-152.19,,49.076,,,,NaN,,,,0 / 0,1709,2014-12-14 04:24:51:286
-0.3432,-9.7674,-2.991,1.5076,-9.1043,-3.318,-1.439,-0.625,1.4343,-0.6536,0.347,-0.3079,123.0,-90.9,22.6,84.8,203.2,70.08,-153.56,,49.076,,,,NaN,,,,0 / 0,1759,2014-12-14 04:24:51:336
0.4217,-10.0616,-1.8829,1.5382,-9.008,-3.558,-1.1165,-1.0536,1.6752,-0.7379,0.7831,-0.38,123.0,-94.8,19.5,86.3,208.14,66.72,-156.62,,49.076,,,,NaN,,,,0 / 0,1809,2014-12-14 04:24:51:386
-0.4217,-10.5912,-0.6963,1.7112,-9.035,-3.4075,-2.1329,-1.5562,2.7112,-0.6817,0.8296,-0.4019,123.0,-95.3,19.1,87.8,208.14,66.72,-156.62,,49.076,,,,NaN,,,,0 / 0,1860,2014-12-14 04:24:51:437
-0.5001,-10.1401,-0.4021,1.6673,-9.2013,-2.9542,-2.2881,-1.3863,2.3349,-0.1552,0.38,-0.5473,61.0,-99.2,16.9,88.2,203.4,67.92,-152.37,,59.795,,,,NaN,,,,0 / 0,1919,2014-12-14 04:24:51:496
-0.0098,-10.1597,1.1082,1.6585,-9.2372,-2.8449,-1.6683,-0.9225,3.9531,0.3189,0.3592,-0.452,61.0,-100.5,15.6,86.8,200.67,70.38,-149.76,,59.795,,,,NaN,,,,0 / 0,1959,2014-12-14 04:24:51:536
0.0686,-13.9941,1.6083,1.6752,-9.3436,-2.4618,-1.6066,-4.6504,4.0701,0.9725,0.4899,-0.4044,61.0,-100.9,15.6,85.3,200.67,70.38,-149.76,,59.795,,,,NaN,,,,0 / 0,2010,2014-12-14 04:24:51:587
0.0981,-14.7884,1.6769,1.6578,-9.4883,-1.8425,-1.5598,-5.3002,3.5195,1.9303,0.6793,-0.1686,61.0,-101.4,16.5,82.4,189.57,75.36,-138.02,,59.795,,,,NaN,,,,0 / 0,2060,2014-12-14 04:24:51:637
2.1477,-11.8268,1.0297,1.377,-9.7032,-0.3508,0.7707,-2.1237,1.3805,2.9505,0.5351,0.661,61.0,-101.4,19.1,76.5,189.57,75.36,-138.02,,59.795,,,,NaN,,,,0 / 0,2110,2014-12-14 04:24:51:687
3.1283,-9.4242,-0.6374,0.4203,-9.7799,0.59,2.708,0.3557,-1.2274,2.0892,-0.8051,1.1631,61.0,-93.5,21.3,66.3,113.79,86.0,-59.87,,59.795,,,,NaN,,,,0 / 0,2159,2014-12-14 04:24:51:736
2.9616,-8.2866,-1.216,0.4441,-9.7598,0.8487,2.5175,1.4731,-2.0647,1.8411,-1.3659,0.9517,61.0,-89.6,21.3,61.9,82.03,84.39,-27.62,,59.795,,,,NaN,,,,0 / 0,2209,2014-12-14 04:24:51:786
2.4222,-6.8745,-2.6086,0.5056,-9.7368,1.0533,1.9167,2.8623,-3.6619,1.1399,-1.1362,0.9102,409.0,-87.0,21.3,59.9,82.03,84.39,-27.62,,59.795,,,,NaN,,,,0 / 0,2259,2014-12-14 04:24:51:836
1.9319,-6.0213,-2.2555,0.5636,-9.7604,0.7669,1.3684,3.7391,-3.0224,0.6585,-1.5137,0.6597,409.0,-83.1,20.8,57.0,90.66,84.43,-36.31,,59.795,,,,NaN,,,,0 / 0,2309,2014-12-14 04:24:51:886
2.4124,-6.6489,-1.471,0.789,-9.7722,0.2283,0.2799,1.5017,1.4525,0.529,-1.5076,0.5877,409.0,-83.1,20.4,58.0,90.66,84.43,-36.31,,59.795,,,,NaN,,,,0 / 0,2360,2014-12-14 04:24:51:937
1.8731,-9.3163,3.9521,1.1723,-9.7305,-0.3358,0.7007,0.4142,4.2879,-1.0971,0.2712,-0.1087,776.0,-80.0,17.8,59.9,126.62,85.2,-73.86,,59.986,,,,NaN,,,,0 / 0,2409,2014-12-14 04:24:51:986
1.8437,-12.0916,3.5696,1.6514,-9.6665,0.0538,1.2483,-0.2562,4.791,-1.1301,-0.1979,-0.1576,776.0,-80.5,16.9,63.9,155.91,82.6,-105.25,,59.986,,,,NaN,,,,0 / 0,2459,2014-12-14 04:24:52:036
1.8437,-12.0916,3.5696,1.6514,-9.6665,0.0538,-0.3885,-2.4893,3.2795,-0.2199,-0.1857,-0.0635,776.0,-80.5,16.9,63.9,155.91,82.6,-105.25,,59.986,,,,NaN,,,,0 / 0,2509,2014-12-14 04:24:52:086
2.5791,-8.6495,2.0888,1.9227,-9.598,0.5933,0.6564,0.9485,1.4956,-0.6292,0.4325,-0.6512,776.0,-81.4,15.2,67.8,126.97,79.85,-78.52,,59.986,,,,NaN,,,,0 / 0,2559,2014-12-14 04:24:52:136
2.5791,-8.6495,2.0888,1.9227,-9.598,0.5933,0.6564,0.9485,1.4956,-0.6292,0.4325,-0.6512,776.0,-81.4,15.2,67.8,126.97,79.85,-78.52,,59.986,,,,NaN,,,,0 / 0,2610,2014-12-14 04:24:52:187
0.0294,-7.2275,-0.9611,2.1167,-9.5025,-1.1799,-2.0873,2.275,0.2189,-0.9236,1.4526,0.1478,776.0,-85.7,10.8,75.6,166.97,75.69,-119.14,,59.986,,,,NaN,,,,0 / 0,2675,2014-12-14 04:24:52:252
0.0294,-7.2275,-0.9611,2.1167,-9.5025,-1.1799,-2.0873,2.275,0.2189,-0.9236,1.4526,0.1478,776.0,-85.7,10.8,75.6,166.97,75.69,-119.14,,59.986,,,,NaN,,,,0 / 0,2731,2014-12-14 04:24:52:308
0.0294,-7.2275,-0.9611,2.1167,-9.5025,-1.1799,-2.0873,2.275,0.2189,-0.9236,1.4526,0.1478,776.0,-85.7,10.8,75.6,166.97,75.69,-119.14,,59.986,,,,NaN,,,,0 / 0,2759,2014-12-14 04:24:52:336
0.559,-5.7663,-1.2847,2.0946,-9.486,-1.3415,-1.5356,3.7197,0.0568,-0.3787,0.3641,-0.325,439.0,-86.6,10.8,76.5,170.6,75.31,-122.64,,59.986,,,,NaN,,,,0 / 0,2810,2014-12-14 04:24:52:387
-3.3146,-11.3561,-3.8638,2.0946,-9.486,-1.3415,-1.5356,3.7197,0.0568,-0.7355,0.8858,0.1417,439.0,-86.6,10.8,76.5,170.6,75.31,-122.64,,59.986,,,,NaN,,,,0 / 0,2860,2014-12-14 04:24:52:437
-0.5688,-10.1499,-3.1283,1.7872,-9.3008,-2.5439,-2.356,-0.8491,-0.5844,-0.8992,0.8186,-0.2712,439.0,-92.2,4.3,85.3,192.95,71.52,-144.91,,59.986,,,,NaN,,,,0 / 0,2910,2014-12-14 04:24:52:487
0.2648,-9.7184,-2.9224,1.6614,-9.2233,-2.8882,-1.3966,-0.4951,-0.0342,-0.7135,0.4887,-0.2004,184.0,-94.0,2.6,87.8,192.95,71.52,-144.91,,59.986,,,,NaN,,,,0 / 0,2960,2014-12-14 04:24:52:537
0.7159,-10.4833,-2.6674,1.7965,-9.0268,-3.3852,-1.0806,-1.4565,0.7178,-0.7868,0.7025,-0.4655,184.0,-97.0,0.0,90.7,200.38,67.0,-152.05,,63.927,,,,NaN,,,,0 / 0,3009,2014-12-14 04:24:52:586
-0.5001,-10.4147,-1.824,1.9316,-8.9588,-3.4899,-2.4317,-1.4559,1.6659,-0.6732,0.8259,-0.4924,184.0,-99.6,-1.8,91.2,200.38,67.0,-152.05,,63.927,,,,NaN,,,,0 / 0,3060,2014-12-14 04:24:52:637
-1.2062,-10.4833,-1.1376,1.9169,-8.9693,-3.4709,-3.1231,-1.514,2.3333,-0.5229,0.8711,-0.4704,85.0,-101.8,-3.1,92.1,200.48,66.15,-151.09,,63.927,,,,NaN,,,,0 / 0,3110,2014-12-14 04:24:52:687
-0.7355,-10.8658,0.5198,1.7492,-9.2052,-2.8938,-2.4847,-1.6605,3.4136,0.2737,0.3763,-0.4313,85.0,-105.7,-4.8,94.1,199.65,68.49,-150.16,,63.927,,,,NaN,,,,0 / 0,3160,2014-12-14 04:24:52:737
-0.1471,-14.1804,2.8439,1.5312,-9.5484,-1.6289,-1.2664,-3.4944,4.7376,2.3188,0.4838,0.2896,85.0,-109.2,0.4,91.7,186.78,76.82,-136.77,,63.927,,,,NaN,,,,0 / 0,3210,2014-12-14 04:24:52:787
3.9129,-11.6013,-3.0204,1.0569,-9.7309,0.6021,2.7481,-3.6552,-7.408,1.8155,-0.2016,1.427,74.0,-108.3,13.0,84.3,186.78,76.82,-136.77,,63.927,,,,NaN,,,,0 / 0,3260,2014-12-14 04:24:52:837
0.9218,-12.0916,-3.5794,0.6789,-9.7696,0.5148,0.243,-2.322,-4.0942,2.033,-0.5803,1.5149,74.0,-107.4,15.6,82.9,111.51,83.58,-60.14,,63.927,,,,NaN,,,,0 / 0,3310,2014-12-14 04:24:52:887
0.9218,-12.0916,-3.5794,0.6789,-9.7696,0.5148,0.243,-2.322,-4.0942,2.0146,-1.3903,1.2633,74.0,-104.0,20.4,79.0,111.51,83.58,-60.14,,63.927,,,,NaN,,,,0 / 0,3360,2014-12-14 04:24:52:937
2.1084,-5.6977,-2.3634,0.4898,-9.7497,0.9343,1.6186,4.0521,-3.2977,0.942,-1.5858,0.6414,362.0,-95.7,26.9,70.2,69.56,83.77,-17.33,,63.927,,,,NaN,,,,0 / 0,3410,2014-12-14 04:24:52:987
2.1084,-5.6977,-2.3634,0.4898,-9.7497,0.9343,1.6186,4.0521,-3.2977,0.942,-1.5858,0.6414,362.0,-95.7,26.9,70.2,69.56,83.77,-17.33,,63.927,,,,NaN,,,,0 / 0,3459,2014-12-14 04:24:53:036
3.2264,-5.2564,-1.7358,0.7403,-9.7661,0.4958,2.1703,3.2089,-1.1818,0.2211,-1.2425,0.3995,362.0,-92.7,28.6,68.2,99.46,84.62,-47.02,,61.079,,,,NaN,,,,0 / 0,3509,2014-12-14 04:24:53:086
2.1673,-10.6598,4.5111,1.3042,-9.7065,-0.5036,0.863,-0.9533,5.0147,-0.8491,-0.7049,0.2981,937.0,-92.2,28.2,69.2,99.46,84.62,-47.02,,61.079,,,,NaN,,,,0 / 0,3559,2014-12-14 04:24:53:136
2.8733,-11.3365,5.4427,1.5198,-9.6834,-0.3052,1.3536,-1.6531,5.7479,-0.9639,-0.3714,-0.2786,937.0,-92.2,26.0,75.6,158.85,81.61,-108.87,,61.079,,,,NaN,,,,0 / 0,3609,2014-12-14 04:24:53:186
2.4517,-10.4147,3.599,1.9246,-9.6042,0.4747,1.498,-1.036,2.5163,-0.1197,0.0293,-0.3262,937.0,-92.7,25.2,75.6,128.83,79.18,-80.35,,61.079,,,,NaN,,,,0 / 0,3659,2014-12-14 04:24:53:236
3.4912,-9.787,-8.2866,2.3192,-9.5253,0.2461,1.172,-0.2617,-8.5327,-1.2291,1.438,-0.0867,937.0,-97.0,21.7,78.5,132.15,76.24,-83.94,,61.079,,,,NaN,,,,0 / 0,3709,2014-12-14 04:24:53:286
0.2942,-5.1289,-0.9512,2.3756,-9.4259,-1.2957,-2.0814,4.2971,0.3444,-1.1435,1.763,0.0,937.0,-98.7,21.3,79.5,132.15,76.24,-83.94,,61.079,,,,NaN,,,,0 / 0,3760,2014-12-14 04:24:53:337
-2.4909,-6.6293,-3.599,2.4066,-9.3767,-1.5675,-4.8974,2.7474,-2.0315,-0.7208,0.3286,-0.391,937.0,-100.0,20.4,81.4,173.49,72.97,-123.08,,61.079,,,,NaN,,,,0 / 0,3810,2014-12-14 04:24:53:387
-0.912,-10.3264,-2.383,1.0934,-9.349,-2.7517,-2.0054,-0.9774,0.3686,-0.8002,1.0983,0.27,937.0,-100.5,19.1,83.9,194.99,72.35,-143.69,,61.079,,,,NaN,,,,0 / 0,3860,2014-12-14 04:24:53:437
3.0204,-9.0025,-0.863,1.1329,-9.2709,-2.9897,1.8876,0.2683,2.1267,-0.832,0.1442,-0.1943,380.0,-102.2,16.5,86.3,211.81,70.97,-159.25,,61.079,,,,NaN,,,,0 / 0,3910,2014-12-14 04:24:53:487
3.0204,-9.0025,-0.863,1.1329,-9.2709,-2.9897,1.8876,0.2683,2.1267,-0.832,0.1442,-0.1943,380.0,-102.2,16.5,86.3,211.81,70.97,-159.25,,60.954,,,,NaN,,,,0 / 0,3959,2014-12-14 04:24:53:536
0.4217,-10.0028,-2.8439,1.4563,-8.9956,-3.6233,-1.0346,-1.0072,0.7794,-0.7477,0.6426,-0.2871,380.0,-106.6,10.8,89.7,211.72,70.97,-159.25,,60.954,,,,NaN,,,,0 / 0,4010,2014-12-14 04:24:53:587
0.4217,-10.0028,-2.8439,1.4563,-8.9956,-3.6233,-1.0346,-1.0072,0.7794,-0.7477,0.6426,-0.2871,380.0,-106.6,10.8,89.7,211.72,70.97,-159.25,,60.954,,,,NaN,,,,0 / 0,4060,2014-12-14 04:24:53:637
0.1471,-9.9243,-1.9417,1.5854,-8.9265,-3.7383,-1.4383,-0.9979,1.7966,-0.6145,0.9175,-0.314,380.0,-108.7,8.6,90.2,210.56,65.54,-157.02,,60.954,,,,NaN,,,,0 / 0,4109,2014-12-14 04:24:53:686
0.353,-11.0325,-1.2356,1.7627,-8.9485,-3.6039,-1.4097,-2.084,2.3682,-0.4178,0.942,-0.441,380.0,-112.7,6.9,91.2,207.73,65.85,-153.94,,60.954,,,,NaN,,,,0 / 0,4161,2014-12-14 04:24:53:738
-1.5396,-11.3169,-0.7453,1.8383,-9.0666,-3.2538,-3.378,-2.2503,2.5085,-0.022,0.4349,-0.5815,187.0,-114.8,6.0,91.2,204.19,67.6,-150.53,,60.954,,,,NaN,,,,0 / 0,4210,2014-12-14 04:24:53:787
-0.8041,-14.3177,2.6184,1.5985,-9.3866,-2.3466,-2.4027,-4.9311,4.965,1.1289,0.3225,-0.4252,187.0,-116.6,6.5,88.2,204.19,67.6,-150.53,,60.954,,,,NaN,,,,0 / 0,4259,2014-12-14 04:24:53:836
-0.4903,-14.2589,3.1479,1.5567,-9.465,-2.0399,-2.047,-4.7939,5.1878,1.5382,0.3286,-0.3348,187.0,-116.6,7.3,88.7,196.13,74.83,-142.65,,60.954,,,,NaN,,,,0 / 0,4309,2014-12-14 04:24:53:886
2.4124,-11.0227,-2.0986,1.2646,-9.7032,0.6466,1.1478,-1.3194,-2.7452,2.7428,-0.5754,0.8491,187.0,-115.7,15.6,80.4,117.23,81.67,-62.92,,60.954,,,,NaN,,,,0 / 0,4359,2014-12-14 04:24:53:936
-0.7159,-12.2779,-4.9818,0.5464,-9.7587,0.8001,1.7381,-2.5927,-4.4719,2.5094,-0.5424,1.0421,162.0,-115.3,17.8,79.9,117.23,81.67,-62.92,,60.954,,,,NaN,,,,0 / 0,4410,2014-12-14 04:24:53:987
1.3337,-11.4149,-2.0692,0.2022,-9.7728,0.7881,1.1315,-1.6421,-2.8573,2.0073,-0.9664,1.3195,162.0,-108.3,26.0,70.7,70.23,85.24,-14.39,,57.043,,,,NaN,,,,0 / 0,4459,2014-12-14 04:24:54:036
1.5691,-5.884,-1.9123,0.1269,-9.7112,1.3588,1.4422,3.8272,-3.2711,1.0727,-1.328,0.9652,162.0,-101.4,31.3,62.4,62.16,82.0,-5.33,,57.043,,,,NaN,,,,0 / 0,4509,2014-12-14 04:24:54:086
1.3631,-5.0308,-1.4808,0.14,-9.7314,1.2042,1.2231,4.7006,-2.685,0.347,-1.4612,0.6365,529.0,-98.3,32.6,59.9,63.5,82.9,-6.63,,57.043,,,,NaN,,,,0 / 0,4560,2014-12-14 04:24:54:137
2.7262,-5.3839,-1.9613,0.3325,-9.7766,0.6912,2.3937,4.3928,-2.6525,-0.3555,-1.3268,0.3103,529.0,-95.3,33.0,59.9,82.13,85.51,-25.69,,57.043,,,,NaN,,,,0 / 0,4609,2014-12-14 04:24:54:186
2.0496,-9.6694,0.6472,0.8167,-9.7715,-0.1443,1.2328,0.1022,0.7916,-1.1887,-0.3348,0.391,529.0,-93.1,32.6,60.9,82.13,85.51,-25.69,,57.043,,,,NaN,,,,0 / 0,4660,2014-12-14 04:24:54:237
1.4318,-10.5323,1.8731,0.8771,-9.7632,-0.286,0.5547,-0.7692,2.159,-1.273,-0.0012,0.3665,529.0,-93.1,32.6,62.4,163.86,84.6,-108.06,,57.043,,,,NaN,,,,0 / 0,4709,2014-12-14 04:24:54:286
2.3046,-11.2188,4.3149,1.1974,-9.7333,-0.0072,1.1072,-1.4855,4.3221,-0.6536,-0.6756,-0.2639,1077.0,-92.7,31.3,66.3,143.64,82.99,-90.34,,57.043,,,,NaN,,,,0 / 0,4760,2014-12-14 04:24:54:337
2.3046,-11.2188,4.3149,1.1974,-9.7333,-0.0072,1.1072,-1.4855,4.3221,-0.6536,-0.6756,-0.2639,1077.0,-92.7,31.3,66.3,143.64,82.99,-90.34,,57.043,,,,NaN,,,,0 / 0,4823,2014-12-14 04:24:54:400
2.0986,-11.4444,3.7069,1.2962,-9.7201,0.0978,0.8025,-1.7242,3.6091,-0.5205,-0.799,-0.3103,1077.0,-93.5,31.3,67.3,138.29,82.38,-85.69,,57.043,,,,NaN,,,,0 / 0,4859,2014-12-14 04:24:54:436
2.0986,-11.4444,3.7069,1.2962,-9.7201,0.0978,0.8025,-1.7242,3.6091,-0.5205,0.2505,-0.474,1077.0,-93.5,31.3,67.3,138.29,82.38,-85.69,,57.043,,,,NaN,,,,0 / 0,4909,2014-12-14 04:24:54:486
-1.471,-5.4133,-3.0008,2.4305,-9.4481,-0.9986,-3.9015,4.0348,-2.0022,-1.5553,1.7287,0.2334,1077.0,-98.7,27.8,72.1,128.69,79.28,-77.15,,63.522,,,,NaN,,,,0 / 0,4960,2014-12-14 04:24:54:537
1.8829,-9.2673,-1.8142,1.2596,-9.2349,-3.0498,0.8878,-0.3654,2.1045,-0.9248,0.3238,-0.1112,431.0,-100.9,23.4,78.0,213.39,70.34,-157.56,,63.522,,,,NaN,,,,0 / 0,5106,2014-12-14 04:24:54:683
1.8829,-9.2673,-1.8142,1.2596,-9.2349,-3.0498,0.8878,-0.3654,2.1045,-0.9248,0.3238,-0.1112,431.0,-100.9,23.4,78.0,213.39,70.34,-157.56,,63.522,,,,NaN,,,,0 / 0,5110,2014-12-14 04:24:54:687
1.8829,-9.2673,-1.8142,1.2596,-9.2349,-3.0498,0.8878,-0.3654,2.1045,-0.9248,0.3238,-0.1112,431.0,-100.9,23.4,78.0,213.39,70.34,-157.56,,63.522,,,,NaN,,,,0 / 0,5114,2014-12-14 04:24:54:691
-0.2452,-9.9341,-2.2948,1.5852,-9.1762,-3.0749,-1.8304,-0.7579,0.7801,-0.6842,0.9529,-0.2028,431.0,-101.8,22.1,78.5,208.67,69.54,-153.41,,63.522,,,,NaN,,,,0 / 0,5159,2014-12-14 04:24:54:736
0.4609,-10.0126,-2.7164,1.5261,-9.1372,-3.2177,-1.0652,-0.8754,0.5013,-0.5828,0.5217,-0.2089,185.0,-103.1,20.8,79.5,210.24,68.71,-154.63,,63.522,,,,NaN,,,,0 / 0,5209,2014-12-14 04:24:54:786
0.3628,-10.1401,-2.0888,1.6342,-8.9702,-3.6105,-1.2714,-1.1699,1.5216,-0.8711,0.9236,-0.3995,185.0,-106.6,18.2,81.4,212.5,66.16,-155.65,,63.522,,,,NaN,,,,0 / 0,5260,2014-12-14 04:24:54:837
0.3334,-10.5029,-1.7554,1.7505,-8.9368,-3.6387,-1.4857,-1.6544,1.9128,-0.617,0.843,-0.4349,185.0,-108.7,16.9,81.4,212.5,66.16,-155.65,,63.522,,,,NaN,,,,0 / 0,5309,2014-12-14 04:24:54:886
-0.4805,-10.8265,-1.0689,1.8559,-9.0035,-3.4151,-2.3365,-1.8231,2.3462,-0.4423,0.7685,-0.4911,89.0,-109.6,16.0,81.9,209.72,65.98,-152.86,,63.522,,,,NaN,,,,0 / 0,5360,2014-12-14 04:24:54:937
-0.6669,-10.9246,-1.167,1.8457,-9.0583,-3.2727,-2.5125,-1.8663,2.1057,-0.0159,0.4337,-0.5278,89.0,-111.8,14.7,80.4,208.03,67.47,-150.58,,63.522,,,,NaN,,,,0 / 0,5410,2014-12-14 04:24:54:987
-0.4413,-14.4942,2.5007,1.5543,-9.6595,-0.6705,-0.6619,-2.9029,3.74,3.0018,0.1857,0.4252,89.0,-113.1,14.3,78.0,208.03,67.47,-150.58,,53.164,,,,NaN,,,,0 / 0,5460,2014-12-14 04:24:55:037
1.0395,-11.4934,1.7358,1.411,-9.7038,0.1267,-0.3715,-1.7896,1.6091,2.8124,-0.7233,0.799,89.0,-113.5,18.6,65.8,143.58,81.69,-84.87,,53.164,,,,NaN,,,,0 / 0,5510,2014-12-14 04:24:55:087
2.7753,-13.9058,-6.3645,0.5169,-9.7637,0.7574,1.5004,-2.4643,-4.3573,2.2516,-0.8308,1.1106,89.0,-111.3,20.4,61.9,143.58,81.69,-84.87,,53.164,,,,NaN,,,,0 / 0,5560,2014-12-14 04:24:55:137
0.9709,-11.464,-3.0106,0.3604,-9.7732,0.725,0.6105,-1.6908,-3.7357,1.9829,-0.7233,1.2828,89.0,-106.6,22.6,54.1,88.74,85.26,-26.43,,53.164,,,,NaN,,,,0 / 0,5610,2014-12-14 04:24:55:187
0.9709,-11.464,-3.0106,0.3604,-9.7732,0.725,0.6105,-1.6908,-3.7357,1.9829,-0.7233,1.2828,553.0,-106.6,22.6,54.1,88.74,85.26,-26.43,,53.164,,,,NaN,,,,0 / 0,5660,2014-12-14 04:24:55:237
1.8535,-6.5803,-2.4811,0.2079,-9.7248,1.2473,1.6456,3.1445,-3.7283,1.0495,-1.6017,0.9603,553.0,-101.4,23.9,45.8,73.56,82.59,-9.46,,53.164,,,,NaN,,,,0 / 0,5709,2014-12-14 04:24:55:286
3.2754,-7.4138,-0.5099,0.4066,-9.7721,0.7142,2.3589,4.1922,-2.754,0.1686,-1.1716,0.3775,553.0,-98.7,23.4,44.3,73.56,82.59,-9.46,,53.164,,,,NaN,,,,0 / 0,5760,2014-12-14 04:24:55:337
0.8924,-9.5811,3.0106,1.0729,-9.7403,-0.3812,-0.1805,0.1592,3.3919,-1.1472,0.0281,0.2981,553.0,-98.3,22.1,47.8,142.6,85.23,-77.76,,53.164,,,,NaN,,,,0 / 0,5810,2014-12-14 04:24:55:387
1.3533,-9.6988,3.7658,1.0574,-9.7416,-0.3912,0.2959,0.0429,4.1569,-1.1338,0.1906,0.2053,1570.0,-97.9,21.7,48.7,173.55,83.4,-110.3,,53.164,,,,NaN,,,,0 / 0,5859,2014-12-14 04:24:55:436
1.3631,-11.768,5.3839,1.278,-9.723,0.0257,0.0851,-2.045,5.3582,-0.6658,-0.777,-0.171,1570.0,-98.3,20.4,50.2,150.95,82.51,-88.85,,53.164,,,,NaN,,,,0 / 0,5909,2014-12-14 04:24:55:486
1.52,-14.6217,4.5111,1.6155,-9.6414,0.7766,-0.0955,-4.9803,3.7345,-0.2957,-0.8662,-0.1808,1570.0,-98.3,19.1,50.2,125.34,79.47,-64.33,,60.183,,,,NaN,,,,0 / 0,5959,2014-12-14 04:24:55:536
1.471,-17.3087,1.4808,1.7522,-9.6117,0.8452,-0.2812,-7.697,0.6356,-0.1955,-0.463,-0.876,1570.0,-98.7,19.1,50.7,125.34,79.47,-64.33,,60.183,,,,NaN,,,,0 / 0,6009,2014-12-14 04:24:55:586
2.0986,-6.2272,-3.2852,1.9071,-9.608,-0.4682,0.1915,3.3808,-2.817,-1.5882,2.4899,0.1991,1570.0,-99.6,17.8,52.6,165.11,78.45,-103.79,,60.183,,,,NaN,,,,0 / 0,6059,2014-12-14 04:24:55:636
2.1378,-5.1191,-0.3334,2.0,-9.5596,-0.886,0.1378,4.4405,0.5525,-0.4899,0.0195,-0.3971,1570.0,-100.0,16.9,54.1,175.25,77.11,-113.89,,60.183,,,,NaN,,,,0 / 0,6109,2014-12-14 04:24:55:686
-3.6677,-7.5021,-5.9919,2.1519,-9.4671,-1.3836,-5.8196,1.965,-4.6083,-1.4685,0.4068,0.1246,953.0,-99.6,16.0,55.6,175.25,77.11,-113.89,,60.183,,,,NaN,,,,0 / 0,6160,2014-12-14 04:24:55:737
0.1863,-10.4539,0.3432,1.0241,-9.4979,-2.2164,-0.8377,-0.956,2.5596,-0.4093,0.7795,0.1649,953.0,-99.2,15.2,56.5,217.3,75.58,-155.2,,60.183,,,,NaN,,,,0 / 0,6209,2014-12-14 04:24:55:786
2.1084,-9.0908,-1.6083,1.0584,-9.5267,-2.0718,1.05,0.4359,0.4635,-0.5424,0.1478,-0.1283,953.0,-100.0,13.9,57.5,217.3,75.58,-155.2,,60.183,,,,NaN,,,,0 / 0,6259,2014-12-14 04:24:55:836
-0.1177,-10.4147,-2.079,1.3106,-9.3973,-2.4785,-1.4283,-1.0173,0.3995,-0.6072,0.9493,-0.2053,431.0,-100.9,12.6,59.0,213.99,73.39,-152.13,,60.183,,,,NaN,,,,0 / 0,6310,2014-12-14 04:24:55:887
-0.1177,-10.4147,-2.079,1.3106,-9.3973,-2.4785,-1.4283,-1.0173,0.3995,-0.6072,0.9493,-0.2053,431.0,-100.9,12.6,59.0,213.99,73.39,-152.13,,60.183,,,,NaN,,,,0 / 0,6360,2014-12-14 04:24:55:937
0.2059,-8.8358,-1.4318,1.3658,-9.3288,-2.6978,-1.1599,0.493,1.266,-0.5302,0.7477,-0.3348,431.0,-102.7,10.8,59.9,215.22,72.04,-153.15,,60.183,,,,NaN,,,,0 / 0,6409,2014-12-14 04:24:55:986
-0.4217,-9.5909,-1.4122,1.5505,-9.3032,-2.6865,-1.7564,-0.2877,0.9017,-0.3433,0.6781,-0.5131,233.0,-104.0,9.5,60.4,212.19,71.56,-150.01,,62.638,,,,NaN,,,,0 / 0,6459,2014-12-14 04:24:56:036
-0.0294,-9.4046,-1.0983,1.6531,-9.2946,-2.6549,-1.6826,-0.11,1.5566,-0.2126,0.5461,-0.6145,233.0,-105.3,8.2,59.9,210.28,71.4,-148.09,,62.638,,,,NaN,,,,0 / 0,6509,2014-12-14 04:24:56:086
1.2553,-10.042,0.8238,1.8883,-9.3294,-2.3594,-0.6331,-0.7126,3.1832,1.1277,1.3586,-0.5143,233.0,-107.9,6.9,57.0,205.01,72.05,-141.33,,62.638,,,,NaN,,,,0 / 0,6559,2014-12-14 04:24:56:136
-1.0199,-16.4458,0.5492,2.0756,-9.4375,-1.6722,-2.8111,-7.8418,1.8781,2.5693,1.1839,0.1649,171.0,-107.9,7.3,54.1,205.01,72.05,-141.33,,62.638,,,,NaN,,,,0 / 0,6609,2014-12-14 04:24:56:186
4.3051,-10.1303,-4.9622,1.2514,-9.7258,-0.1142,3.0537,-0.4045,-4.848,1.6518,-0.5877,1.2938,171.0,-106.1,8.6,48.7,160.06,82.64,-95.21,,62.638,,,,NaN,,,,0 / 0,6659,2014-12-14 04:24:56:236
4.3051,-10.1303,-4.9622,1.2514,-9.7258,-0.1142,3.0537,-0.4045,-4.848,1.6518,-0.5877,1.2938,171.0,-106.1,8.6,48.7,160.06,82.64,-95.21,,62.638,,,,NaN,,,,0 / 0,6710,2014-12-14 04:24:56:287
2.2163,-12.935,-3.4127,1.1065,-9.7414,-0.2277,1.1098,-3.1936,-3.1851,1.8167,-1.1277,0.9346,171.0,-102.2,10.4,45.3,167.61,83.38,-101.63,,62.638,,,,NaN,,,,0 / 0,6759,2014-12-14 04:24:56:336
4.5209,-7.8355,-1.9613,1.1601,-9.7358,0.1948,3.3607,1.9003,-2.1561,1.4245,-0.7184,0.9725,1322.0,-100.0,10.8,40.4,167.61,83.38,-101.63,,62.638,,,,NaN,,,,0 / 0,6810,2014-12-14 04:24:56:387
3.805,-6.8941,-1.8829,1.409,-9.7045,0.0842,2.396,2.8105,-1.9671,0.8858,-0.5437,0.8528,1322.0,-98.3,11.3,39.5,147.7,83.11,-80.47,,62.638,,,,NaN,,,,0 / 0,6860,2014-12-14 04:24:56:437
2.3928,-6.0017,-1.9711,1.5864,-9.6771,-0.0842,0.8065,3.6755,-1.887,0.066,-0.7062,0.2114,1322.0,-97.0,11.3,39.0,160.57,80.68,-93.04,,62.638,,,,NaN,,,,0 / 0,6909,2014-12-14 04:24:56:486
0.3628,-7.3256,0.0981,1.7135,-9.6446,-0.4649,-1.1741,2.6034,0.0825,-0.4985,-0.4704,0.1662,1322.0,-97.0,10.8,39.5,160.57,80.68,-93.04,,62.638,,,,NaN,,,,0 / 0,6959,2014-12-14 04:24:56:536
0.7159,-7.5119,0.5198,1.5637,-9.6455,-0.8307,0.3094,0.4468,1.7917,-0.7147,-0.1625,0.1307,2423.0,-95.7,10.8,40.4,179.15,79.53,-111.8,,54.874,,,,NaN,,,,0 / 0,7009,2014-12-14 04:24:56:586
2.6184,-9.3163,-0.2452,1.6532,-9.6246,-0.897,0.9652,0.3083,0.6518,-0.6561,0.088,0.055,2423.0,-95.3,10.4,42.4,184.81,78.94,-118.48,,54.874,,,,NaN,,,,0 / 0,7059,2014-12-14 04:24:56:636
2.1575,-12.9154,1.5691,1.8694,-9.564,-1.0978,0.2881,-3.3513,2.6669,-0.4972,-0.38,0.022,2423.0,-96.1,10.4,42.9,184.81,78.94,-118.48,,54.874,,,,NaN,,,,0 / 0,7109,2014-12-14 04:24:56:686
0.2354,-16.8282,4.717,1.8694,-9.564,-1.0978,0.2881,-3.3513,2.6669,-0.4972,-0.38,0.022,2423.0,-96.1,10.4,42.9,184.81,78.94,-118.48,,54.874,,,,NaN,,,,0 / 0,7159,2014-12-14 04:24:56:736
0.814,-7.1589,2.0398,1.482,-9.6928,0.1542,-0.6681,2.5339,1.8856,0.2346,-0.0599,0.1503,2423.0,-94.8,10.8,40.9,149.96,81.26,-84.06,,54.874,,,,NaN,,,,0 / 0,7209,2014-12-14 04:24:56:786
-1.2847,-9.8949,-1.167,1.1817,-9.735,0.0642,-2.4664,-0.1599,-1.2312,-0.0831,-0.3445,0.3848,1978.0,-94.4,10.8,42.4,152.3,83.07,-86.89,,54.874,,,,NaN,,,,0 / 0,7259,2014-12-14 04:24:56:836
0.304,-9.1986,1.3827,0.8864,-9.7653,0.1518,-0.5824,0.5667,1.231,0.182,-0.2272,0.0562,1978.0,-93.5,10.8,41.9,157.5,85.08,-92.08,,54.874,,,,NaN,,,,0 / 0,7309,2014-12-14 04:24:56:886
0.0785,-9.3555,1.2258,0.8818,-9.7654,0.1748,-0.8033,0.4098,1.0511,-0.0159,-0.2883,0.1491,1978.0,-93.1,10.8,41.9,144.04,84.74,-78.79,,54.874,,,,NaN,,,,0 / 0,7360,2014-12-14 04:24:56:937
-0.8826,-9.9734,1.1474,0.6767,-9.7808,0.221,-0.9695,-0.0856,1.3112,-0.0855,0.2615,0.1686,1978.0,-93.1,10.8,42.4,144.04,84.74,-78.79,,54.874,,,,NaN,,,,0 / 0,7410,2014-12-14 04:24:56:987
-0.4413,-9.7968,1.6181,0.4823,-9.7897,0.3141,-0.9236,-0.0071,1.304,0.0122,-0.0574,-0.0037,1978.0,-92.7,10.8,42.4,122.27,86.64,-56.92,,54.874,,,,NaN,,,,0 / 0,7460,2014-12-14 04:24:57:037
-0.4707,-9.787,1.2945,0.4354,-9.7879,0.4215,-0.9061,9.0E-4,0.873,-0.0134,-0.033,0.0134,1978.0,-92.7,11.3,43.4,110.73,86.46,-45.93,,57.165,,,,NaN,,,,0 / 0,7510,2014-12-14 04:24:57:087
-0.3628,-9.9439,0.9807,0.3574,-9.7889,0.4702,-0.7202,-0.1551,0.5105,0.011,0.0452,0.0208,1978.0,-92.7,10.8,42.9,110.73,86.46,-45.93,,57.165,,,,NaN,,,,0 / 0,7562,2014-12-14 04:24:57:139
0.0883,-9.9047,1.0983,0.35,-9.7887,0.4793,-0.2618,-0.116,0.619,-0.0305,0.0513,-0.0159,1978.0,-92.7,10.4,43.4,100.97,86.53,-36.14,,57.165,,,,NaN,,,,0 / 0,7610,2014-12-14 04:24:57:187
0.0883,-9.9047,1.0983,0.35,-9.7887,0.4793,-0.2618,-0.116,0.619,-0.0305,0.0513,-0.0159,1978.0,-92.7,10.4,43.4,100.97,86.53,-36.14,,57.165,,,,NaN,,,,0 / 0,7660,2014-12-14 04:24:57:237
-0.3432,-9.7478,0.9807,0.4262,-9.7849,0.4938,-0.7694,0.0371,0.4869,-0.0586,0.0513,-0.0012,1978.0,-92.7,10.8,42.9,105.34,86.09,-40.6,,57.165,,,,NaN,,,,0 / 0,7710,2014-12-14 04:24:57:287
-0.3236,-9.8361,0.9709,0.4185,-9.7857,0.4856,-0.7421,-0.0504,0.4853,-0.077,0.0122,-0.0049,1978.0,-93.1,10.4,43.4,105.56,86.25,-40.76,,57.165,,,,NaN,,,,0 / 0,7760,2014-12-14 04:24:57:337
-0.0392,-9.9636,1.2062,0.406,-9.7854,0.5008,-0.4256,-0.1095,0.7152,0.055,0.0403,-0.0391,1978.0,-93.1,10.8,43.9,103.29,86.23,-39.03,,57.165,,,,NaN,,,,0 / 0,7810,2014-12-14 04:24:57:387
0.0,-9.7968,1.1278,0.4068,-9.7846,0.5154,-0.4068,-0.0122,0.6124,0.0648,0.1649,-0.0159,1978.0,-93.1,10.4,43.4,103.29,86.23,-39.03,,57.165,,,,NaN,,,,0 / 0,7859,2014-12-14 04:24:57:436
0.0,-9.7968,1.1278,0.4068,-9.7846,0.5154,-0.4068,-0.0122,0.6124,0.0648,0.1649,-0.0159,1978.0,-93.1,10.4,43.4,103.29,86.23,-39.03,,57.165,,,,NaN,,,,0 / 0,7910,2014-12-14 04:24:57:487
-0.1275,-10.0028,0.9414,0.4224,-9.783,0.5329,-0.5008,-0.1805,0.4086,0.0134,0.0403,-0.0257,1978.0,-93.1,10.4,43.9,102.67,86.02,-38.4,,57.165,,,,NaN,,,,0 / 0,7959,2014-12-14 04:24:57:536
-0.1275,-10.0028,0.9414,0.4224,-9.783,0.5329,-0.5008,-0.1805,0.4086,0.0134,0.0403,-0.0257,1978.0,-93.1,10.4,43.9,102.67,86.02,-38.4,,57.165,,,,NaN,,,,0 / 0,8009,2014-12-14 04:24:57:586
-0.0785,-9.8361,0.8924,0.4512,-9.7827,0.5152,-0.5296,-0.0534,0.3772,-0.0281,0.1014,-0.0305,1978.0,-93.5,10.8,43.9,105.44,86.0,-41.21,,57.165,,,,NaN,,,,0 / 0,8059,2014-12-14 04:24:57:636
-0.049,-9.9832,1.1278,0.4559,-9.7828,0.5096,-0.505,-0.2004,0.6182,0.022,0.0867,-0.0122,1978.0,-93.1,10.8,43.4,106.55,86.0,-41.82,,55.873,,,,NaN,,,,0 / 0,8121,2014-12-14 04:24:57:698
-0.1373,-9.9538,1.167,0.4591,-9.7801,0.5564,-0.5964,-0.1737,0.6106,0.0171,0.0513,-0.033,1978.0,-93.5,10.8,43.9,106.55,86.0,-41.82,,55.873,,,,NaN,,,,0 / 0,8160,2014-12-14 04:24:57:737