ACCELEROMETER X (m/s²),ACCELEROMETER Y (m/s²),ACCELEROMETER Z (m/s²),GRAVITY X (m/s²),GRAVITY Y (m/s²),GRAVITY Z (m/s²),LINEAR ACCELERATION X (m/s²),LINEAR ACCELERATION Y (m/s²),LINEAR ACCELERATION Z (m/s²),GYROSCOPE X (rad/s),GYROSCOPE Y (rad/s),GYROSCOPE Z (rad/s),LIGHT (lux),MAGNETIC FIELD X (μT),MAGNETIC FIELD Y (μT),MAGNETIC FIELD Z (μT),ORIENTATION X (°),ORIENTATION Y (°),ORIENTATION Z (°),PROXIMITY (i),SOUND LEVEL (dB),LOCATION Latitude : ,LOCATION Longitude : ,LOCATION Altitude ( m),LOCATION Altitude-google ( m),LOCATION Speed ( Kmh),LOCATION Accuracy ( m),LOCATION ORIENTATION (°),Satellites in range,Time since start in ms ,YYYY-MO-DD HH-MI-SS_SSS
0.304,-9.9047,-0.049,0.616,-9.7868,-0.0967,-0.2629,-0.1081,0.028,0.033,0.0,0.0037,217.0,-87.4,29.9,81.4,145.39,86.35,-98.92,,50.856,,,,NaN,,,,0 / 0,13,2014-12-14 04:23:21:766
0.3236,-9.9832,-0.0686,0.6149,-9.7868,-0.1035,-0.2415,-0.1669,0.0457,0.0171,0.011,-0.0134,217.0,-87.9,30.4,80.9,146.37,86.35,-99.55,,54.396,,,,NaN,,,,0 / 0,62,2014-12-14 04:23:21:815
0.3334,-9.9636,-0.0981,0.6165,-9.7867,-0.1082,-0.2831,-0.1769,0.0101,0.0208,-0.0086,-0.0037,217.0,-87.9,29.9,81.4,146.37,86.35,-99.55,,54.396,,,,NaN,,,,0 / 0,112,2014-12-14 04:23:21:865
0.3825,-9.9439,-0.049,0.6248,-9.7861,-0.1101,-0.2619,-0.1774,0.0513,0.0281,0.0037,0.0073,217.0,-87.4,29.9,82.4,146.9,86.34,-100.08,,54.396,,,,NaN,,,,0 / 0,161,2014-12-14 04:23:21:914
0.2844,-9.9439,-0.0686,0.6124,-9.787,-0.0976,-0.2986,-0.1373,0.0486,0.0305,-0.0024,0.011,217.0,-87.0,29.9,81.4,145.53,86.37,-99.06,,54.396,,,,NaN,,,,0 / 0,212,2014-12-14 04:23:21:965
0.3432,-9.9439,-0.0686,0.6078,-9.7873,-0.0941,-0.2646,-0.1566,0.0255,0.0367,0.0037,-0.0012,217.0,-87.4,29.9,82.4,144.93,86.4,-98.8,,54.396,,,,NaN,,,,0 / 0,262,2014-12-14 04:23:22:015
0.304,-9.9636,0.0098,0.6046,-9.7876,-0.0874,-0.3006,-0.176,0.0972,0.0367,-0.0024,0.0073,217.0,-87.4,29.5,81.9,144.93,86.4,-98.8,,54.396,,,,NaN,,,,0 / 0,312,2014-12-14 04:23:22:065
0.3628,-9.9341,-0.0098,0.6006,-9.7879,-0.0806,-0.2377,-0.1462,0.0708,0.0367,-0.0024,0.0073,217.0,-87.4,29.5,81.9,144.93,86.4,-98.8,,54.396,,,,NaN,,,,0 / 0,361,2014-12-14 04:23:22:114
0.5198,-9.9243,-0.0686,0.6085,-9.7874,-0.0799,-0.0887,-0.1369,0.0113,0.011,-0.0171,-0.0171,217.0,-87.4,29.5,81.4,143.94,86.41,-97.48,,54.396,,,,NaN,,,,0 / 0,412,2014-12-14 04:23:22:165
0.1667,-9.6792,0.0098,0.6558,-9.7839,-0.1247,-0.4891,0.1047,0.1345,-0.0648,0.0269,-0.066,177.0,-87.4,29.9,81.9,146.86,86.1,-100.76,,35.878,,,,NaN,,,,0 / 0,462,2014-12-14 04:23:22:215
-0.6178,-10.2185,1.1474,0.6969,-9.781,-0.1326,-1.3147,-0.4376,1.2799,-0.2162,-0.2138,-0.1466,177.0,-87.4,29.1,83.4,146.5,85.85,-100.77,,35.878,,,,NaN,,,,0 / 0,512,2014-12-14 04:23:22:265
-0.0098,-9.7576,0.0883,0.5564,-9.7898,-0.145,-0.5662,0.0322,0.2333,-0.2663,0.0916,-0.2431,177.0,-87.9,28.6,83.9,150.5,86.64,-104.61,,35.878,,,,NaN,,,,0 / 0,562,2014-12-14 04:23:22:315
0.7453,-9.8655,0.255,0.6409,-9.7831,-0.2256,0.1044,-0.0824,0.4806,-0.3005,0.0623,-0.2883,177.0,-89.2,28.6,84.3,150.5,86.64,-104.61,,35.878,,,,NaN,,,,0 / 0,612,2014-12-14 04:23:22:365
0.6276,-9.993,0.2452,0.6819,-9.7801,-0.2366,-0.0543,-0.2129,0.4818,-0.2834,0.0709,-0.292,177.0,-89.6,28.6,84.8,155.3,85.78,-109.14,,35.878,,,,NaN,,,,0 / 0,661,2014-12-14 04:23:22:414
-0.2354,-9.8361,-0.1667,0.8926,-9.759,-0.3686,-1.1279,-0.0771,0.2019,-0.3348,0.2065,-0.2786,177.0,-90.9,27.3,86.3,156.84,84.66,-110.77,,35.878,,,,NaN,,,,0 / 0,711,2014-12-14 04:23:22:464
-0.1863,-9.8066,-1.118,0.8565,-9.7537,-0.549,-1.0428,-0.0529,-0.569,-0.3372,0.2321,-0.3641,177.0,-92.7,26.5,87.3,169.28,84.05,-122.66,,35.878,,,,NaN,,,,0 / 0,762,2014-12-14 04:23:22:515
0.255,-10.4049,0.4217,1.1465,-9.7044,-0.8245,-0.8915,-0.7004,1.2461,-0.3531,0.1527,-0.4581,177.0,-93.1,26.0,88.2,169.28,84.05,-122.66,,35.878,,,,NaN,,,,0 / 0,811,2014-12-14 04:23:22:564
-0.255,-10.3754,0.2354,1.1768,-9.7056,-0.7656,-1.4318,-0.6698,1.001,-0.099,-0.0476,-0.3201,125.0,-94.0,25.6,88.2,169.53,81.77,-123.05,,35.878,,,,NaN,,,,0 / 0,861,2014-12-14 04:23:22:614
0.1863,-10.5716,0.1275,1.1768,-9.7056,-0.7656,-1.4318,-0.6698,1.001,-0.099,-0.0476,-0.3201,125.0,-94.0,25.6,88.2,169.53,81.77,-123.05,,35.878,,,,NaN,,,,0 / 0,911,2014-12-14 04:23:22:664
0.4903,-11.0815,0.2059,0.9669,-9.7541,-0.3042,-0.4766,-1.3274,0.5101,0.7672,-0.6121,0.0098,125.0,-92.7,26.9,86.3,154.03,84.07,-107.46,,47.362,,,,NaN,,,,0 / 0,961,2014-12-14 04:23:22:714
2.6772,-10.6206,0.6669,0.8504,-9.7077,1.0992,1.8268,-0.9129,-0.4324,1.4759,-0.8173,0.0733,125.0,-90.0,29.9,79.9,106.17,83.98,-59.34,,47.362,,,,NaN,,,,0 / 0,1012,2014-12-14 04:23:22:765
3.3833,-9.8459,0.3923,0.8688,-9.6901,1.2322,2.5145,-0.1558,-0.84,1.6713,-0.8186,0.2859,125.0,-88.3,32.6,74.1,82.68,81.16,-35.19,,47.362,,,,NaN,,,,0 / 0,1062,2014-12-14 04:23:22:815
1.726,-8.8358,-0.3825,1.2697,-9.5949,1.5796,0.4563,0.7592,-1.9621,0.9884,-0.6011,0.3238,290.0,-85.3,34.3,68.2,86.44,78.07,-38.79,,47.362,,,,NaN,,,,0 / 0,1112,2014-12-14 04:23:22:865
0.7943,-8.267,0.0392,1.2333,-9.5977,1.5915,-0.439,1.3307,-1.5523,0.5266,-0.3189,0.1503,290.0,-84.0,35.2,63.9,86.57,78.15,-37.77,,47.362,,,,NaN,,,,0 / 0,1161,2014-12-14 04:23:22:914
0.9905,-7.708,0.1079,1.1936,-9.6083,1.5575,-0.2031,1.9003,-1.4496,0.3457,-0.2834,0.1552,290.0,-83.5,34.7,63.4,86.57,78.15,-37.77,,47.362,,,,NaN,,,,0 / 0,1211,2014-12-14 04:23:22:964
2.7066,-8.1787,0.863,1.3121,-9.6284,1.3202,1.3945,1.4496,-0.4572,-0.2101,-0.2456,0.044,290.0,-82.7,34.7,62.4,94.25,79.06,-44.82,,47.362,,,,NaN,,,,0 / 0,1261,2014-12-14 04:23:23:014
2.7459,-8.4631,1.2553,1.3739,-9.6255,1.2779,1.3945,1.4496,-0.4572,-0.2101,-0.2456,0.044,290.0,-82.7,34.7,62.4,94.25,79.06,-44.82,,47.362,,,,NaN,,,,0 / 0,1312,2014-12-14 04:23:23:065
2.0888,-8.9437,3.0695,1.5997,-9.6043,1.1696,0.4891,0.6607,1.8998,-0.6671,0.303,0.3592,409.0,-81.8,33.9,64.3,102.45,78.27,-54.06,,47.362,,,,NaN,,,,0 / 0,1361,2014-12-14 04:23:23:114
2.03,-10.4539,4.0894,1.6216,-9.5892,1.2602,0.4083,-0.8647,2.8291,-0.6817,-0.0941,0.2065,409.0,-80.9,33.0,66.3,98.95,77.91,-52.15,,47.362,,,,NaN,,,,0 / 0,1411,2014-12-14 04:23:23:164
2.03,-10.4539,4.0894,1.6216,-9.5892,1.2602,0.4083,-0.8647,2.8291,-0.6817,-0.0941,0.2065,409.0,-80.9,33.0,66.3,98.95,77.91,-52.15,,47.362,,,,NaN,,,,0 / 0,1461,2014-12-14 04:23:23:214
0.0294,-11.0227,3.854,1.6312,-9.5523,1.5041,-1.6018,-1.4703,2.3499,-0.1026,-0.303,0.1222,409.0,-80.9,32.6,66.8,96.54,77.32,-50.33,,47.362,,,,NaN,,,,0 / 0,1511,2014-12-14 04:23:23:264
0.8532,-7.5217,2.5595,1.4766,-9.547,1.6865,-0.6235,2.0253,0.873,-0.3543,-0.0623,-0.022,409.0,-80.5,32.6,65.8,87.47,76.79,-41.2,,52.483,,,,NaN,,,,0 / 0,1562,2014-12-14 04:23:23:315
0.4511,-10.2676,-2.9028,1.7772,-9.6268,0.5807,-1.3261,-0.6408,-3.4834,-1.1203,1.0678,0.2321,409.0,-83.5,29.9,71.2,87.47,76.79,-41.2,,52.483,,,,NaN,,,,0 / 0,1611,2014-12-14 04:23:23:364
2.1575,-6.2763,-1.8731,1.5695,-9.6802,-0.0399,-0.3221,2.6292,-1.7036,-0.6243,0.8442,0.2395,409.0,-84.8,28.6,72.6,134.13,80.79,-86.88,,52.483,,,,NaN,,,,0 / 0,1662,2014-12-14 04:23:23:415
-3.599,-11.3071,-4.3934,1.6141,-9.5708,-1.4018,-0.6962,3.3234,-3.9661,-1.058,0.0806,-0.485,409.0,-86.1,27.8,74.6,138.49,80.79,-91.45,,52.483,,,,NaN,,,,0 / 0,1712,2014-12-14 04:23:23:465
0.2354,-9.8066,-0.9905,1.6141,-9.5708,-1.4018,0.5698,-0.2034,1.4016,-0.6121,0.5253,0.2285,409.0,-87.0,24.7,78.5,138.49,80.79,-91.45,,52.483,,,,NaN,,,,0 / 0,1761,2014-12-14 04:23:23:514
1.3435,-9.2477,-0.7257,0.9414,-9.5779,-1.8836,0.4021,0.3302,1.1579,-0.6561,0.4435,0.0452,230.0,-87.4,23.4,79.9,204.95,77.98,-156.04,,52.483,,,,NaN,,,,0 / 0,1812,2014-12-14 04:23:23:565
0.3138,-9.385,-2.334,1.0006,-9.5496,-1.9933,-0.6868,0.1647,-0.3407,-0.4691,0.8234,-0.0476,230.0,-89.2,21.7,81.9,202.11,76.85,-153.34,,52.483,,,,NaN,,,,0 / 0,1861,2014-12-14 04:23:23:614
0.3334,-9.6301,-3.8932,1.0777,-9.4193,-2.5072,-0.4577,-0.2052,-0.8874,-0.4459,0.5705,-0.1564,121.0,-89.6,21.3,81.4,202.11,76.85,-153.34,,52.483,,,,NaN,,,,0 / 0,1911,2014-12-14 04:23:23:664
0.3923,-9.5517,-3.9423,1.0894,-9.3907,-2.6073,-0.6971,-0.161,-1.3349,-0.5925,0.3567,-0.27,121.0,-91.4,19.9,82.9,207.19,73.25,-157.32,,52.483,,,,NaN,,,,0 / 0,1961,2014-12-14 04:23:23:714
0.9218,-10.5814,-2.7164,1.4129,-9.1324,-3.2822,-0.663,-1.5304,0.7782,-0.7318,0.5986,-0.2615,121.0,-91.8,19.1,83.9,207.19,73.25,-157.32,,52.483,,,,NaN,,,,0 / 0,2011,2014-12-14 04:23:23:764
0.5099,-10.65,-2.3144,1.5004,-9.1101,-3.3053,-0.9905,-1.5399,0.9909,-0.5473,0.9371,-0.3641,121.0,-95.7,16.0,85.8,206.58,68.28,-155.58,,52.483,,,,NaN,,,,0 / 0,2061,2014-12-14 04:23:23:814
-0.255,-10.8756,-1.0493,1.5456,-9.1523,-3.165,-1.8005,-1.7233,2.1157,-0.4362,0.8051,-0.4374,65.0,-97.0,14.7,86.3,206.58,68.28,-155.58,,59.282,,,,NaN,,,,0 / 0,2111,2014-12-14 04:23:23:864
-0.049,-12.8565,0.4707,1.5403,-9.335,-2.5798,-1.5894,-3.5215,3.0505,0.5596,0.7355,-0.4191,65.0,-100.5,12.6,83.9,206.04,68.95,-153.97,,59.282,,,,NaN,,,,0 / 0,2162,2014-12-14 04:23:23:915
-0.0686,-13.1998,0.7159,1.541,-9.3887,-2.3764,-1.6096,-3.811,3.0923,1.2999,0.6377,-0.099,65.0,-101.8,13.0,83.4,199.2,73.21,-147.04,,59.282,,,,NaN,,,,0 / 0,2211,2014-12-14 04:23:23:964
1.7456,-10.0714,-1.5789,1.1007,-9.7338,0.4613,0.6448,-0.3377,-2.0401,2.2969,0.2553,0.226,48.0,-101.4,14.3,80.4,199.2,73.21,-147.04,,59.282,,,,NaN,,,,0 / 0,2261,2014-12-14 04:23:24:014
2.991,-11.6209,-4.3738,0.9446,-9.729,0.7906,2.0464,-1.8919,-5.1644,2.1295,-0.5058,1.113,48.0,-98.7,17.3,73.1,102.59,82.78,-50.07,,59.282,,,,NaN,,,,0 / 0,2311,2014-12-14 04:23:24:064
1.2847,-11.9739,-5.325,0.7079,-9.747,0.8151,0.5768,-2.2269,-6.1401,2.0427,-0.4288,1.2254,48.0,-98.3,17.3,71.7,102.59,82.78,-50.07,,59.282,,,,NaN,,,,0 / 0,2361,2014-12-14 04:23:24:114
2.2849,-8.826,-0.9709,0.2155,-9.7455,1.0717,2.0694,0.9195,-2.0426,1.9193,-0.9273,1.2083,48.0,-94.0,18.6,67.8,94.03,83.68,-40.97,,59.282,,,,NaN,,,,0 / 0,2411,2014-12-14 04:23:24:164
2.1673,-7.4138,-1.5396,0.195,-9.7153,1.3214,1.9723,2.3014,-2.861,1.4025,-1.2132,0.9016,207.0,-90.0,19.1,63.9,62.01,82.17,-8.39,,59.282,,,,NaN,,,,0 / 0,2461,2014-12-14 04:23:24:214
1.4514,-6.747,-1.2356,0.1723,-9.7193,1.2945,1.2791,2.9723,-2.5302,1.1435,-1.2669,0.8283,207.0,-89.2,19.1,63.4,62.01,82.17,-8.39,,59.282,,,,NaN,,,,0 / 0,2511,2014-12-14 04:23:24:264
1.4514,-6.747,-1.2356,0.1723,-9.7193,1.2945,1.2791,2.9723,-2.5302,0.3531,-1.2376,0.4325,207.0,-85.7,18.6,61.9,60.81,82.35,-7.58,,59.282,,,,NaN,,,,0 / 0,2561,2014-12-14 04:23:24:314
1.0297,-7.708,0.608,0.5485,-9.7645,0.7243,0.4812,2.0564,-0.1163,-0.3763,-0.8308,0.4313,425.0,-82.7,18.2,61.4,85.26,84.42,-32.96,,59.282,,,,NaN,,,,0 / 0,2612,2014-12-14 04:23:24:365
1.3729,-8.7083,2.6086,0.508,-9.7788,0.5359,0.8649,1.0705,2.0727,-0.6817,-0.1429,0.43,425.0,-81.8,16.5,64.3,94.78,85.68,-43.47,,57.172,,,,NaN,,,,0 / 0,2673,2014-12-14 04:23:24:426
1.3729,-8.7083,2.6086,0.508,-9.7788,0.5359,0.8649,1.0705,2.0727,-0.6817,-0.1429,0.43,425.0,-81.8,16.5,64.3,94.78,85.68,-43.47,,57.172,,,,NaN,,,,0 / 0,2734,2014-12-14 04:23:24:487
1.3729,-8.7083,2.6086,0.508,-9.7788,0.5359,0.8649,1.0705,2.0727,-0.6817,-0.1429,0.43,425.0,-81.8,16.5,64.3,94.78,85.68,-43.47,,57.172,,,,NaN,,,,0 / 0,2761,2014-12-14 04:23:24:514
0.6669,-11.5326,2.9616,0.6016,-9.7656,0.6645,0.0653,-1.767,2.2971,-0.4227,-1.284,0.1552,425.0,-79.6,14.7,66.3,91.86,84.76,-42.15,,57.172,,,,NaN,,,,0 / 0,2812,2014-12-14 04:23:24:565
0.9905,-13.239,4.0796,0.65,-9.752,0.8043,0.3405,-3.487,3.2753,0.11,-0.9982,0.0122,425.0,-79.2,14.7,67.3,91.86,84.76,-42.15,,57.172,,,,NaN,,,,0 / 0,2861,2014-12-14 04:23:24:614
0.9905,-13.239,4.0796,0.65,-9.752,0.8043,0.3405,-3.487,3.2753,0.11,-0.9982,0.0122,425.0,-79.2,14.7,67.3,91.86,84.76,-42.15,,57.172,,,,NaN,,,,0 / 0,2912,2014-12-14 04:23:24:665
0.9905,-13.239,4.0796,0.65,-9.752,0.8043,0.3405,-3.487,3.2753,0.11,-0.9982,0.0122,425.0,-79.2,14.7,67.3,91.86,84.76,-42.15,,57.172,,,,NaN,,,,0 / 0,2962,2014-12-14 04:23:24:715
3.9325,-7.3354,3.8442,0.8768,-9.6932,1.2018,2.7125,1.3575,3.0347,-0.5767,-0.6011,0.0428,425.0,-77.9,14.3,67.8,83.92,81.27,-36.11,,57.172,,,,NaN,,,,0 / 0,3012,2014-12-14 04:23:24:765
2.3536,-16.4458,-7.8551,1.6658,-9.6603,0.272,0.6878,-6.7854,-8.1272,-1.7617,2.4325,-0.1772,425.0,-81.4,10.8,75.1,126.72,80.09,-80.73,,57.172,,,,NaN,,,,0 / 0,3062,2014-12-14 04:23:24:815
0.0588,-3.3048,-3.0401,1.871,-9.584,-0.9036,-1.8121,6.2792,-2.1365,-1.1106,0.0684,-0.507,425.0,-85.7,9.5,80.4,162.15,77.77,-115.78,,57.172,,,,NaN,,,,0 / 0,3112,2014-12-14 04:23:24:865
-5.2368,-9.5125,-7.1785,1.8491,-9.4867,-1.6596,-7.0858,-0.0258,-5.5189,-1.774,0.5315,0.1588,425.0,-86.6,6.9,83.4,162.15,77.77,-115.78,,57.172,,,,NaN,,,,0 / 0,3161,2014-12-14 04:23:24:914
0.2256,-9.5321,-3.4421,1.0421,-9.381,-2.6612,-0.8166,-0.1511,-0.7809,-0.7367,1.0617,-0.2028,221.0,-93.1,2.6,89.7,205.7,73.06,-158.61,,57.172,,,,NaN,,,,0 / 0,3212,2014-12-14 04:23:24:965
0.2452,-9.6988,-3.0401,1.242,-9.1578,-3.2806,-0.9968,-0.541,0.2406,-0.7489,0.5657,-0.3091,107.0,-98.7,-1.4,94.1,207.24,69.04,-159.26,,57.172,,,,NaN,,,,0 / 0,3261,2014-12-14 04:23:25:014
0.353,-9.7282,-2.6772,1.354,-9.0607,-3.4988,-1.001,-0.6675,0.8215,-0.7734,0.9053,-0.3848,107.0,-99.6,-1.4,93.6,207.24,69.04,-159.26,,61.264,,,,NaN,,,,0 / 0,3311,2014-12-14 04:23:25:064
-0.5198,-10.8462,-1.1866,1.6378,-9.0445,-3.4185,-1.7192,-1.5515,1.7477,-0.5095,0.7135,-0.5669,107.0,-104.4,-4.8,96.5,204.99,66.46,-156.49,,61.264,,,,NaN,,,,0 / 0,3362,2014-12-14 04:23:25:115
-0.4511,-11.4346,0.4021,1.608,-9.176,-3.0635,-2.0591,-2.2585,3.4656,0.2541,0.4716,-0.485,60.0,-109.6,-5.7,98.0,203.73,67.26,-154.4,,61.264,,,,NaN,,,,0 / 0,3412,2014-12-14 04:23:25:165
-0.4707,-13.0134,0.4021,1.5972,-9.2276,-2.9104,-2.0679,-3.7858,3.3125,0.4288,0.4655,-0.474,60.0,-110.5,-5.7,98.0,200.38,70.21,-151.24,,61.264,,,,NaN,,,,0 / 0,3462,2014-12-14 04:23:25:215
0.6669,-13.9941,2.8832,1.3976,-9.5142,-1.923,-0.7307,-4.4799,4.8061,1.6493,0.3677,0.1478,60.0,-112.7,-3.1,97.0,200.38,70.21,-151.24,,61.264,,,,NaN,,,,0 / 0,3512,2014-12-14 04:23:25:265
3.7559,-12.7585,-5.0897,0.951,-9.7363,0.6861,2.805,-3.0222,-5.7758,2.0159,-0.507,1.0617,60.0,-111.8,10.8,88.7,140.3,83.39,-90.06,,61.264,,,,NaN,,,,0 / 0,3562,2014-12-14 04:23:25:315
3.2166,-12.5917,-6.0017,0.9121,-9.7375,0.7203,2.3045,-2.8542,-6.722,1.9841,-0.3555,1.146,60.0,-111.3,12.1,87.8,102.64,83.19,-51.7,,61.264,,,,NaN,,,,0 / 0,3612,2014-12-14 04:23:25:365
0.863,-11.0129,-5.4819,0.819,-9.7456,0.7226,0.044,-1.2672,-6.2045,1.9914,-0.2358,1.2303,60.0,-110.9,14.7,85.8,102.64,83.19,-51.7,,61.264,,,,NaN,,,,0 / 0,3662,2014-12-14 04:23:25:415
1.9221,-7.9042,-1.8338,0.2521,-9.722,1.2606,1.5048,2.28,-3.5141,1.3769,-1.6163,0.898,166.0,-101.8,25.2,74.1,72.9,84.19,-20.21,,61.264,,,,NaN,,,,0 / 0,3712,2014-12-14 04:23:25:465
1.3631,-6.2174,-1.5985,0.1876,-9.714,1.332,1.1755,3.4965,-2.9305,1.3769,-1.6163,0.898,166.0,-101.8,25.2,74.1,72.9,84.19,-20.21,,61.264,,,,NaN,,,,0 / 0,3761,2014-12-14 04:23:25:514
1.7848,-6.9725,-1.52,0.2775,-9.7419,1.0905,1.5073,2.7693,-2.6106,0.2798,-1.1142,0.5253,166.0,-94.4,29.1,67.8,61.37,82.24,-8.18,,61.264,,,,NaN,,,,0 / 0,3811,2014-12-14 04:23:25:564
2.2359,-9.1496,3.246,0.3619,-9.7688,0.7804,1.2464,1.796,-1.1138,-0.2492,-0.9896,0.5693,166.0,-93.1,29.5,67.3,77.86,84.97,-24.88,,61.264,,,,NaN,,,,0 / 0,3861,2014-12-14 04:23:25:614
1.2749,-11.0031,4.2855,0.7895,-9.7612,0.5161,0.4854,-1.2419,3.7694,-1.0531,-0.248,0.1002,570.0,-90.0,28.6,69.7,77.86,84.97,-24.88,,57.119,,,,NaN,,,,0 / 0,3911,2014-12-14 04:23:25:664
0.8924,-12.4348,4.109,0.9407,-9.7224,0.8726,-0.0483,-2.7125,3.2364,-0.4215,-1.3525,-0.1429,570.0,-89.2,27.3,72.6,106.15,84.48,-56.83,,57.119,,,,NaN,,,,0 / 0,3962,2014-12-14 04:23:25:715
4.5993,-16.7301,-0.1961,1.6297,-9.6041,1.1295,2.9696,-7.1261,-1.3257,-0.3824,0.022,-0.3262,880.0,-89.2,27.3,72.1,106.15,84.48,-56.83,,57.119,,,,NaN,,,,0 / 0,4012,2014-12-14 04:23:25:765
1.422,-6.8156,-5.7663,1.8617,-9.6283,-0.0163,-0.4397,2.8127,-5.7501,-1.5956,2.397,0.3176,880.0,-94.4,23.0,77.5,111.91,78.06,-64.25,,57.119,,,,NaN,,,,0 / 0,4061,2014-12-14 04:23:25:814
1.422,-6.8156,-5.7663,1.8617,-9.6283,-0.0163,-0.4397,2.8127,-5.7501,-1.5956,2.397,0.3176,880.0,-94.4,23.0,77.5,111.91,78.06,-64.25,,57.119,,,,NaN,,,,0 / 0,4111,2014-12-14 04:23:25:864
-6.4822,-14.3471,-5.4035,1.6008,-9.3953,-2.3099,-8.083,-4.9518,-3.0936,-0.7147,0.5803,0.2248,880.0,-97.4,19.5,82.4,181.3,74.06,-131.41,,57.119,,,,NaN,,,,0 / 0,4161,2014-12-14 04:23:25:914
4.1678,-8.9437,0.3432,0.651,-9.4196,-2.6492,3.5168,0.4759,2.9924,-0.7062,0.2749,0.0415,386.0,-99.2,16.5,86.3,217.6,73.85,-166.19,,57.119,,,,NaN,,,,0 / 0,4212,2014-12-14 04:23:25:965
4.1678,-8.9437,0.3432,0.651,-9.4196,-2.6492,3.5168,0.4759,2.9924,-0.7062,0.2749,0.0415,386.0,-99.2,16.5,86.3,217.6,73.85,-166.19,,57.119,,,,NaN,,,,0 / 0,4261,2014-12-14 04:23:26:014
-0.5884,-9.5125,-3.5304,1.1282,-9.3563,-2.7126,-1.7166,-0.1562,-0.8178,-0.766,1.482,-0.0037,386.0,-101.8,14.3,87.8,215.15,73.73,-163.95,,57.119,,,,NaN,,,,0 / 0,4312,2014-12-14 04:23:26:065
-0.2256,-9.5419,-3.0793,1.1402,-9.145,-3.3525,-1.5362,-0.2942,-0.5509,-0.6023,0.5449,-0.3018,386.0,-106.6,11.7,90.2,209.9,72.18,-158.0,,57.119,,,,NaN,,,,0 / 0,4362,2014-12-14 04:23:26:115
1.0689,-9.8753,-2.3536,1.3417,-9.0607,-3.5035,-0.2249,-0.2943,0.8318,-0.7758,0.9187,-0.3079,175.0,-106.6,11.7,90.2,209.9,72.18,-158.0,,61.832,,,,NaN,,,,0 / 0,4412,2014-12-14 04:23:26:165
0.1667,-10.5225,-1.7456,1.5841,-9.017,-3.5148,-1.4174,-1.5055,1.7692,-0.6145,1.2535,-0.3738,175.0,-112.2,7.3,91.7,210.2,67.08,-157.21,,61.832,,,,NaN,,,,0 / 0,4462,2014-12-14 04:23:26:215
-0.9316,-10.8854,-1.0591,1.6595,-9.0896,-3.2857,-2.7873,-2.0116,2.2462,-0.2761,0.777,-0.54,175.0,-115.3,6.0,92.1,206.65,67.95,-153.2,,61.832,,,,NaN,,,,0 / 0,4512,2014-12-14 04:23:26:265
-0.4609,-11.9739,1.4416,1.5134,-9.2869,-2.7628,-1.9743,-2.687,4.2044,0.4032,0.4423,-0.5192,175.0,-117.9,6.0,91.7,204.83,71.26,-151.29,,61.832,,,,NaN,,,,0 / 0,4562,2014-12-14 04:23:26:315
-0.304,-15.5337,1.6867,1.4863,-9.4808,-2.0186,-1.7903,-6.0529,3.7054,1.4661,0.5205,-0.4019,175.0,-118.7,7.3,89.2,197.6,75.19,-143.64,,61.832,,,,NaN,,,,0 / 0,4612,2014-12-14 04:23:26:365
1.2258,-13.0527,2.5693,1.3081,-9.6668,-1.006,-0.0823,-3.3858,3.5754,2.2529,0.4459,0.292,175.0,-119.6,10.8,87.3,197.6,75.19,-143.64,,61.832,,,,NaN,,,,0 / 0,4661,2014-12-14 04:23:26:414
2.9616,-13.0428,-4.972,0.9408,-9.7323,0.754,2.0208,-3.3106,-5.7259,2.1368,-1.0776,1.0372,175.0,-117.0,19.1,79.5,112.65,83.03,-57.75,,61.832,,,,NaN,,,,0 / 0,4712,2014-12-14 04:23:26:465
0.8532,-10.9246,-2.7655,0.2965,-9.7773,0.6971,0.5567,-1.1473,-3.4626,2.0452,-0.9102,1.2352,175.0,-111.3,26.0,71.7,79.25,85.57,-23.04,,61.832,,,,NaN,,,,0 / 0,4761,2014-12-14 04:23:26:514
2.383,-9.9243,-0.6963,0.0575,-9.7442,1.1038,2.3255,-0.1802,-1.8,2.1185,-1.6481,0.8992,175.0,-107.4,29.1,66.3,60.18,83.53,-2.98,,61.832,,,,NaN,,,,0 / 0,4811,2014-12-14 04:23:26:564
2.6772,-7.8944,-1.6671,0.0981,-9.6984,1.4498,2.5791,1.804,-3.1169,1.6616,-1.7165,0.9383,175.0,-104.4,30.4,62.4,60.18,83.53,-2.98,,61.832,,,,NaN,,,,0 / 0,4862,2014-12-14 04:23:26:615
1.3827,-5.629,-1.8633,0.223,-9.6847,1.5252,1.1598,4.0557,-3.3885,0.9823,-1.7263,0.7159,175.0,-100.9,32.1,58.5,66.02,80.96,-8.32,,56.747,,,,NaN,,,,0 / 0,4912,2014-12-14 04:23:26:665
1.6573,-8.4043,-0.2354,0.3671,-9.7714,0.7448,1.2902,1.3671,-0.9802,-0.4215,-1.0238,0.6267,175.0,-95.7,32.6,55.1,85.0,85.14,-26.24,,56.747,,,,NaN,,,,0 / 0,4961,2014-12-14 04:23:26:714
1.5495,-8.4533,2.8733,0.3789,-9.7925,0.3656,1.1706,1.3392,2.5078,-0.876,-0.3665,0.4423,1497.0,-94.0,31.7,58.5,96.58,86.65,-38.52,,56.747,,,,NaN,,,,0 / 0,5105,2014-12-14 04:23:26:858
1.5495,-8.4533,2.8733,0.3789,-9.7925,0.3656,1.1706,1.3392,2.5078,-0.876,-0.3665,0.4423,1497.0,-94.0,31.7,58.5,96.58,86.65,-38.52,,56.747,,,,NaN,,,,0 / 0,5111,2014-12-14 04:23:26:864
1.5495,-8.4533,2.8733,0.3789,-9.7925,0.3656,1.1706,1.3392,2.5078,-0.876,-0.3665,0.4423,1497.0,-94.0,31.7,58.5,96.58,86.65,-38.52,,56.747,,,,NaN,,,,0 / 0,5114,2014-12-14 04:23:26:867
0.8532,-11.0521,3.1283,0.5002,-9.7846,0.4254,0.353,-1.2675,2.7029,-0.8296,-1.1924,0.1026,1497.0,-92.2,30.8,59.0,105.86,86.16,-49.62,,56.747,,,,NaN,,,,0 / 0,5161,2014-12-14 04:23:26:914
0.8728,-12.2975,3.3441,0.584,-9.7761,0.508,0.2888,-2.5215,2.8361,-0.4044,-0.7587,0.022,1497.0,-91.8,29.9,60.9,104.2,85.47,-48.98,,56.747,,,,NaN,,,,0 / 0,5212,2014-12-14 04:23:26:965
4.0305,-15.1709,-3.3735,1.6142,-9.6154,1.0532,2.4164,-5.5555,-4.4266,-0.3787,-0.0257,-0.8699,1497.0,-95.3,28.6,60.9,104.2,85.47,-48.98,,56.747,,,,NaN,,,,0 / 0,5261,2014-12-14 04:23:27:014
4.0305,-15.1709,-3.3735,1.6142,-9.6154,1.0532,2.4164,-5.5555,-4.4266,-1.4649,2.4606,0.3494,1497.0,-96.1,26.0,62.9,110.8,78.67,-56.88,,56.747,,,,NaN,,,,0 / 0,5311,2014-12-14 04:23:27:064
0.9022,-4.5503,-1.7848,1.6158,-9.6327,-0.8776,-0.7136,5.0824,-0.9072,-0.6292,0.8173,-0.1698,1497.0,-97.4,25.6,64.8,174.35,79.19,-118.51,,56.747,,,,NaN,,,,0 / 0,5361,2014-12-14 04:23:27:114
-4.2071,-6.8941,-3.2852,1.6951,-9.5748,-1.2724,-5.9022,2.6808,-2.0128,-1.3109,0.8234,0.0745,1497.0,-98.7,23.9,66.8,183.01,77.52,-126.89,,56.747,,,,NaN,,,,0 / 0,5412,2014-12-14 04:23:27:165
-2.4713,-12.1112,-0.4217,0.6981,-9.5937,-1.9087,-3.1694,-2.5175,1.487,-0.3641,0.8638,0.2566,967.0,-99.6,23.0,66.8,183.01,77.52,-126.89,,56.747,,,,NaN,,,,0 / 0,5461,2014-12-14 04:23:27:214
1.167,-8.9633,-2.1967,0.4979,-9.6085,-1.8971,0.6691,0.6452,-0.2996,-0.6683,0.5229,-0.1185,967.0,-100.5,21.7,68.2,224.49,78.75,-166.64,,60.211,,,,NaN,,,,0 / 0,5512,2014-12-14 04:23:27:265
0.4315,-9.6301,-3.1872,0.7193,-9.519,-2.2455,-0.2878,-0.1112,-0.9417,-0.7905,0.7917,-0.2382,501.0,-102.2,20.8,69.2,220.55,76.09,-162.24,,60.211,,,,NaN,,,,0 / 0,5562,2014-12-14 04:23:27:315
0.2648,-9.6007,-2.7164,0.901,-9.3261,-2.8951,-0.6362,-0.2746,0.1787,-0.9102,0.6304,-0.3152,501.0,-103.5,18.2,70.7,220.55,76.09,-162.24,,60.211,,,,NaN,,,,0 / 0,5612,2014-12-14 04:23:27:365
0.7061,-9.787,-2.4222,1.1326,-9.1848,-3.2446,-0.3602,-0.4509,0.5074,-1.0067,0.799,-0.3445,501.0,-105.7,17.3,72.6,221.14,70.91,-162.43,,60.211,,,,NaN,,,,0 / 0,5662,2014-12-14 04:23:27:415
-0.0883,-10.1695,-1.9515,1.4122,-9.1136,-3.3345,-1.5005,-1.0559,1.383,-0.6903,0.9139,-0.5608,501.0,-109.2,13.9,73.6,216.21,68.33,-157.05,,60.211,,,,NaN,,,,0 / 0,5712,2014-12-14 04:23:27:465
-0.0686,-10.4735,-1.6377,1.5506,-9.0951,-3.3235,-1.6192,-1.3784,1.6858,-0.5253,0.9212,-0.5986,188.0,-112.2,12.1,73.6,214.64,68.04,-154.99,,60.211,,,,NaN,,,,0 / 0,5762,2014-12-14 04:23:27:515
0.1471,-10.4147,-0.9316,1.6057,-9.1205,-3.2261,-1.4586,-1.2941,2.2945,-0.2981,0.8833,-0.4667,188.0,-114.4,11.3,72.6,214.64,68.04,-154.99,,60.211,,,,NaN,,,,0 / 0,5811,2014-12-14 04:23:27:564
1.2553,-13.9843,3.0401,1.275,-9.641,-1.2636,-2.5525,-5.9174,2.4302,2.2675,0.0867,0.5046,188.0,-116.1,11.3,68.7,209.45,71.19,-148.12,,60.211,,,,NaN,,,,0 / 0,5861,2014-12-14 04:23:27:614
1.4318,-11.6013,0.9316,1.1394,-9.7305,-0.4365,0.2924,-1.8708,1.3681,2.8014,-0.1539,0.6035,147.0,-116.1,13.4,62.9,172.3,82.85,-110.96,,60.211,,,,NaN,,,,0 / 0,5911,2014-12-14 04:23:27:664
2.079,-10.4735,-1.6573,1.0169,-9.7526,0.1522,1.0621,-0.7209,-1.8095,2.43,-0.6072,0.7025,147.0,-115.3,15.2,60.4,172.3,82.85,-110.96,,60.211,,,,NaN,,,,0 / 0,5962,2014-12-14 04:23:27:715
1.6083,-10.6402,-2.9812,0.6415,-9.7633,0.6613,2.2392,-2.7399,-5.0446,1.8521,-0.2871,1.0067,147.0,-114.0,16.0,56.5,120.36,84.05,-57.7,,60.211,,,,NaN,,,,0 / 0,6011,2014-12-14 04:23:27:764
2.383,-9.8361,-0.6865,0.3944,-9.7494,0.9822,1.9886,-0.0867,-1.6687,2.0036,-1.0079,0.9701,147.0,-110.0,18.6,48.2,87.34,83.8,-21.88,,59.411,,,,NaN,,,,0 / 0,6062,2014-12-14 04:23:27:815
1.3827,-7.0608,-1.4514,0.3037,-9.6834,1.5198,0.8633,2.0342,-3.6478,1.5235,-1.5638,0.8858,916.0,-106.1,19.9,43.4,87.34,83.8,-21.88,,59.411,,,,NaN,,,,0 / 0,6112,2014-12-14 04:23:27:865
1.6181,-7.3354,-1.1082,0.2333,-9.7029,1.4038,1.3848,2.3675,-2.5119,0.6536,-0.8858,0.529,916.0,-104.0,19.5,39.9,77.06,81.66,-9.43,,59.411,,,,NaN,,,,0 / 0,6162,2014-12-14 04:23:27:915
1.7652,-7.6296,-0.9218,0.2468,-9.7097,1.3531,1.5184,2.0801,-2.275,0.5095,-0.8894,0.5119,916.0,-103.1,19.5,39.5,77.06,81.66,-9.43,,59.411,,,,NaN,,,,0 / 0,6211,2014-12-14 04:23:27:964
1.5691,-6.7176,1.2651,0.4004,-9.7528,0.9454,1.1687,3.0352,0.3197,-0.0391,-1.124,0.4679,2432.0,-101.8,19.5,39.5,86.56,83.35,-19.17,,59.411,,,,NaN,,,,0 / 0,6261,2014-12-14 04:23:28:014
1.9025,-6.8254,1.7848,0.4492,-9.7574,0.8729,1.4533,2.932,0.9119,-0.6426,-0.5657,0.3201,2432.0,-100.9,18.2,40.4,94.65,84.25,-27.23,,59.411,,,,NaN,,,,0 / 0,6311,2014-12-14 04:23:28:064
1.2847,-10.5421,4.2953,0.7412,-9.7421,0.8443,0.5435,-0.8001,3.451,0.0159,-1.3952,-0.1014,2432.0,-100.0,17.3,41.4,107.88,83.42,-41.28,,59.411,,,,NaN,,,,0 / 0,6361,2014-12-14 04:23:28:114
2.2457,-8.8652,4.3934,1.0041,-9.5448,2.0146,0.4357,-2.1946,3.7722,0.4252,-0.744,-0.0684,2432.0,-99.6,16.0,41.4,107.88,83.42,-41.28,,59.411,,,,NaN,,,,0 / 0,6412,2014-12-14 04:23:28:165
3.4029,-16.8969,1.0003,1.3579,-9.4494,2.2439,1.6209,2.2513,1.3592,0.1124,0.2615,-0.314,2432.0,-99.2,16.0,40.4,92.4,76.73,-26.49,,59.411,,,,NaN,,,,0 / 0,6461,2014-12-14 04:23:28:214
-0.0098,-19.221,-0.0098,1.8128,-9.4086,2.0888,0.8749,-9.0446,-1.7166,0.5534,1.868,0.5229,1939.0,-99.2,14.7,40.9,92.4,76.73,-26.49,,59.411,,,,NaN,,,,0 / 0,6512,2014-12-14 04:23:28:265
1.4808,-4.8935,-5.1681,1.2677,-9.5759,1.6926,0.2131,4.6824,-6.8607,0.2492,2.0916,0.4362,1939.0,-97.4,14.3,39.9,102.49,77.55,-36.83,,59.411,,,,NaN,,,,0 / 0,6562,2014-12-14 04:23:28:315
-2.5791,-5.021,-7.7276,1.4861,-9.6768,0.5671,-4.0652,4.6558,-8.2948,-1.1423,1.1399,0.3372,1939.0,-96.6,13.4,41.4,135.0,80.67,-69.11,,58.095,,,,NaN,,,,0 / 0,6611,2014-12-14 04:23:28:364
-3.0106,-15.9064,-0.608,0.6243,-9.738,-0.9761,-3.6349,-6.1684,0.3681,-0.3641,0.3213,-0.2468,1939.0,-96.1,13.0,42.9,135.0,80.67,-69.11,,58.095,,,,NaN,,,,0 / 0,6661,2014-12-14 04:23:28:414
0.1765,-9.7184,-0.2157,0.3891,-9.749,-0.9878,-1.1344,-2.2936,1.1741,-0.182,-0.0525,-0.182,1939.0,-95.7,13.0,42.9,225.08,83.78,-158.5,,58.095,,,,NaN,,,,0 / 0,6711,2014-12-14 04:23:28:464
-0.2157,-9.2575,0.4217,0.336,-9.7583,-0.9128,-0.7479,-1.2546,1.3835,-0.0611,0.2712,0.0904,1939.0,-95.3,12.6,44.3,226.55,83.77,-160.22,,58.095,,,,NaN,,,,0 / 0,6762,2014-12-14 04:23:28:515
-0.5492,-10.3264,0.5786,0.2831,-9.768,-0.8221,-0.8323,-0.5584,1.4007,-0.0086,0.54,0.0831,1939.0,-95.7,12.6,45.3,226.45,84.91,-161.0,,58.095,,,,NaN,,,,0 / 0,6812,2014-12-14 04:23:28:565
-1.0003,-9.993,0.6374,0.213,-9.7809,-0.6768,-0.6507,0.1108,0.3192,0.1991,0.5095,0.0904,1939.0,-95.7,12.1,44.8,226.45,84.91,-161.0,,58.095,,,,NaN,,,,0 / 0,6862,2014-12-14 04:23:28:615
-0.0686,-10.1793,0.2452,0.1237,-9.8024,-0.2603,-0.1924,-0.3769,0.5055,0.4533,0.6109,0.0183,1939.0,-95.3,12.6,42.4,220.88,88.32,-154.58,,58.095,,,,NaN,,,,0 / 0,6912,2014-12-14 04:23:28:665
-2.8439,-10.4245,-1.3239,-0.2617,-9.8032,0.0078,-2.5822,-0.6213,-1.3317,0.1112,0.1833,0.0819,1939.0,-95.3,12.6,42.4,337.92,88.47,88.3,,62.303,,,,NaN,,,,0 / 0,6962,2014-12-14 04:23:28:715
0.1863,-9.6497,0.3432,-0.5098,-9.7908,-0.2243,0.6961,0.1411,0.5675,-0.1258,-0.1955,-0.1539,1939.0,-95.7,12.1,42.4,312.85,86.74,113.75,,62.303,,,,NaN,,,,0 / 0,7012,2014-12-14 04:23:28:765
0.4511,-10.3558,1.2454,-0.4214,-9.7948,-0.2335,0.8725,-0.561,1.4789,-0.0318,-0.1759,-0.1894,1939.0,-95.7,12.1,41.9,312.85,86.74,113.75,,62.303,,,,NaN,,,,0 / 0,7062,2014-12-14 04:23:28:815
0.4805,-10.3068,2.1378,-0.2501,-9.8031,-0.0838,0.7306,-0.5037,2.2217,0.0929,-0.0098,-0.1429,1939.0,-96.1,12.1,42.4,317.95,88.46,108.53,,62.303,,,,NaN,,,,0 / 0,7112,2014-12-14 04:23:28:865
0.3138,-9.6007,1.5298,-0.0346,-9.8032,0.2568,0.3484,0.2025,1.273,-0.1136,0.5095,-0.0574,1939.0,-96.1,12.6,41.9,58.54,88.49,7.68,,62.303,,,,NaN,,,,0 / 0,7162,2014-12-14 04:23:28:915
-0.4119,-9.7968,0.7845,0.1725,-9.8009,0.2873,-0.5843,0.0041,0.4972,-0.0819,0.2382,-0.1637,1939.0,-97.0,12.6,43.4,58.54,88.49,7.68,,62.303,,,,NaN,,,,0 / 0,7212,2014-12-14 04:23:28:965
-0.6374,-9.5321,1.5004,0.2036,-9.8001,0.2939,-0.841,0.2681,1.2065,-0.1613,0.1026,-0.1943,1939.0,-97.4,12.1,42.9,100.56,87.91,-34.71,,62.303,,,,NaN,,,,0 / 0,7262,2014-12-14 04:23:29:015
-0.1275,-10.1499,1.7064,0.1928,-9.7964,0.4052,-0.3202,-0.3535,1.3011,-0.0721,0.1344,-0.1087,1939.0,-97.0,12.1,42.9,100.56,87.91,-34.71,,62.303,,,,NaN,,,,0 / 0,7312,2014-12-14 04:23:29:065
0.1961,-9.8361,1.2258,0.2293,-9.785,0.6096,-0.0332,-0.0511,0.6162,0.099,0.0501,-0.0489,1939.0,-97.4,12.1,42.9,86.28,86.19,-20.61,,55.724,,,,NaN,,,,0 / 0,7362,2014-12-14 04:23:29:115
0.4707,-9.7968,0.5982,0.3126,-9.78,0.6519,0.1582,-0.0169,-0.0537,-0.0281,0.1417,-0.088,1693.0,-98.3,12.6,42.9,91.41,85.77,-25.62,,55.724,,,,NaN,,,,0 / 0,7411,2014-12-14 04:23:29:164
0.1667,-10.0126,0.7649,0.4239,-9.7793,0.5972,-0.2572,-0.2333,0.1677,0.0122,0.0269,-0.066,1693.0,-97.9,12.1,42.9,101.18,85.72,-35.37,,55.724,,,,NaN,,,,0 / 0,7461,2014-12-14 04:23:29:214
0.1079,-9.8753,0.9709,0.4239,-9.7793,0.5972,-0.2572,-0.2333,0.1677,0.0122,0.0269,-0.066,1693.0,-97.9,12.1,42.9,101.18,85.72,-35.37,,55.724,,,,NaN,,,,0 / 0,7511,2014-12-14 04:23:29:264
-0.0588,-9.9636,0.559,0.4338,-9.7771,0.6249,-0.4927,-0.1865,-0.0659,0.0342,0.1002,-0.0269,1693.0,-97.9,12.1,42.9,102.16,85.57,-36.37,,55.724,,,,NaN,,,,0 / 0,7562,2014-12-14 04:23:29:315
-0.0196,-9.9538,0.5394,0.4285,-9.7777,0.6193,-0.4481,-0.1761,-0.0799,0.0232,0.0098,-0.0171,1693.0,-98.3,12.6,42.9,100.43,85.6,-34.68,,55.724,,,,NaN,,,,0 / 0,7611,2014-12-14 04:23:29:364
-0.0785,-9.787,0.559,0.4091,-9.7808,0.5819,-0.4876,-0.0062,-0.0229,-0.0012,-0.0635,-0.0305,1693.0,-98.3,12.1,43.4,100.93,85.84,-35.11,,55.724,,,,NaN,,,,0 / 0,7662,2014-12-14 04:23:29:415
0.0294,-10.091,0.7061,0.4008,-9.7811,0.5827,-0.3714,-0.3099,0.1234,0.0794,-0.0684,-0.0195,1693.0,-97.9,12.1,42.9,100.93,85.84,-35.11,,55.724,,,,NaN,,,,0 / 0,7711,2014-12-14 04:23:29:464
0.3432,-9.7674,0.608,0.3928,-9.7807,0.5948,-0.0495,0.0133,0.0133,0.0855,0.077,0.0134,1693.0,-98.3,11.7,42.9,99.26,85.83,-33.44,,55.724,,,,NaN,,,,0 / 0,7761,2014-12-14 04:23:29:514
0.3432,-9.7674,0.608,0.3928,-9.7807,0.5948,-0.0495,0.0133,0.0133,0.0855,0.077,0.0134,1693.0,-98.3,11.7,42.9,99.26,85.83,-33.44,,55.724,,,,NaN,,,,0 / 0,7812,2014-12-14 04:23:29:565
0.3432,-9.7674,0.608,0.3928,-9.7807,0.5948,-0.0495,0.0133,0.0133,0.0855,0.077,0.0134,1693.0,-98.3,11.7,42.9,99.26,85.83,-33.44,,55.724,,,,NaN,,,,0 / 0,7866,2014-12-14 04:23:29:619
0.0883,-9.8655,0.5982,0.3786,-9.7841,0.5459,-0.2904,-0.0814,0.0523,0.0183,0.0318,-0.0061,1693.0,-98.3,12.1,42.4,100.2,85.91,-34.37,,55.724,,,,NaN,,,,0 / 0,7912,2014-12-14 04:23:29:665
-0.0294,-9.9341,0.6472,0.3752,-9.7848,0.5355,-0.4046,-0.1493,0.1118,0.0,0.0428,-0.0012,1693.0,-98.3,12.1,41.9,101.37,86.18,-35.02,,55.724,,,,NaN,,,,0 / 0,7963,2014-12-14 04:23:29:716