ACCELEROMETER X (m/s²),ACCELEROMETER Y (m/s²),ACCELEROMETER Z (m/s²),GRAVITY X (m/s²),GRAVITY Y (m/s²),GRAVITY Z (m/s²),LINEAR ACCELERATION X (m/s²),LINEAR ACCELERATION Y (m/s²),LINEAR ACCELERATION Z (m/s²),GYROSCOPE X (rad/s),GYROSCOPE Y (rad/s),GYROSCOPE Z (rad/s),LIGHT (lux),MAGNETIC FIELD X (μT),MAGNETIC FIELD Y (μT),MAGNETIC FIELD Z (μT),ORIENTATION X (°),ORIENTATION Y (°),ORIENTATION Z (°),PROXIMITY (i),SOUND LEVEL (dB),LOCATION Latitude : ,LOCATION Longitude : ,LOCATION Altitude ( m),LOCATION Altitude-google ( m),LOCATION Speed ( Kmh),LOCATION Accuracy ( m),LOCATION ORIENTATION (°),Satellites in range,Time since start in ms ,YYYY-MO-DD HH-MI-SS_SSS
-0.31663,-9.30447,3.00113,-0.0609,-9.60329,1.98629,-0.25573,0.29883,1.01484,-0.43149,-0.1646,0.03368,543.0,6.84,35.46,23.52,345.717,78.309,1.756,1.97,50.9931,,,,NaN,,,,0 / 0,3,2014-12-14 13:57:21:130
-0.01975,-9.58219,2.51511,-0.05477,-9.6226,1.89052,0.03502,0.0404,0.62459,-0.39207,-0.02505,0.00385,507.0,7.56,35.28,24.18,345.717,78.309,1.756,1.97,50.9931,,,,NaN,,,,0 / 0,53,2014-12-14 13:57:21:180
-0.39325,-9.13927,-0.14964,-0.08829,-9.65941,1.6912,-0.30496,0.52014,-1.84084,-0.55719,0.17416,0.06777,507.0,7.26,34.74,24.18,344.285,80.056,2.988,1.97,50.9931,,,,NaN,,,,0 / 0,104,2014-12-14 13:57:21:231
0.09278,-9.48882,1.26773,-0.15338,-9.73348,1.18618,0.24615,0.24466,0.08155,-0.79368,0.33288,-0.00467,507.0,8.76,33.72,25.26,336.279,82.995,7.368,1.97,50.9931,,,,NaN,,,,0 / 0,153,2014-12-14 13:57:21:280
-0.06524,-8.99083,1.93092,-0.15981,-9.76176,0.92416,0.09457,0.77093,1.00676,-0.85972,0.43941,0.00491,481.0,9.48,33.78,25.8,336.279,82.995,7.368,1.97,47.8501,,,,NaN,,,,0 / 0,204,2014-12-14 13:57:21:331
-1.10193,-8.45452,2.891,-0.28551,-9.79034,0.49051,-0.81642,1.33582,2.40049,-0.78622,0.77177,0.09227,481.0,8.58,31.8,27.84,334.4,84.512,9.811,1.97,47.8501,,,,NaN,,,,0 / 0,253,2014-12-14 13:57:21:380
-1.43712,-8.64845,0.67636,-0.34462,-9.79588,0.30795,-1.0925,1.14742,0.36841,-0.82244,0.62903,0.04113,481.0,8.58,30.6,28.44,296.491,87.299,48.215,1.97,47.8501,,,,NaN,,,,0 / 0,304,2014-12-14 13:57:21:431
1.01215,-11.38742,-1.25336,-0.15892,-9.79199,-0.51296,1.17106,-1.59544,-0.74041,-1.07278,0.80799,-0.33171,511.0,7.2,29.34,30.12,238.683,87.924,109.87,1.97,47.8501,,,,NaN,,,,0 / 0,353,2014-12-14 13:57:21:480
0.63626,-13.0873,-1.35632,-0.00524,-9.76804,-0.87044,0.6415,-3.31926,-0.48587,-1.17824,0.9486,-0.43504,511.0,5.52,27.84,31.5,238.683,87.924,109.87,1.97,47.8501,,,,NaN,,,,0 / 0,403,2014-12-14 13:57:21:530
-5.62458,-19.51813,9.69532,0.16715,-9.72046,-1.28748,-5.79172,-9.79767,10.9828,0.97466,-0.18484,-0.01639,511.0,5.46,26.34,33.0,162.53,83.124,-172.869,1.97,47.8501,,,,NaN,,,,0 / 0,453,2014-12-14 13:57:21:580
-1.7771,-14.74409,7.70334,0.08395,-9.77223,-0.81777,-1.86104,-4.97186,8.52111,2.19759,-0.78245,0.09759,511.0,3.72,24.48,34.8,166.829,85.191,-174.139,1.97,47.8501,,,,NaN,,,,0 / 0,504,2014-12-14 13:57:21:631
-3.72837,-16.3099,3.0969,0.05222,-9.80575,0.13243,0.46193,-3.53534,3.26853,2.28813,-0.5662,0.02622,561.0,3.24,23.52,35.16,166.829,85.191,-174.139,1.97,62.3148,,,,NaN,,,,0 / 0,553,2014-12-14 13:57:21:680
-1.2384,-14.43524,-0.52792,6.0E-4,-9.68709,1.5272,-3.54222,-6.29959,0.48034,3.29907,-1.08818,0.3213,561.0,3.24,22.56,35.58,16.608,89.168,-21.522,1.97,62.3148,,,,NaN,,,,0 / 0,603,2014-12-14 13:57:21:730
2.89639,-15.12716,0.64045,-0.29299,-8.94444,4.01014,3.18938,-6.18273,-3.36969,3.82851,0.1944,0.70053,561.0,7.2,27.3,30.9,346.606,65.794,4.179,1.97,62.3148,,,,NaN,,,,0 / 0,654,2014-12-14 13:57:21:781
-0.29987,-11.36348,-0.37948,-0.59002,-8.4451,4.95001,0.29015,-2.91838,-5.32949,3.74968,0.93049,1.01372,561.0,8.94,29.1,28.68,346.606,65.794,4.179,1.97,62.3148,,,,NaN,,,,0 / 0,703,2014-12-14 13:57:21:830
1.41198,-2.65816,-2.17992,-1.02786,-7.7644,5.90156,0.13422,-0.21847,-6.38878,3.48975,-0.09322,1.24488,561.0,12.3,32.58,23.46,336.617,52.349,9.88,1.97,62.3148,,,,NaN,,,,0 / 0,754,2014-12-14 13:57:21:881
2.24516,-2.30861,-2.67313,-0.39624,-5.94585,7.78849,2.91195,3.10573,-10.43049,2.04206,-1.67727,-0.27845,561.0,15.54,35.46,12.36,334.389,37.323,2.912,1.97,62.3148,,,,NaN,,,,0 / 0,803,2014-12-14 13:57:21:930
3.08792,-1.18573,-3.03226,0.15951,-5.64702,8.01594,2.94038,3.52516,-11.77842,0.99384,-1.07007,-0.38923,561.0,16.56,36.0,8.22,334.389,37.323,2.912,1.97,62.3148,,,,NaN,,,,0 / 0,853,2014-12-14 13:57:21:980
5.07271,-14.58607,19.82459,0.48587,-6.24094,7.54892,4.58684,-8.34514,12.27567,-1.83551,0.62689,-0.48617,561.0,16.8,36.84,-1.8,331.478,35.693,-3.464,1.97,53.7022,,,,NaN,,,,0 / 0,904,2014-12-14 13:57:22:031
0.67696,-4.74112,-13.10466,0.49859,-6.60111,7.23513,0.17837,1.86,-20.33979,-2.58119,-0.07085,-0.25288,561.0,16.92,37.14,-5.16,325.087,42.309,-3.942,1.97,53.7022,,,,NaN,,,,0 / 0,954,2014-12-14 13:57:22:081
-0.26157,-11.40897,4.24851,0.44038,-7.68299,6.07858,-0.70195,-3.72598,-1.83007,-2.24776,0.40958,-0.2891,561.0,16.8,37.8,-4.86,320.046,51.577,-4.144,1.97,53.7022,,,,NaN,,,,0 / 0,1004,2014-12-14 13:57:22:131
1.47184,-9.11772,3.27168,0.33609,-8.12816,5.47644,1.13575,-0.98955,-2.20476,-2.10502,0.99654,-0.3413,561.0,16.8,38.22,-3.18,320.046,51.577,-4.144,1.97,53.7022,,,,NaN,,,,0 / 0,1053,2014-12-14 13:57:22:180
-3.54162,-10.82718,0.72425,0.32711,-8.47607,4.92143,-3.86873,-2.35111,-4.19718,-2.17639,0.56298,-0.46061,561.0,16.8,38.7,-0.18,323.202,55.98,-3.512,1.97,53.7022,,,,NaN,,,,0 / 0,1103,2014-12-14 13:57:22:230
-1.22404,-8.22947,2.83593,0.21174,-9.10335,3.64068,-1.43577,0.87388,-0.80475,-1.56386,-0.12412,-0.22625,553.0,16.44,38.58,6.84,324.536,68.169,-3.328,1.97,53.7022,,,,NaN,,,,0 / 0,1154,2014-12-14 13:57:22:281
-0.30227,-7.3915,3.33393,0.28491,-9.28412,3.14553,-0.58718,1.89262,0.18839,-1.6395,-0.15607,-0.19642,553.0,15.78,38.28,10.56,324.536,68.169,-3.328,1.97,64.0616,,,,NaN,,,,0 / 0,1203,2014-12-14 13:57:22:330
-0.36931,-7.57106,5.43604,0.27863,-9.50543,2.3957,-0.64793,1.93437,3.04034,-1.09728,-0.0389,-0.03876,517.0,13.98,36.6,15.66,330.863,73.957,-6.244,1.97,64.0616,,,,NaN,,,,0 / 0,1254,2014-12-14 13:57:22:381
2.25713,-7.66923,4.90931,0.3114,-9.54568,2.22586,1.94574,1.87646,2.68345,-0.78835,-0.12199,0.05498,517.0,14.16,35.82,17.4,335.973,75.763,-6.634,1.97,64.0616,,,,NaN,,,,0 / 0,1303,2014-12-14 13:57:22:430
0.32741,-11.59811,-1.61249,0.35793,-9.67527,1.55937,-0.98043,-2.77084,-4.36538,-1.24535,1.38962,-0.28271,517.0,13.98,33.3,20.34,341.685,80.61,-12.928,1.97,64.0616,,,,NaN,,,,0 / 0,1354,2014-12-14 13:57:22:481
-2.1051,-13.2142,-2.85987,0.33264,-9.75817,0.91563,-3.76413,-4.15125,-1.74852,-1.69596,0.10065,-0.40734,517.0,13.86,32.16,21.18,341.685,80.61,-12.928,1.97,64.0616,,,,NaN,,,,0 / 0,1403,2014-12-14 13:57:22:530
4.22038,-17.99302,8.01459,0.41779,-9.79603,0.18794,3.80259,-8.197,7.82665,-1.34442,-0.67486,-0.24862,555.0,13.62,30.54,23.46,357.31,86.248,-29.578,1.97,64.0616,,,,NaN,,,,0 / 0,1453,2014-12-14 13:57:22:580
1.80942,-15.74966,12.57315,0.8239,-9.77029,0.18839,0.98551,-5.97937,12.38476,-0.07036,0.45539,-0.77805,555.0,12.12,29.1,25.86,48.684,85.056,-77.12,1.97,64.0616,,,,NaN,,,,0 / 0,1504,2014-12-14 13:57:22:631
-6.63972,-12.58931,7.8853,0.69297,-9.6624,1.52585,-7.33269,-2.92691,6.35945,2.19439,-0.17525,-0.02172,555.0,11.46,27.0,28.86,3.221,80.161,-24.425,1.97,60.4215,,,,NaN,,,,0 / 0,1553,2014-12-14 13:57:22:680
-5.55036,-16.15667,3.8798,0.59675,-9.50932,2.32103,-6.14711,-6.64735,1.55878,3.07323,-1.44504,0.53116,529.0,10.92,26.04,29.46,3.221,80.161,-24.425,1.97,60.4215,,,,NaN,,,,0 / 0,1604,2014-12-14 13:57:22:731
3.24594,-12.46481,-3.9229,0.35778,-8.9588,3.97273,2.88816,-3.50601,-7.89563,2.9241,-0.39789,0.97857,529.0,9.0,27.66,29.28,351.91,70.337,-8.577,1.97,60.4215,,,,NaN,,,,0 / 0,1653,2014-12-14 13:57:22:780
3.86843,-12.63959,0.59975,0.1022,-8.54386,4.81294,3.76623,-4.09573,-4.2132,3.10519,0.15392,1.13196,529.0,9.18,31.68,26.4,347.633,60.601,-1.216,1.97,60.4215,,,,NaN,,,,0 / 0,1703,2014-12-14 13:57:22:830
1.75914,-5.95977,-0.54229,-0.49081,-7.42053,6.39267,2.24995,1.46076,-6.93495,2.98588,-1.18086,1.14049,595.0,11.1,35.7,22.32,347.633,60.601,-1.216,1.97,60.4215,,,,NaN,,,,0 / 0,1753,2014-12-14 13:57:22:880
2.36966,-3.23516,-0.00838,-0.20096,-6.28104,7.52842,2.40303,2.69632,-7.77382,2.7217,-1.2256,0.4502,595.0,12.3,38.16,18.72,341.78,44.142,3.549,1.97,60.4215,,,,NaN,,,,0 / 0,1803,2014-12-14 13:57:22:930
1.24439,-3.8816,-0.31723,-0.04414,-6.04715,7.7201,1.28853,2.16556,-8.03734,2.03886,-1.27886,-0.06965,595.0,12.9,41.4,13.2,342.004,38.071,0.328,1.97,60.4215,,,,NaN,,,,0 / 0,1853,2014-12-14 13:57:22:980
1.29466,-0.83378,-2.29245,0.62294,-5.64074,7.99768,0.67172,4.80696,-10.29013,-0.19393,0.03141,-0.27845,595.0,14.28,43.56,3.06,340.303,35.114,-4.454,1.97,55.6565,,,,NaN,,,,0 / 0,1903,2014-12-14 13:57:23:030
8.82682,-11.55023,19.82459,0.57461,-6.01932,7.72055,8.25221,-5.5309,12.10404,-1.68317,0.63968,-0.44782,683.0,14.28,44.28,0.54,340.303,35.114,-4.454,1.97,55.6565,,,,NaN,,,,0 / 0,1954,2014-12-14 13:57:23:081
2.95145,-16.63791,10.82778,-0.02978,-7.20131,6.65678,0.78186,-10.25407,2.09986,-2.79637,-0.19229,-0.76101,683.0,14.22,45.48,-5.04,335.811,41.402,-2.807,1.97,55.6565,,,,NaN,,,,0 / 0,2004,2014-12-14 13:57:23:131
1.5269,-8.85436,5.17746,0.0823,-8.11335,5.50786,-0.01841,-6.62954,-2.70784,-2.31487,-0.11346,0.04113,683.0,14.28,45.6,-4.8,330.245,51.882,-0.676,1.97,55.6565,,,,NaN,,,,0 / 0,2053,2014-12-14 13:57:23:180
-0.11313,-11.55501,1.60052,0.11268,-8.77684,4.37331,-1.76872,-0.7003,-4.1514,-2.2957,0.31264,-0.04835,683.0,12.9,46.56,4.2,335.006,59.407,-1.491,1.97,55.6565,,,,NaN,,,,0 / 0,2104,2014-12-14 13:57:23:231
-1.37726,-11.88781,3.00592,0.04624,-9.05038,3.77625,-0.25319,-3.03136,-2.40842,-2.1423,0.54593,-0.05261,683.0,12.06,46.02,8.22,335.006,59.407,-1.491,1.97,55.6565,,,,NaN,,,,0 / 0,2154,2014-12-14 13:57:23:281
-1.37726,-7.51839,2.49356,0.16954,-9.40113,2.7858,-1.34449,-2.1265,-0.10385,-1.95908,0.0932,-0.11759,643.0,11.7,45.66,10.56,336.472,68.503,-0.737,1.97,55.6565,,,,NaN,,,,0 / 0,2204,2014-12-14 13:57:23:331
1.01694,-7.76739,3.36984,0.30406,-9.5807,2.07098,0.51326,2.06395,1.54486,-1.49782,-0.04848,-0.18364,643.0,10.38,42.54,19.14,344.657,75.58,-5.277,1.97,64.7913,,,,NaN,,,,0 / 0,2253,2014-12-14 13:57:23:380
1.13665,-7.75781,2.79523,0.372,-9.6401,1.76138,0.47555,1.41273,0.61202,-1.18782,0.87191,-0.15168,643.0,9.9,40.32,22.5,344.657,75.58,-5.277,1.97,64.7913,,,,NaN,,,,0 / 0,2304,2014-12-14 13:57:23:431
-0.04848,-9.60853,-0.44652,0.37335,-9.73318,1.13949,-0.42931,0.32426,-1.56431,-1.26559,0.84953,-4.1E-4,559.0,9.36,39.48,23.82,355.649,81.136,-15.238,1.97,64.7913,,,,NaN,,,,0 / 0,2353,2014-12-14 13:57:23:480
-1.61908,-13.53981,-1.77051,0.23089,-9.80306,0.13153,-2.47112,-2.77234,-1.74073,-1.80142,0.35206,-0.38391,559.0,9.0,35.82,27.9,5.124,85.701,-23.398,1.97,64.7913,,,,NaN,,,,0 / 0,2404,2014-12-14 13:57:23:531
0.89244,-17.51179,6.08247,0.35195,-9.79767,-0.23149,0.54049,-7.71412,6.31396,-0.89488,0.15179,-0.34343,559.0,8.16,34.68,29.64,5.124,85.701,-23.398,1.97,64.7913,,,,NaN,,,,0 / 0,2454,2014-12-14 13:57:23:581
0.00658,-13.98992,7.72729,0.50293,-9.79363,-0.05312,-0.49635,-4.19629,7.78041,-0.10765,-5.5E-4,-0.35195,459.0,6.42,31.56,33.6,108.627,87.538,-123.334,1.97,64.7913,,,,NaN,,,,0 / 0,2504,2014-12-14 13:57:23:631
0.86131,-13.7074,10.32978,0.52777,-9.77882,0.5176,0.33354,-3.92859,9.81219,1.06841,0.53209,-0.0622,459.0,5.64,30.66,34.62,33.806,85.677,-45.558,1.97,64.7913,,,,NaN,,,,0 / 0,2553,2014-12-14 13:57:23:680
-1.20728,-15.8957,6.00107,0.52568,-9.60688,1.89815,-1.73295,-6.28882,4.10291,3.07004,-0.54064,0.00811,459.0,3.72,28.32,36.6,33.806,85.677,-45.558,1.97,63.565,,,,NaN,,,,0 / 0,2603,2014-12-14 13:57:23:730
-2.90716,-14.54058,-2.46962,0.59556,-9.36746,2.84012,-3.50272,-5.17312,-5.30974,2.80372,-1.1766,0.16577,459.0,3.66,27.96,36.84,4.816,72.788,-11.843,1.97,63.565,,,,NaN,,,,0 / 0,2654,2014-12-14 13:57:23:781
0.81582,-12.28046,0.9086,0.12195,-8.66551,4.58968,0.69387,-3.61495,-3.68108,3.16485,0.60559,0.81239,847.0,3.06,33.18,34.44,357.366,62.084,-1.522,1.97,63.565,,,,NaN,,,,0 / 0,2704,2014-12-14 13:57:23:831
-0.64224,-9.86231,-0.79847,-0.15637,-8.09031,5.54018,-0.48587,-1.77201,-6.33865,3.27031,-0.23703,1.06059,847.0,3.42,37.92,31.98,357.366,62.084,-1.522,1.97,63.565,,,,NaN,,,,0 / 0,2753,2014-12-14 13:57:23:880
0.77752,-4.02765,-0.80565,-0.46657,-6.82153,7.02983,1.24409,2.79388,-7.83547,2.92836,-1.16488,1.05313,847.0,4.5,47.94,23.52,353.286,49.88,3.663,1.97,63.565,,,,NaN,,,,0 / 0,2803,2014-12-14 13:57:23:930
2.1039,-3.99173,-0.37469,-0.2897,-6.14741,7.63511,2.3936,2.15568,-8.0098,2.45325,-1.40776,0.56737,1007.0,4.86,50.1,19.68,352.742,44.076,3.797,1.97,63.565,,,,NaN,,,,0 / 0,2854,2014-12-14 13:57:23:981
1.78069,-2.49057,-0.99479,0.33205,-5.27862,8.25805,1.44864,2.78805,-9.25284,0.82446,-0.60562,0.29147,1007.0,8.52,54.72,6.24,349.578,34.594,-0.375,1.97,63.565,,,,NaN,,,,0 / 0,2904,2014-12-14 13:57:24:031
0.48782,-2.07637,-3.717,0.38322,-5.46372,8.13445,0.1046,3.38735,-11.85145,-1.2102,0.21038,-0.0068,1007.0,10.68,56.22,-1.2,349.578,34.594,-0.375,1.97,63.3696,,,,NaN,,,,0 / 0,2953,2014-12-14 13:57:24:080
8.14208,-14.21019,19.82459,0.39609,-6.10851,7.6616,7.74599,-8.10168,12.16299,-1.80355,-0.04635,-0.60548,981.0,11.52,56.4,-5.7,343.1,38.528,-2.959,1.97,63.3696,,,,NaN,,,,0 / 0,3004,2014-12-14 13:57:24:131
3.51888,-12.03864,3.68109,0.45026,-7.36801,6.45597,3.06862,-4.67064,-2.77488,-1.85681,-0.42452,-0.26886,981.0,12.06,56.16,-10.2,337.17,48.706,-3.99,1.97,63.3696,,,,NaN,,,,0 / 0,3054,2014-12-14 13:57:24:181
1.18214,-7.38671,4.20302,0.33145,-7.88171,5.82569,0.85069,0.495,-1.62267,-2.1423,1.31399,0.08801,981.0,11.94,57.12,-6.84,337.17,48.706,-3.99,1.97,63.3696,,,,NaN,,,,0 / 0,3104,2014-12-14 13:57:24:231
-2.04285,-12.74972,2.30681,0.18091,-8.6935,4.53432,-2.22376,-4.05623,-2.22751,-2.15402,0.498,-0.45634,1269.0,11.28,57.96,0.12,340.556,57.938,-2.145,1.97,63.3696,,,,NaN,,,,0 / 0,3153,2014-12-14 13:57:24:280
-0.02454,-8.72986,2.84072,0.1432,-8.94414,4.01897,-1.37741,-1.23271,-1.16104,-1.65121,-0.2871,-0.12505,1269.0,10.74,57.78,7.02,340.608,65.79,-2.041,1.97,63.3696,,,,NaN,,,,0 / 0,3203,2014-12-14 13:57:24:330
0.65062,-7.78175,2.58454,0.30541,-9.28501,3.14104,0.06958,1.64242,-0.06404,-1.50421,-0.1337,-0.29549,1269.0,10.14,56.94,10.5,340.608,65.79,-2.041,1.97,63.3696,,,,NaN,,,,0 / 0,3253,2014-12-14 13:57:24:380
0.68893,-8.04033,3.5087,0.34102,-9.4743,2.50867,-0.72036,1.02756,1.45971,-1.37851,0.92517,-0.11546,1269.0,9.18,54.06,18.12,346.601,72.435,-6.544,1.97,63.7496,,,,NaN,,,,0 / 0,3304,2014-12-14 13:57:24:431
-0.50099,-8.37073,3.64517,0.27833,-9.54942,2.21404,-1.15341,1.19336,1.66996,-1.1548,1.00506,-0.0622,1575.0,9.0,52.74,21.48,349.314,76.847,-7.165,1.97,63.7496,,,,NaN,,,,0 / 0,3353,2014-12-14 13:57:24:480
-0.25199,-9.39066,2.11767,0.12375,-9.65118,1.7349,-0.37574,0.26052,0.38277,-0.8022,0.46071,-0.01426,1575.0,7.26,50.88,24.96,351.318,79.784,-4.08,1.97,63.7496,,,,NaN,,,,0 / 0,3404,2014-12-14 13:57:24:531
0.3322,-9.27095,0.36272,0.06554,-9.70445,1.41093,0.26665,0.4335,-1.04821,-0.93003,0.83569,0.09653,1575.0,6.6,49.86,27.24,351.318,79.784,-4.08,1.97,63.7496,,,,NaN,,,,0 / 0,3454,2014-12-14 13:57:24:581
-0.88885,-15.2756,2.91255,-0.14709,-9.79767,0.3934,-0.74175,-5.47793,2.51915,-1.37744,0.70146,-0.07818,1215.0,4.5,47.16,31.38,349.009,84.853,3.032,1.97,63.7496,,,,NaN,,,,0 / 0,3503,2014-12-14 13:57:24:630
2.69767,-16.51101,4.85903,-0.04684,-9.80411,0.21967,2.7445,-6.70691,4.63936,-0.86505,-0.0634,-0.18151,1215.0,3.12,46.02,33.0,343.289,88.687,12.036,1.97,63.7496,,,,NaN,,,,0 / 0,3553,2014-12-14 13:57:24:680
-0.30706,-15.43602,8.99382,0.31723,-9.78839,0.50832,-0.62429,-5.64762,8.4855,1.13126,0.45645,-0.3413,1215.0,0.48,42.9,36.9,29.979,86.497,-31.967,1.97,62.344,,,,NaN,,,,0 / 0,3603,2014-12-14 13:57:24:730
-4.77942,-14.5358,9.7049,0.30706,-9.71821,1.27776,-3.48955,-2.96926,4.71134,1.87375,-0.10814,-0.04515,1009.0,0.36,41.28,38.22,29.979,86.497,-31.967,1.97,62.344,,,,NaN,,,,0 / 0,3654,2014-12-14 13:57:24:781
-0.10594,-15.2756,2.49596,0.29793,-9.39335,2.80107,0.13243,-5.33159,-1.0114,3.09773,-0.88685,0.1402,1009.0,-0.36,40.8,39.0,6.953,78.615,-8.257,1.97,62.344,,,,NaN,,,,0 / 0,3704,2014-12-14 13:57:24:831
0.98581,-13.97555,-4.50708,0.29269,-8.93277,4.03618,0.69312,-5.04279,-8.54326,3.04021,0.17629,0.34047,1009.0,-1.92,42.42,37.8,6.316,68.781,-5.4,1.97,62.344,,,,NaN,,,,0 / 0,3753,2014-12-14 13:57:24:880
1.71365,-13.44165,1.80643,0.00748,-8.4234,5.02154,1.70617,-5.01825,-3.21511,3.86899,0.64713,0.76871,1009.0,-1.98,45.72,33.54,6.316,68.781,-5.4,1.97,62.344,,,,NaN,,,,0 / 0,3803,2014-12-14 13:57:24:930
-0.60154,-8.89506,0.07542,-0.48438,-7.04748,6.80208,-0.11717,-1.84758,-6.72666,3.23089,-0.76541,1.08083,1089.0,-0.6,53.46,22.74,359.711,52.101,2.685,1.97,62.344,,,,NaN,,,,0 / 0,3854,2014-12-14 13:57:24:981
0.09278,-4.54479,-1.27252,-0.44263,-6.36992,7.44297,0.5354,1.82513,-8.71549,3.20426,-1.30763,0.82623,1089.0,1.14,56.94,16.2,357.921,40.508,3.403,1.97,62.344,,,,NaN,,,,0 / 0,3903,2014-12-14 13:57:25:030
1.59633,-2.79942,-1.19112,0.2873,-5.10908,8.36564,1.30903,2.30966,-9.55675,2.25618,-1.84558,0.05924,1089.0,5.22,59.4,1.92,354.533,31.398,-1.967,1.97,56.6321,,,,NaN,,,,0 / 0,3954,2014-12-14 13:57:25:081
-0.27833,-2.74914,-0.23822,0.96337,-4.39575,8.7131,-1.24169,1.64661,-8.95132,0.81381,-0.10814,0.28614,909.0,9.18,57.18,-11.76,347.435,26.631,-6.309,1.97,56.6321,,,,NaN,,,,0 / 0,4005,2014-12-14 13:57:25:132
-0.13707,-0.66858,1.22703,0.79862,-4.34622,8.75455,-0.93568,3.67764,-7.52752,0.07664,0.67483,0.18601,909.0,9.3,55.86,-17.04,347.435,26.631,-6.309,1.97,56.6321,,,,NaN,,,,0 / 0,4054,2014-12-14 13:57:25:181
-2.12665,-16.20216,19.82459,0.53047,-4.60989,8.63933,-1.15939,-10.20558,0.27399,-0.33455,-0.63864,0.35645,909.0,8.82,54.42,-21.6,344.717,26.713,-4.141,1.97,56.6321,,,,NaN,,,,0 / 0,4104,2014-12-14 13:57:25:231
2.64978,-8.70113,8.38569,0.55501,-5.38531,8.1768,3.74767,-4.30956,-0.30212,-0.99821,0.46284,-0.12718,881.0,8.58,51.66,-26.52,340.152,31.266,-4.603,1.97,56.6321,,,,NaN,,,,0 / 0,4153,2014-12-14 13:57:25:280
0.10714,-12.48157,4.69623,0.55321,-5.74055,7.93169,-0.75881,-5.09845,-3.14748,-1.62032,-0.20614,-0.01,881.0,9.48,51.96,-26.82,340.152,31.266,-4.603,1.97,56.6321,,,,NaN,,,,0 / 0,4203,2014-12-14 13:57:25:330
-0.04609,-9.54149,4.20781,0.50323,-6.85954,6.99017,-0.54932,-2.68195,-2.78236,-1.73004,0.61518,-0.06646,881.0,9.9,52.98,-24.18,333.642,39.514,-4.35,1.97,56.6321,,,,NaN,,,,0 / 0,4253,2014-12-14 13:57:25:380
1.46944,-6.54635,5.5749,0.44383,-7.27269,6.5637,1.02562,0.72634,-0.98881,-1.33164,0.11663,-0.02172,881.0,10.08,54.0,-23.16,333.232,44.386,-4.118,1.97,61.8571,,,,NaN,,,,0 / 0,4304,2014-12-14 13:57:25:431
-2.1051,-7.30291,5.47913,0.28222,-7.82365,5.90605,-2.38732,0.52074,-0.42692,-1.09195,0.35099,-0.13677,1149.0,11.28,55.8,-16.92,332.615,50.165,-3.915,1.97,61.8571,,,,NaN,,,,0 / 0,4353,2014-12-14 13:57:25:480
-0.49141,-8.86633,5.14873,0.06853,-8.15764,5.44232,-1.77066,0.04354,-0.75642,-1.04721,0.28494,0.09227,1149.0,11.28,57.0,-12.84,332.615,50.165,-3.915,1.97,61.8571,,,,NaN,,,,0 / 0,4403,2014-12-14 13:57:25:530
-0.02215,-9.17997,5.2445,0.02454,-8.34424,5.15202,-0.39789,-0.11253,-0.24286,-0.74574,-0.28497,-0.0622,1149.0,11.46,57.54,-8.28,333.766,56.289,-0.721,1.97,61.8571,,,,NaN,,,,0 / 0,4453,2014-12-14 13:57:25:580
0.63626,-7.8871,4.89734,0.14156,-8.5464,4.80741,0.72903,1.1766,-0.34656,-0.6733,-0.15501,-0.05581,1301.0,11.1,57.54,-5.7,335.545,59.525,-0.94,1.97,61.8571,,,,NaN,,,,0 / 0,4503,2014-12-14 13:57:25:630
-0.31184,-8.85196,4.99311,0.1426,-8.63394,4.64819,-0.25678,-0.08245,0.44532,-0.44107,0.19759,-0.06965,1301.0,10.92,57.72,-1.8,336.995,61.692,-1.757,1.97,61.8571,,,,NaN,,,,0 / 0,4553,2014-12-14 13:57:25:680
0.63865,-8.08103,4.98353,0.09771,-8.72402,4.47806,-0.02828,0.15607,0.89049,-0.23974,0.71425,-0.24329,1301.0,11.16,57.36,-0.48,336.995,61.692,-1.757,1.97,52.1144,,,,NaN,,,,0 / 0,4603,2014-12-14 13:57:25:730
-1.25037,-8.89745,3.75531,0.02708,-8.74796,4.43197,-1.14233,-0.29269,0.14096,0.01379,0.55446,-0.34982,1301.0,11.1,58.26,1.74,338.061,63.082,-0.736,1.97,52.1144,,,,NaN,,,,0 / 0,4654,2014-12-14 13:57:25:781
0.12151,-9.72345,3.73855,-0.01481,-8.77295,4.38244,0.12899,-0.93688,-0.61666,-0.05332,-0.0602,-0.18257,1301.0,10.68,58.26,2.34,338.312,63.456,0.194,1.97,52.1144,,,,NaN,,,,0 / 0,4704,2014-12-14 13:57:25:831
1.10552,-8.38988,3.65714,0.16505,-8.80438,4.316,1.5269,-0.43829,0.0226,-0.04799,-0.06659,-0.27312,1301.0,10.38,58.26,2.28,338.312,63.456,0.194,1.97,52.1144,,,,NaN,,,,0 / 0,4753,2014-12-14 13:57:25:880
0.11672,-8.69634,3.24534,0.23792,-8.85555,4.20646,-0.39669,-0.09143,-0.67771,-0.18967,0.21464,-0.11653,1227.0,8.76,57.9,3.6,340.933,63.869,-2.19,1.97,52.1144,,,,NaN,,,,0 / 0,4803,2014-12-14 13:57:25:930
0.08559,-9.20152,4.35146,0.21772,-8.90523,4.10112,-0.12121,-0.30751,0.22535,-0.18648,-0.00907,0.0145,1227.0,8.52,58.14,3.36,342.28,64.981,-2.895,1.97,52.1144,,,,NaN,,,,0 / 0,4854,2014-12-14 13:57:25:981
0.49979,-8.22229,3.69306,0.24122,-8.92424,4.05847,0.38023,0.82405,-0.36482,-0.20672,-0.01439,-0.0068,1227.0,7.98,58.32,3.18,342.28,64.981,-2.895,1.97,52.1144,,,,NaN,,,,0 / 0,4903,2014-12-14 13:57:26:030
0.26276,-9.1249,4.1719,0.3099,-9.00699,3.86649,0.0211,-0.16221,0.19902,-0.244,-0.06446,0.04326,1227.0,7.26,58.68,3.9,346.472,65.507,-3.401,1.97,59.3368,,,,NaN,,,,0 / 0,4953,2014-12-14 13:57:26:080
2.70485,-8.75141,3.18309,0.4136,-9.02629,3.81142,2.18995,0.28237,-0.5981,-0.09699,-0.22532,-0.108,1227.0,7.2,58.26,4.38,346.423,66.987,-6.193,1.97,59.3368,,,,NaN,,,,0 / 0,5004,2014-12-14 13:57:26:131
1.40001,-9.33559,3.63799,0.56802,-9.03871,3.76159,0.80879,-0.29179,-0.10804,-0.07675,0.28708,-0.12079,1227.0,7.02,57.72,4.92,346.423,66.987,-6.193,1.97,59.3368,,,,NaN,,,,0 / 0,5054,2014-12-14 13:57:26:181
0.72724,-8.342,2.4768,0.50996,-9.04529,3.75411,0.21727,0.7033,-1.27731,-0.00964,0.33821,-0.05048,1227.0,8.16,57.66,5.82,345.726,67.175,-8.587,1.97,59.3368,,,,NaN,,,,0 / 0,5103,2014-12-14 13:57:26:230
-0.05806,-9.02674,3.15436,0.50293,-9.06086,3.7173,-0.56099,0.03412,-0.56294,-0.09912,0.11983,-0.10587,1251.0,8.52,58.08,5.82,344.262,67.511,-7.705,1.97,59.3368,,,,NaN,,,,0 / 0,5153,2014-12-14 13:57:26:280