ACCELEROMETER X (m/s²),ACCELEROMETER Y (m/s²),ACCELEROMETER Z (m/s²),GRAVITY X (m/s²),GRAVITY Y (m/s²),GRAVITY Z (m/s²),LINEAR ACCELERATION X (m/s²),LINEAR ACCELERATION Y (m/s²),LINEAR ACCELERATION Z (m/s²),MAGNETIC FIELD X (μT),MAGNETIC FIELD Y (μT),MAGNETIC FIELD Z (μT),ORIENTATION X (°),ORIENTATION Y (°),ORIENTATION Z (°),PROXIMITY (i),SOUND LEVEL (dB),LOCATION Latitude : ,LOCATION Longitude : ,LOCATION Altitude ( m),LOCATION Altitude-google ( m),LOCATION Speed ( Kmh),LOCATION Accuracy ( m),LOCATION ORIENTATION (°),Satellites in range,Time since start in ms ,YYYY-MO-DD HH-MI-SS_SSS
0.094,-9.5782,0.6307,-0.0063,-9.7766,0.7677,0.07,0.0261,-0.0704,-4.57,38.4,-3.55,93.2,85.48,-3.19,0.0,72.174,35.178223,126.908745,,155.843274515097,,143.26451,,0 / 22,18,2014-12-14 14:52:37:086
0.3431,-9.7124,0.42,0.0324,-9.7795,0.7291,0.2795,-0.1452,-0.2537,-4.57,38.78,-1.8,77.63,85.51,0.47,0.0,58.106,35.178223,126.908745,,155.843274515097,,143.26451,,0 / 22,69,2014-12-14 14:52:37:137
0.1515,-9.5399,0.8989,0.0275,-9.7799,0.7238,0.0419,0.0777,0.2352,-4.2,38.09,0.08,93.62,85.73,-2.54,0.0,58.106,35.178223,126.908745,,155.843274515097,,143.26451,,0 / 22,118,2014-12-14 14:52:37:186
-0.4424,-9.4058,0.2859,0.0088,-9.7794,0.7303,-0.2054,-0.0408,0.0196,-4.2,37.71,0.08,56.41,85.76,-2.18,0.0,58.106,35.178223,126.908745,,155.843274515097,,143.26451,,0 / 22,168,2014-12-14 14:52:37:236
-0.7681,-9.1376,0.1518,-0.1015,-9.7853,0.6382,-0.6513,0.2617,-0.5354,-3.13,37.71,0.33,46.81,85.89,1.76,0.0,58.106,35.178223,126.908745,,155.843274515097,,143.26451,,0 / 22,217,2014-12-14 14:52:37:285
-0.3658,-9.789,0.0943,-0.1436,-9.7899,0.5551,-0.1291,-0.2243,-0.5946,-1.63,38.03,1.51,46.81,85.89,1.76,0.0,58.106,35.178223,126.908745,,155.843274515097,,143.26451,,0 / 22,268,2014-12-14 14:52:37:336
-0.5191,-9.6932,0.056,-0.1624,-9.7919,0.5119,-0.2577,-0.0795,-0.587,-0.51,38.03,2.08,6.06,86.65,14.5,0.0,58.106,35.178223,126.908745,,155.843274515097,,143.26451,,0 / 22,318,2014-12-14 14:52:37:386
-0.8448,-9.5591,-0.8253,-0.2919,-9.7976,0.3034,-0.609,0.0608,-1.0997,-2.01,37.71,4.82,357.29,87.17,25.45,0.0,58.106,35.178223,126.908745,,155.843274515097,,143.26451,,0 / 22,368,2014-12-14 14:52:37:436
-0.3083,-9.789,-0.4422,-0.3157,-9.7986,0.2419,-0.3281,-0.0986,-0.8387,-0.88,38.09,1.39,357.29,87.17,25.45,0.0,67.574,35.178223,126.908745,,155.843274515097,,143.26451,,0 / 22,417,2014-12-14 14:52:37:485
-0.6723,-9.4825,-1.1893,-0.3397,-9.8008,0.0024,0.0018,-0.2045,-0.6688,-0.2,38.09,6.14,317.44,87.68,52.55,0.0,67.574,35.178223,126.908745,,155.843274515097,,143.26451,,0 / 22,468,2014-12-14 14:52:37:536
-1.3046,-9.4633,-1.8215,-0.384,-9.7986,-0.0983,-0.6015,0.1988,-1.3805,-0.88,39.53,5.7,317.44,87.68,52.55,0.0,67.574,35.178223,126.908745,,155.843274515097,,143.26451,,0 / 22,518,2014-12-14 14:52:37:586
-1.9176,-9.3483,-2.1281,-0.6801,-9.7652,-0.5904,-1.2533,0.2206,-1.7007,0.55,38.09,5.7,260.62,87.68,104.36,0.0,67.574,35.178223,126.908745,,155.843274515097,,143.26451,,0 / 22,568,2014-12-14 14:52:37:636
-1.113,-9.5208,-1.9365,-0.7944,-9.7463,-0.7408,-0.6365,0.1276,-1.0065,1.3,37.34,7.39,236.06,84.73,130.96,0.0,67.574,35.178223,126.908745,,155.843274515097,,143.26451,,0 / 22,618,2014-12-14 14:52:37:686
-1.7452,-9.2142,-1.9748,-0.8638,-9.7267,-0.9032,-0.6592,0.1717,-1.0882,1.3,36.59,7.39,252.81,83.64,133.0,0.0,67.574,35.178223,126.908745,,155.843274515097,,143.26451,,0 / 22,668,2014-12-14 14:52:37:736
-1.1704,-9.5208,-1.994,-1.0244,-9.682,-1.1743,-0.239,-0.0226,-0.779,0.55,35.84,8.45,255.42,81.53,137.65,0.0,67.574,35.178223,126.908745,,155.843274515097,,143.26451,,0 / 22,718,2014-12-14 14:52:37:786
-1.8985,-9.2909,-2.2047,-1.0695,-9.663,-1.2854,-0.4601,0.0787,-0.8629,1.3,35.46,9.08,255.42,81.53,137.65,0.0,66.504,35.178223,126.908745,,155.843274515097,,143.26451,,0 / 22,768,2014-12-14 14:52:37:836
-2.09,-9.1759,-2.4538,-1.124,-9.6478,-1.3519,-0.7529,0.1696,-0.919,1.68,38.03,9.39,249.26,80.18,140.24,0.0,66.504,35.178223,126.908745,,155.843274515097,,143.26451,,0 / 22,818,2014-12-14 14:52:37:886
-1.4578,-9.425,-2.4346,-1.3129,-9.5813,-1.6262,-0.26,0.0553,-0.8551,1.3,35.84,10.2,259.83,78.53,140.29,0.0,66.504,35.178223,126.908745,,155.843274515097,,143.26451,,0 / 22,868,2014-12-14 14:52:37:936
-1.9751,-9.0993,-2.4729,-1.3238,-9.5706,-1.6798,-0.1758,-0.0391,-0.7696,2.05,36.21,9.51,259.83,78.53,140.29,0.0,66.504,35.178223,126.908745,,155.843274515097,,143.26451,,0 / 22,918,2014-12-14 14:52:37:986
-2.0134,-9.2142,-2.6837,-1.4738,-9.5032,-1.9204,-0.5364,0.2035,-1.058,1.68,36.21,8.89,263.29,77.4,141.76,0.0,66.504,35.178223,126.908745,,155.843274515097,,143.26451,,0 / 22,968,2014-12-14 14:52:38:036
-2.2242,-9.0418,-3.0285,-1.4929,-9.4852,-1.9933,-0.2769,0.1582,-1.0243,1.3,35.84,10.08,276.56,75.71,142.49,0.0,66.504,35.178223,126.908745,,155.843274515097,,143.26451,,0 / 22,1017,2014-12-14 14:52:38:085
-1.2662,-9.9997,-1.0169,-1.4813,-9.4402,-2.2042,1.1103,-0.2234,-0.2099,1.68,35.46,11.01,266.15,74.44,144.09,0.0,62.997,35.178223,126.908745,,155.843274515097,,143.26451,,0 / 22,1068,2014-12-14 14:52:38:136
-1.2279,-9.2334,-2.1472,-1.4531,-9.4614,-2.1309,0.3355,-0.6378,0.9327,2.43,34.34,10.95,266.15,74.44,144.09,0.0,62.997,35.178223,126.908745,,155.843274515097,,143.26451,,0 / 22,1118,2014-12-14 14:52:38:186
-1.841,-9.2717,-3.0094,-1.4739,-9.4364,-2.2255,-0.4493,0.1183,-0.7909,2.43,34.03,10.58,271.67,74.75,145.71,0.0,62.997,35.178223,126.908745,,155.843274515097,,143.26451,,0 / 22,1169,2014-12-14 14:52:38:237
-2.0326,-8.9269,-3.1243,-1.5051,-9.4175,-2.2838,-0.4494,0.1518,-0.8338,1.68,34.34,9.76,272.52,74.21,146.48,0.0,62.997,35.178223,126.908745,,155.843274515097,,143.26451,,0 / 22,1218,2014-12-14 14:52:38:286
-1.9751,-9.0418,-2.7411,-1.6578,-9.3465,-2.4627,-0.4384,0.2308,-0.3412,2.43,35.09,11.01,275.26,72.98,146.68,0.0,62.997,35.178223,126.908745,,155.843274515097,,143.26451,,0 / 22,1267,2014-12-14 14:52:38:335
-1.5345,-9.3483,-2.6262,-1.6586,-9.341,-2.483,-0.0161,0.0455,-0.2885,2.05,34.71,10.95,275.26,72.98,146.68,0.0,62.997,35.178223,126.908745,,155.843274515097,,143.26451,,0 / 22,1317,2014-12-14 14:52:38:385
-1.8218,-9.1376,-2.607,-1.7087,-9.3226,-2.518,-0.2097,0.0793,-0.1349,2.05,33.65,12.76,260.3,72.18,146.32,0.0,62.692,35.178223,126.908745,,155.843274515097,,143.26451,,0 / 22,1368,2014-12-14 14:52:38:436
-1.7643,-9.1376,-2.607,-1.7146,-9.3183,-2.5299,-0.075,0.0933,-0.1552,1.3,34.34,10.95,260.3,72.18,146.32,0.0,62.692,35.178223,126.908745,,155.843274515097,,143.26451,,0 / 22,1418,2014-12-14 14:52:38:486
-2.0709,-9.0993,-2.6837,-1.7876,-9.2914,-2.5777,-0.3185,0.1018,-0.1694,1.68,35.46,10.95,292.82,71.84,145.87,0.0,62.692,35.178223,126.908745,,155.843274515097,,143.26451,,0 / 22,1468,2014-12-14 14:52:38:536
-2.0709,-9.0993,-2.607,-1.8081,-9.286,-2.5829,-0.2801,0.0975,-0.0666,2.05,34.71,11.14,289.28,71.25,145.01,0.0,62.692,35.178223,126.908745,,155.843274515097,,143.26451,,0 / 22,1518,2014-12-14 14:52:38:586
-2.0134,-9.2142,-2.5687,-1.8639,-9.2729,-2.5904,-0.2146,0.0078,-0.0523,2.8,35.09,11.45,289.28,71.25,145.01,0.0,62.692,35.178223,126.908745,,155.843274515097,,143.26451,,0 / 22,1568,2014-12-14 14:52:38:636
-1.9176,-9.1376,-2.5112,-1.8747,-9.2713,-2.5882,-0.065,0.0127,-0.0036,2.05,34.71,11.45,290.99,71.01,144.26,0.0,62.692,35.178223,126.908745,,155.843274515097,,143.26451,,0 / 22,1617,2014-12-14 14:52:38:685
-1.8985,-9.1184,-2.5879,-1.8947,-9.2661,-2.5922,-0.0432,0.0686,-0.0344,2.43,33.65,11.83,290.99,71.01,144.26,0.0,62.692,35.178223,126.908745,,155.843274515097,,143.26451,,0 / 22,1667,2014-12-14 14:52:38:735
-2.0709,-9.1376,-2.6454,-1.9024,-9.2636,-2.5956,-0.1053,0.0419,-0.0443,3.87,35.46,10.08,292.95,70.89,143.84,0.0,67.421,35.178223,126.908745,,155.843274515097,,143.26451,,0 / 22,1717,2014-12-14 14:52:38:785
-1.9559,-9.1759,-2.5304,-1.936,-9.2557,-2.5989,-0.085,0.0278,0.0325,3.87,34.71,12.39,272.85,70.73,143.53,0.0,67.421,35.178223,126.908745,,155.843274515097,,143.26451,,0 / 22,1767,2014-12-14 14:52:38:835
-2.0517,-9.1184,-2.6837,-1.946,-9.253,-2.6012,-0.1401,0.0317,-0.0339,4.24,34.71,11.39,286.8,70.65,143.2,0.0,67.421,35.178223,126.908745,,155.843274515097,,143.26451,,0 / 22,1817,2014-12-14 14:52:38:885
-2.0326,-9.1376,-2.6262,-1.9606,-9.2469,-2.6119,-0.0755,0.0109,-0.0528,2.8,35.09,9.64,286.8,70.65,143.2,0.0,67.421,35.178223,126.908745,,155.843274515097,,143.26451,,0 / 22,1868,2014-12-14 14:52:38:936
-1.9751,-9.1759,-2.7028,-1.9635,-9.2453,-2.6152,-0.0451,-0.0045,-0.0539,2.8,36.21,11.14,310.54,70.55,143.11,0.0,67.421,35.178223,126.908745,,155.843274515097,,143.26451,,0 / 22,1918,2014-12-14 14:52:38:986
-1.9942,-9.1951,-2.7028,-1.9787,-9.2377,-2.6307,-0.0496,-0.0288,-0.079,3.49,35.84,11.83,285.15,70.46,143.05,0.0,67.421,35.178223,126.908745,,155.843274515097,,143.26451,,0 / 22,1968,2014-12-14 14:52:39:036
-1.9176,-9.1568,-2.607,-1.9803,-9.237,-2.6317,-0.0193,0.0268,-0.0077,2.43,34.71,10.33,305.04,70.38,143.04,0.0,67.421,35.178223,126.908745,,155.843274515097,,143.26451,,0 / 22,2017,2014-12-14 14:52:39:085
-2.0134,-9.1376,-2.6645,-1.9774,-9.234,-2.6445,-0.0569,0.0375,-0.04,2.43,35.46,11.26,305.04,70.38,143.04,0.0,59.499,35.178223,126.908745,,155.843274515097,,143.26451,,0 / 22,2068,2014-12-14 14:52:39:136
-1.9559,-9.1376,-2.6645,-1.9795,-9.232,-2.6498,-0.0278,0.0294,-0.0727,2.43,35.09,9.64,305.45,70.32,143.21,0.0,59.499,35.178223,126.908745,,155.843274515097,,143.26451,,0 / 22,2118,2014-12-14 14:52:39:186
-1.8601,-9.1759,-2.5304,-1.9703,-9.2355,-2.6444,0.0963,-0.0214,0.0773,2.8,33.65,11.14,289.52,70.29,143.24,0.0,59.499,35.178223,126.908745,,155.843274515097,,143.26451,,0 / 22,2167,2014-12-14 14:52:39:235
-1.8793,-9.1759,-2.5496,-1.9657,-9.2383,-2.6381,0.0695,-0.0128,0.0956,2.43,34.71,11.39,294.9,70.4,143.31,0.0,59.499,35.178223,126.908745,,155.843274515097,,143.26451,,0 / 22,2218,2014-12-14 14:52:39:286
-1.9176,-9.2142,-2.4538,-1.9497,-9.2495,-2.6106,0.0194,-0.0396,0.1087,2.43,35.09,10.2,294.9,70.4,143.31,0.0,59.499,35.178223,126.908745,,155.843274515097,,143.26451,,0 / 22,2267,2014-12-14 14:52:39:335
-1.9559,-9.2142,-2.5879,-1.9486,-9.2513,-2.6052,0.0074,-0.0573,0.0657,2.05,34.34,11.39,291.23,70.59,143.25,0.0,59.499,35.178223,126.908745,,155.843274515097,,143.26451,,0 / 22,2318,2014-12-14 14:52:39:386
-1.8601,-9.2334,-2.4538,-1.9445,-9.2591,-2.5804,0.0574,-0.0555,0.0788,1.68,35.84,11.7,287.19,70.66,143.06,0.0,62.181,35.178223,126.908745,,155.843274515097,,143.26451,,0 / 22,2368,2014-12-14 14:52:39:436
-2.0709,-9.0993,-2.5496,-1.9471,-9.2603,-2.5741,-0.0391,-0.0339,0.0834,2.43,34.71,10.89,292.57,70.78,142.9,0.0,62.181,35.178223,126.908745,,155.843274515097,,143.26451,,0 / 22,2418,2014-12-14 14:52:39:486
-1.9751,-9.1759,-2.4729,-1.9666,-9.2562,-2.5739,0.0138,-0.0111,0.0668,1.3,34.71,9.76,292.57,70.78,142.9,0.0,62.181,35.178223,126.908745,,155.843274515097,,143.26451,,0 / 22,2468,2014-12-14 14:52:39:536
-1.9559,-9.1951,-2.4538,-1.9625,-9.2591,-2.5667,0.0576,-0.0411,0.099,2.05,35.09,11.7,302.42,70.71,142.62,0.0,62.181,35.178223,126.908745,,155.843274515097,,143.26451,,0 / 22,2518,2014-12-14 14:52:39:586
-1.9176,-9.1568,-2.5304,-1.9594,-9.2624,-2.5573,0.0149,-0.0101,-0.0145,3.18,34.34,10.89,285.63,70.81,142.49,0.0,62.181,35.178223,126.908745,,155.843274515097,,143.26451,,0 / 22,2568,2014-12-14 14:52:39:636
-1.9176,-9.2334,-2.4346,-1.9582,-9.2632,-2.5552,0.0168,-0.0065,0.0313,1.68,34.34,9.57,299.22,70.84,142.53,0.0,62.181,35.178223,126.908745,,155.843274515097,,143.26451,,0 / 22,2618,2014-12-14 14:52:39:686
-1.8793,-9.2525,-2.4346,-1.9524,-9.2669,-2.5464,0.0448,-0.0303,0.0527,2.8,35.09,10.89,299.22,70.84,142.53,0.0,62.181,35.178223,126.908745,,155.843274515097,,143.26451,,0 / 22,2668,2014-12-14 14:52:39:736
-1.8793,-9.1951,-2.5112,-1.9413,-9.2721,-2.5358,0.0265,-0.0088,-0.0136,2.8,35.09,11.26,288.92,70.9,142.52,0.0,64.993,35.178223,126.908745,,155.843274515097,,143.26451,,0 / 22,2718,2014-12-14 14:52:39:786
-1.7643,-9.2142,-2.4346,-1.92,-9.2774,-2.5326,0.1027,-0.0113,0.0149,2.8,35.09,10.45,300.21,71.02,142.65,0.0,64.993,35.178223,126.908745,,155.843274515097,,143.26451,,0 / 22,2767,2014-12-14 14:52:39:835
-1.8601,-9.1951,-2.5304,-1.9199,-9.278,-2.5304,-4.0E-4,-0.0152,0.0291,3.18,35.46,9.89,299.78,71.09,142.83,0.0,64.993,35.178223,126.908745,,155.843274515097,,143.26451,,0 / 22,2821,2014-12-14 14:52:39:889
-1.8793,-9.1951,-2.5687,-1.9126,-9.2796,-2.5302,0.0136,-0.0087,-0.02,2.8,36.21,9.64,299.78,71.09,142.83,0.0,64.993,35.178223,126.908745,,155.843274515097,,143.26451,,0 / 22,2868,2014-12-14 14:52:39:936
-1.841,-9.2142,-2.4921,-1.9069,-9.2808,-2.53,0.0638,-0.0031,-0.004,2.8,36.21,10.01,303.23,71.13,142.91,0.0,64.993,35.178223,126.908745,,155.843274515097,,143.26451,,0 / 22,2917,2014-12-14 14:52:39:985
-1.8601,-9.1951,-2.4538,-1.9001,-9.283,-2.5271,0.0397,0.0059,0.0223,3.12,36.21,10.26,303.12,71.15,142.99,0.0,64.993,35.178223,126.908745,,155.843274515097,,143.26451,,0 / 22,2968,2014-12-14 14:52:40:036
-1.841,-9.1568,-2.4729,-1.8972,-9.2826,-2.5306,0.0081,0.0046,-0.0104,2.43,36.96,10.89,296.26,71.19,143.14,0.0,64.993,35.178223,126.908745,,155.843274515097,,143.26451,,0 / 22,3018,2014-12-14 14:52:40:086
-1.8601,-9.2142,-2.4729,-1.8919,-9.2842,-2.5287,0.049,-0.0282,0.0208,3.18,37.34,9.64,296.26,71.19,143.14,0.0,71.096,35.178223,126.908745,,155.843274515097,,143.26451,,0 / 22,3068,2014-12-14 14:52:40:136
-1.8985,-9.1951,-2.5112,-1.8933,-9.2841,-2.5279,-0.0311,0.007,0.0014,2.43,36.96,9.57,306.1,71.21,143.2,0.0,71.096,35.178223,126.908745,,155.843274515097,,143.26451,,0 / 22,3117,2014-12-14 14:52:40:185
-1.841,-9.1951,-2.4729,-1.8882,-9.2864,-2.5233,-0.0292,-0.0057,-0.0069,2.8,38.03,8.95,321.03,71.24,143.21,0.0,71.096,35.178223,126.908745,,155.843274515097,,143.26451,,0 / 22,3168,2014-12-14 14:52:40:236
-1.8793,-9.1951,-2.5304,-1.8919,-9.2858,-2.523,-0.0516,0.0111,0.0044,3.18,36.96,10.01,306.04,71.24,143.13,0.0,71.096,35.178223,126.908745,,155.843274515097,,143.26451,,0 / 22,3218,2014-12-14 14:52:40:286
-1.8027,-9.1951,-2.4538,-1.8878,-9.2869,-2.5217,0.0505,-0.0219,0.0701,3.49,35.46,10.33,306.04,71.24,143.13,0.0,71.096,35.178223,126.908745,,155.843274515097,,143.26451,,0 / 22,3268,2014-12-14 14:52:40:336
-1.8985,-9.1759,-2.5112,-1.8878,-9.2886,-2.5155,9.0E-4,-0.0165,0.0887,2.8,37.65,10.45,305.81,71.26,143.18,0.0,71.096,35.178223,126.908745,,155.843274515097,,143.26451,,0 / 22,3318,2014-12-14 14:52:40:386
-1.8985,-9.1759,-2.5112,-1.8963,-9.2851,-2.522,-0.0204,-0.0142,-0.0034,3.12,36.96,9.83,305.88,71.26,143.08,0.0,67.27,35.178223,126.908745,,155.843274515097,,143.26451,,0 / 22,3367,2014-12-14 14:52:40:435
-1.9176,-9.1951,-2.4538,-1.8972,-9.2857,-2.5191,-0.0175,-0.0294,0.0344,2.05,38.03,9.14,305.88,71.26,143.08,0.0,67.27,35.178223,126.908745,,155.843274515097,,143.26451,,0 / 22,3417,2014-12-14 14:52:40:485
-1.8793,-9.1759,-2.4921,-1.8983,-9.2864,-2.5159,0.0033,0.0076,-0.0158,3.18,35.46,10.2,305.88,71.24,143.02,0.0,67.27,35.178223,126.908745,,155.843274515097,,143.26451,,0 / 22,3468,2014-12-14 14:52:40:536
-1.8793,-9.1951,-2.5304,-1.8995,-9.2857,-2.5176,-0.0152,0.0193,-0.0212,2.8,36.21,10.26,302.46,71.24,142.97,0.0,67.27,35.178223,126.908745,,155.843274515097,,143.26451,,0 / 22,3518,2014-12-14 14:52:40:586
-1.841,-9.1759,-2.5112,-1.9043,-9.2839,-2.5205,-0.0641,0.0088,-0.0205,2.8,36.59,10.26,302.46,71.24,142.97,0.0,67.27,35.178223,126.908745,,155.843274515097,,143.26451,,0 / 22,3567,2014-12-14 14:52:40:635
-1.8601,-9.2334,-2.4921,-1.8996,-9.2854,-2.5187,0.0129,-0.0173,-0.0082,2.8,35.09,12.39,275.88,71.21,142.93,0.0,67.27,35.178223,126.908745,,155.843274515097,,143.26451,,0 / 22,3617,2014-12-14 14:52:40:685
-1.9559,-9.1759,-2.4921,-1.9044,-9.2837,-2.5211,-0.0594,0.0177,-0.0372,3.18,36.21,9.2,315.54,71.2,142.93,0.0,67.27,35.178223,126.908745,,155.843274515097,,143.26451,,0 / 22,3668,2014-12-14 14:52:40:736
-1.8985,-9.1951,-2.4729,-1.9137,-9.2811,-2.5237,-0.0087,0.0092,0.0093,3.49,35.46,10.51,315.54,71.2,142.93,0.0,72.225,35.178223,126.908745,,155.843274515097,,143.26451,,0 / 22,3717,2014-12-14 14:52:40:785
-1.8985,-9.1759,-2.4921,-1.9141,-9.2821,-2.5199,-0.0207,-0.0109,-5.0E-4,3.49,36.21,10.33,302.99,71.16,142.83,0.0,72.225,35.178223,126.908745,,155.843274515097,,143.26451,,0 / 22,3768,2014-12-14 14:52:40:836
-1.9751,-9.1568,-2.4921,-1.9239,-9.2779,-2.5278,-0.0826,0.0081,-0.0666,3.87,35.46,12.08,269.75,71.14,142.76,0.0,72.225,35.178223,126.908745,,155.843274515097,,143.26451,,0 / 22,3818,2014-12-14 14:52:40:886
-1.8985,-9.1759,-2.4729,-1.9323,-9.2756,-2.5297,-0.0233,0.0182,0.015,2.8,34.34,10.01,269.75,71.14,142.76,0.0,72.225,35.178223,126.908745,,155.843274515097,,143.26451,,0 / 22,3868,2014-12-14 14:52:40:936
-1.9368,-9.1568,-2.5112,-1.9317,-9.2775,-2.5232,-0.0455,-0.0054,0.0017,2.8,36.59,11.45,316.09,71.06,142.63,0.0,72.225,35.178223,126.908745,,155.843274515097,,143.26451,,0 / 22,3917,2014-12-14 14:52:40:985
-1.9751,-9.1568,-2.5496,-1.936,-9.2756,-2.5268,-0.022,0.0012,-0.031,2.8,35.46,10.95,287.45,71.09,142.56,0.0,72.225,35.178223,126.908745,,155.843274515097,,143.26451,,0 / 22,3968,2014-12-14 14:52:41:036
-1.9559,-9.1759,-2.4921,-1.9473,-9.2728,-2.5287,-0.0412,-0.0017,-0.0214,2.8,35.46,11.95,277.72,71.01,142.4,0.0,70.892,35.178223,126.908745,,155.843274515097,,143.26451,,0 / 22,4018,2014-12-14 14:52:41:086
-1.9942,-9.1951,-2.5496,-1.9517,-9.271,-2.5316,-0.0229,0.0076,-0.0268,3.18,36.59,5.08,277.72,71.01,142.4,0.0,70.892,35.178223,126.908745,,155.843274515097,,143.26451,,0 / 22,4068,2014-12-14 14:52:41:136
-1.9559,-9.1759,-2.5112,-1.9558,-9.2703,-2.5314,-0.0027,0.006,-0.0048,4.24,35.46,9.57,330.85,70.98,142.37,0.0,70.892,35.178223,126.908745,,155.843274515097,,143.26451,,0 / 22,4117,2014-12-14 14:52:41:185
-1.9751,-9.1951,-2.4921,-1.9601,-9.2694,-2.5312,-0.041,-0.0101,-0.0014,2.43,35.09,6.64,331.77,70.96,142.31,0.0,70.892,35.178223,126.908745,,155.843274515097,,143.26451,,0 / 22,4167,2014-12-14 14:52:41:235
-1.9751,-9.1951,-2.5112,-1.9577,-9.2705,-2.5292,0.0135,-0.0276,-0.0148,3.18,33.96,7.33,335.08,70.96,142.23,0.0,70.892,35.178223,126.908745,,155.843274515097,,143.26451,,0 / 22,4222,2014-12-14 14:52:41:290
-1.9176,-9.1951,-2.4921,-1.9674,-9.2675,-2.5324,-0.0718,0.0418,-0.0284,3.87,35.84,6.39,335.08,70.96,142.23,0.0,70.892,35.178223,126.908745,,155.843274515097,,143.26451,,0 / 22,4268,2014-12-14 14:52:41:336
-1.9751,-9.1759,-2.4538,-1.9665,-9.2688,-2.5282,0.0135,-0.0268,0.0176,2.05,34.34,6.58,329.96,70.91,142.16,0.0,70.911,35.178223,126.908745,,155.843274515097,,143.26451,,0 / 22,4318,2014-12-14 14:52:41:386
-1.9942,-9.1951,-2.4346,-1.9712,-9.2689,-2.5243,-0.0408,-0.0103,0.0311,3.18,34.71,6.2,345.84,70.94,142.12,0.0,70.911,35.178223,126.908745,,155.843274515097,,143.26451,,0 / 22,4368,2014-12-14 14:52:41:436
-1.9368,-9.2142,-2.4921,-1.9699,-9.2691,-2.5246,0.0145,0.0079,0.007,2.43,35.09,6.39,339.96,70.94,142.03,0.0,70.911,35.178223,126.908745,,155.843274515097,,143.26451,,0 / 22,4418,2014-12-14 14:52:41:486
-1.9559,-9.1759,-2.4538,-1.9691,-9.2705,-2.5203,-0.0049,-0.0043,0.0302,3.49,34.71,7.51,339.96,70.94,142.03,0.0,70.911,35.178223,126.908745,,155.843274515097,,143.26451,,0 / 22,4467,2014-12-14 14:52:41:535
-1.9176,-9.1951,-2.5304,-1.9663,-9.2706,-2.522,0.0206,0.0029,-0.0266,2.43,34.34,7.26,313.0,70.97,142.02,0.0,70.911,35.178223,126.908745,,155.843274515097,,143.26451,,0 / 22,4517,2014-12-14 14:52:41:585
-1.9368,-9.1951,-2.4538,-1.9631,-9.2718,-2.52,0.0168,-0.0043,0.0375,2.05,35.09,7.64,322.06,70.97,142.06,0.0,70.911,35.178223,126.908745,,155.843274515097,,143.26451,,0 / 22,4568,2014-12-14 14:52:41:636
-1.9176,-9.1951,-2.4921,-1.9603,-9.273,-2.5177,0.0238,-0.0034,0.0252,2.43,36.59,9.83,306.88,71.0,142.09,0.0,70.452,35.178223,126.908745,,155.843274515097,,143.26451,,0 / 22,4618,2014-12-14 14:52:41:686
-1.8601,-9.2334,-2.4729,-1.9524,-9.2757,-2.514,0.0641,-0.0342,0.0268,2.8,35.09,8.95,306.88,71.0,142.09,0.0,70.452,35.178223,126.908745,,155.843274515097,,143.26451,,0 / 22,4668,2014-12-14 14:52:41:736
-1.8985,-9.1951,-2.5112,-1.9497,-9.2761,-2.5147,0.0081,0.0092,-0.0222,2.05,36.21,9.08,342.57,71.07,142.19,0.0,70.452,35.178223,126.908745,,155.843274515097,,143.26451,,0 / 22,4717,2014-12-14 14:52:41:785
-1.8985,-9.2142,-2.4346,-1.9446,-9.2776,-2.5129,0.0369,-0.0159,0.0402,3.18,37.34,9.14,318.38,71.07,142.21,0.0,70.452,35.178223,126.908745,,155.843274515097,,143.26451,,0 / 22,4768,2014-12-14 14:52:41:836
-1.9176,-9.1951,-2.5112,-1.9416,-9.279,-2.5108,0.0127,0.0092,0.0064,2.43,37.28,9.39,316.13,71.11,142.29,0.0,70.452,35.178223,126.908745,,155.843274515097,,143.26451,,0 / 22,4818,2014-12-14 14:52:41:886
-1.9176,-9.2142,-2.4155,-1.937,-9.2802,-2.5093,0.0402,-0.024,0.0454,3.49,38.03,9.33,316.13,71.11,142.29,0.0,70.452,35.178223,126.908745,,155.843274515097,,143.26451,,0 / 22,4868,2014-12-14 14:52:41:936
-1.9176,-9.1759,-2.4155,-1.9347,-9.2827,-2.5019,0.0013,-4.0E-4,0.0216,2.8,38.03,8.51,320.4,71.18,142.3,0.0,70.452,35.178223,126.908745,,155.843274515097,,143.26451,,0 / 22,4918,2014-12-14 14:52:41:986
-1.9368,-9.1951,-2.4921,-1.9321,-9.2832,-2.5018,0.0241,0.0138,0.0121,2.43,36.21,8.95,313.39,71.2,142.32,0.0,69.564,35.178223,126.908745,,155.843274515097,,143.26451,,0 / 22,4968,2014-12-14 14:52:42:036
-1.8985,-9.2142,-2.4346,-1.934,-9.282,-2.5049,0.008,0.0087,-4.0E-4,3.49,37.28,8.95,317.92,71.17,142.33,0.0,69.564,35.178223,126.908745,,155.843274515097,,143.26451,,0 / 22,5050,2014-12-14 14:52:42:118
-1.9176,-9.1568,-2.4538,-1.9285,-9.2844,-2.5004,0.0459,-0.0184,0.0394,4.62,37.28,8.95,317.92,71.17,142.33,0.0,69.564,35.178223,126.908745,,155.843274515097,,143.26451,,0 / 22,5068,2014-12-14 14:52:42:136
-1.8601,-9.1951,-2.4346,-1.9249,-9.2859,-2.4973,0.048,-0.0089,0.02,3.87,36.59,8.51,320.62,71.25,142.37,0.0,69.564,35.178223,126.908745,,155.843274515097,,143.26451,,0 / 22,5117,2014-12-14 14:52:42:185
-1.9368,-9.1759,-2.4538,-1.9279,-9.2845,-2.5005,0.0074,0.0168,0.002,4.99,39.9,8.7,334.53,71.24,142.37,0.0,69.564,35.178223,126.908745,,155.843274515097,,143.26451,,0 / 22,5168,2014-12-14 14:52:42:236
-1.9368,-9.2142,-2.4346,-1.9215,-9.2861,-2.4992,0.0286,-0.0167,-0.0093,3.18,36.96,10.26,334.53,71.24,142.37,0.0,69.564,35.178223,126.908745,,155.843274515097,,143.26451,,0 / 22,5218,2014-12-14 14:52:42:286
-1.8793,-9.1951,-2.4346,-1.926,-9.2849,-2.5002,-0.0277,0.0165,-0.0129,3.87,36.96,9.89,315.61,71.25,142.44,0.0,71.737,35.178223,126.908745,,155.843274515097,,143.26451,,0 / 22,5268,2014-12-14 14:52:42:336
-1.9176,-9.1951,-2.4346,-1.9209,-9.2864,-2.4985,-0.0078,-0.0078,-0.0226,3.18,36.59,9.64,305.45,71.26,142.44,0.0,71.737,35.178223,126.908745,,155.843274515097,,143.26451,,0 / 22,5318,2014-12-14 14:52:42:386
-1.8985,-9.1568,-2.4538,-1.9228,-9.2861,-2.4982,-0.0124,-0.0054,0.0096,2.8,35.46,10.7,286.27,71.25,142.41,0.0,71.737,35.178223,126.908745,,155.843274515097,,143.26451,,0 / 22,5367,2014-12-14 14:52:42:435
-1.9176,-9.1951,-2.5112,-1.9215,-9.2873,-2.4948,0.0015,0.0151,-0.0024,3.49,36.59,8.45,286.27,71.25,142.41,0.0,71.737,35.178223,126.908745,,155.843274515097,,143.26451,,0 / 22,5418,2014-12-14 14:52:42:486
-1.8793,-9.2142,-2.4346,-1.9198,-9.288,-2.4934,0.0378,-0.0185,0.0155,1.68,36.21,10.08,302.71,71.27,142.4,0.0,71.737,35.178223,126.908745,,155.843274515097,,143.26451,,0 / 22,5474,2014-12-14 14:52:42:542
-1.8027,-9.2142,-2.4538,-1.916,-9.2906,-2.487,0.04,-0.0146,0.0603,2.43,36.59,8.95,302.71,71.27,142.4,0.0,71.737,35.178223,126.908745,,155.843274515097,,143.26451,,0 / 22,5518,2014-12-14 14:52:42:586
-1.8985,-9.1951,-2.4538,-1.9113,-9.2922,-2.4846,-0.0054,-0.0044,-0.0208,1.3,36.21,10.89,310.12,71.33,142.39,0.0,71.737,35.178223,126.908745,,155.843274515097,,143.26451,,0 / 22,5568,2014-12-14 14:52:42:636
-1.9176,-9.1759,-2.4921,-1.9146,-9.2905,-2.4883,-0.0413,0.0274,-0.0139,3.18,35.84,9.76,301.43,71.35,142.46,0.0,64.132,35.178223,126.908745,,155.843274515097,,143.26451,,0 / 22,5618,2014-12-14 14:52:42:686
-1.9368,-9.1951,-2.4921,-1.9186,-9.2885,-2.4924,-0.0361,-0.0062,-0.0172,2.05,36.59,10.7,301.43,71.35,142.46,0.0,64.132,35.178223,126.908745,,155.843274515097,,143.26451,,0 / 22,5667,2014-12-14 14:52:42:735
-1.9368,-9.1951,-2.4346,-1.9206,-9.2876,-2.4943,-0.0211,0.0018,0.0031,2.8,35.09,9.83,305.49,71.29,142.41,0.0,64.132,35.178223,126.908745,,155.843274515097,,143.26451,,0 / 22,5718,2014-12-14 14:52:42:786
-1.9368,-9.1759,-2.4921,-1.9253,-9.2863,-2.4955,-0.0377,0.0026,-0.0128,2.05,36.21,9.83,302.68,71.28,142.4,0.0,64.132,35.178223,126.908745,,155.843274515097,,143.26451,,0 / 22,5768,2014-12-14 14:52:42:836
-1.9176,-9.2142,-2.4155,-1.9248,-9.2842,-2.5038,0.0108,-0.004,-0.0087,2.05,35.09,10.14,300.08,71.21,142.43,0.0,64.132,35.178223,126.908745,,155.843274515097,,143.26451,,0 / 22,5818,2014-12-14 14:52:42:886
-1.9176,-9.2142,-2.4346,-1.9253,-9.2857,-2.498,-0.0103,-0.0017,0.0483,3.49,35.84,8.89,300.08,71.21,142.43,0.0,64.132,35.178223,126.908745,,155.843274515097,,143.26451,,0 / 22,5868,2014-12-14 14:52:42:936
-1.9942,-9.1568,-2.4729,-1.9269,-9.2858,-2.4962,-0.0207,0.0128,-0.0168,2.8,36.59,10.33,302.16,71.24,142.38,0.0,67.077,35.178223,126.908745,,155.843274515097,,143.26451,,0 / 22,5918,2014-12-14 14:52:42:986
-1.9368,-9.1568,-2.4921,-1.9373,-9.2824,-2.501,-0.0562,0.0186,-0.0333,2.8,35.84,12.58,313.16,71.24,142.33,0.0,67.077,35.178223,126.908745,,155.843274515097,,143.26451,,0 / 22,5968,2014-12-14 14:52:43:036
-1.8985,-9.1951,-2.358,-1.934,-9.2833,-2.5,0.049,-0.0017,0.0488,3.18,36.96,11.58,283.81,71.17,142.26,0.0,67.077,35.178223,126.908745,,155.843274515097,,143.26451,,0 / 22,6018,2014-12-14 14:52:43:086
-1.9368,-9.2142,-2.4538,-1.9315,-9.2851,-2.4954,0.0105,-0.0022,0.0162,2.05,35.84,10.51,293.02,71.23,142.26,0.0,67.077,35.178223,126.908745,,155.843274515097,,143.26451,,0 / 22,6068,2014-12-14 14:52:43:136
-1.8985,-9.1951,-2.5112,-1.9346,-9.2832,-2.4999,-0.0212,0.017,-0.0323,0.55,36.59,9.33,293.02,71.23,142.26,0.0,67.077,35.178223,126.908745,,155.843274515097,,143.26451,,0 / 22,6117,2014-12-14 14:52:43:185
-1.9942,-9.1568,-2.5112,-1.9369,-9.2822,-2.5021,-0.058,0.03,-0.0013,2.8,34.71,10.89,286.65,71.2,142.31,0.0,67.077,35.178223,126.908745,,155.843274515097,,143.26451,,0 / 22,6168,2014-12-14 14:52:43:236
-1.9942,-9.1951,-2.5496,-1.9476,-9.2791,-2.5051,-0.0655,-0.0123,-0.0757,2.43,35.46,11.7,281.71,71.12,142.14,0.0,67.077,35.178223,126.908745,,155.843274515097,,143.26451,,0 / 22,6217,2014-12-14 14:52:43:285
-1.841,-9.1951,-2.4538,-1.9331,-9.2813,-2.5081,0.0805,-0.0168,0.0705,0.93,35.09,10.7,281.71,71.12,142.14,0.0,75.195,35.178223,126.908745,,155.843274515097,,143.26451,,0 / 22,6268,2014-12-14 14:52:43:336
-1.9176,-9.2142,-2.4729,-1.9309,-9.2838,-2.5006,0.0036,-0.0107,0.0057,3.49,35.84,10.76,287.09,71.16,142.38,0.0,75.195,35.178223,126.908745,,155.843274515097,,143.26451,,0 / 22,6317,2014-12-14 14:52:43:385
-1.9751,-9.1759,-2.5304,-1.9364,-9.2791,-2.5137,-0.0585,0.0141,-0.0215,2.43,34.34,10.45,297.1,71.18,142.39,0.0,75.195,35.178223,126.908745,,155.843274515097,,143.26451,,0 / 22,6367,2014-12-14 14:52:43:435
-1.9559,-9.1759,-2.4921,-1.9436,-9.2779,-2.5127,-0.0335,0.0137,0.0082,2.8,35.09,10.7,287.45,71.1,142.28,0.0,75.195,35.178223,126.908745,,155.843274515097,,143.26451,,0 / 22,6418,2014-12-14 14:52:43:486
-1.8793,-9.1951,-2.5304,-1.9414,-9.2787,-2.5113,0.0241,-0.0142,-0.0137,2.05,36.21,9.83,287.45,71.1,142.28,0.0,75.195,35.178223,126.908745,,155.843274515097,,143.26451,,0 / 22,6468,2014-12-14 14:52:43:536
-1.8985,-9.1759,-2.4538,-1.9392,-9.28,-2.5083,0.0158,0.0116,0.033,2.43,35.46,11.64,300.64,71.11,142.29,0.0,75.195,35.178223,126.908745,,155.843274515097,,143.26451,,0 / 22,6518,2014-12-14 14:52:43:586
-1.8985,-9.1759,-2.5112,-1.9389,-9.2799,-2.5088,0.0106,0.0123,-0.015,2.8,35.46,11.01,287.08,71.15,142.29,0.0,75.195,35.178223,126.908745,,155.843274515097,,143.26451,,0 / 22,6573,2014-12-14 14:52:43:641
-1.9368,-9.1759,-2.4729,-1.9388,-9.2811,-2.5046,-0.0031,0.0075,0.0263,3.18,35.84,9.39,315.15,71.16,142.26,0.0,74.022,35.178223,126.908745,,155.843274515097,,143.26451,,0 / 22,6617,2014-12-14 14:52:43:685
-1.9176,-9.1951,-2.4538,-1.9401,-9.2823,-2.4989,0.0107,-0.0218,0.0459,3.18,35.46,10.26,315.15,71.16,142.26,0.0,74.022,35.178223,126.908745,,155.843274515097,,143.26451,,0 / 22,6668,2014-12-14 14:52:43:736
-1.8985,-9.2142,-2.4729,-1.9413,-9.2832,-2.4948,0.0031,-0.0138,0.0285,2.43,36.21,8.26,323.36,71.18,142.18,0.0,74.022,35.178223,126.908745,,155.843274515097,,143.26451,,0 / 22,6718,2014-12-14 14:52:43:786
-1.9368,-9.1951,-2.4921,-1.9403,-9.2836,-2.4941,-0.0072,0.0078,0.0162,1.3,35.46,9.76,301.1,71.2,142.12,0.0,74.022,35.178223,126.908745,,155.843274515097,,143.26451,,0 / 22,6767,2014-12-14 14:52:43:835
-1.9368,-9.1951,-2.4538,-1.941,-9.2847,-2.4894,0.0028,-0.0217,0.0342,2.05,35.09,9.83,301.1,71.2,142.12,0.0,74.022,35.178223,126.908745,,155.843274515097,,143.26451,,0 / 22,6817,2014-12-14 14:52:43:885
-1.9751,-9.1759,-2.4921,-1.9421,-9.2854,-2.4859,-0.0432,0.003,0.0074,2.05,35.09,11.45,286.81,71.22,142.06,0.0,74.022,35.178223,126.908745,,155.843274515097,,143.26451,,0 / 22,6868,2014-12-14 14:52:43:936
-1.9559,-9.1951,-2.4538,-1.9492,-9.2836,-2.4872,-0.0375,0.0201,0.0177,2.43,34.34,11.39,286.75,71.24,142.0,0.0,74.022,35.178223,126.908745,,155.843274515097,,143.26451,,0 / 22,6918,2014-12-14 14:52:43:986
-1.8793,-9.2142,-2.4538,-1.9465,-9.2854,-2.4824,0.0281,-0.0093,0.043,2.8,35.84,8.89,314.56,71.2,141.91,0.0,72.095,35.178223,126.908745,,155.843274515097,,143.26451,,0 / 22,6968,2014-12-14 14:52:44:036
-1.9176,-9.2142,-2.4346,-1.9426,-9.2878,-2.4766,0.0024,-0.0118,0.0344,3.87,36.9,10.95,314.56,71.2,141.91,0.0,72.095,35.178223,126.908745,,155.843274515097,,143.26451,,0 / 22,7018,2014-12-14 14:52:44:086
-1.9559,-9.2142,-2.4729,-1.9472,-9.2863,-2.4785,-0.0191,-0.0167,0.0176,1.68,34.71,9.89,289.63,71.26,141.9,0.0,72.095,35.178223,126.908745,,155.843274515097,,143.26451,,0 / 22,7068,2014-12-14 14:52:44:136
-1.8793,-9.1951,-2.4729,-1.9441,-9.2873,-2.4771,0.0455,-2.0E-4,0.0166,2.05,35.46,10.58,289.88,71.25,141.85,0.0,72.095,35.178223,126.908745,,155.843274515097,,143.26451,,0 / 22,7117,2014-12-14 14:52:44:185
-1.9559,-9.1951,-2.4346,-1.9412,-9.2897,-2.4707,-0.0406,-0.0059,0.0248,3.18,35.46,9.08,310.9,71.29,141.91,0.0,72.095,35.178223,126.908745,,155.843274515097,,143.26451,,0 / 22,7168,2014-12-14 14:52:44:236
-1.8793,-9.2334,-2.4538,-1.939,-9.2904,-2.4698,0.0439,-0.0209,-0.0031,2.8,35.09,10.58,310.9,71.29,141.91,0.0,72.095,35.178223,126.908745,,155.843274515097,,143.26451,,0 / 22,7218,2014-12-14 14:52:44:286
-1.9368,-9.2142,-2.4346,-1.9389,-9.2895,-2.4733,-0.0158,-0.0125,-7.0E-4,2.8,34.71,11.26,297.87,71.33,141.86,0.0,69.671,35.178223,126.908745,,155.843274515097,,143.26451,,0 / 22,7268,2014-12-14 14:52:44:336
-1.8985,-9.2525,-2.358,-1.9333,-9.2926,-2.4658,0.0544,-0.031,0.0609,2.05,34.71,10.26,299.43,71.31,141.91,0.0,69.671,35.178223,126.908745,,155.843274515097,,143.26451,,0 / 22,7317,2014-12-14 14:52:44:385
-1.9751,-9.2142,-2.4729,-1.937,-9.2926,-2.4629,-0.0618,0.0096,-0.0582,3.18,35.46,10.14,297.35,71.37,141.82,0.0,69.671,35.178223,126.908745,,155.843274515097,,143.26451,,0 / 22,7368,2014-12-14 14:52:44:436
-1.9176,-9.1951,-2.358,-1.9368,-9.2919,-2.4658,0.0122,-0.0052,0.01,1.68,35.09,11.14,297.35,71.37,141.82,0.0,69.671,35.178223,126.908745,,155.843274515097,,143.26451,,0 / 22,7417,2014-12-14 14:52:44:485
-1.8793,-9.2717,-2.3963,-1.9363,-9.2929,-2.4623,0.0086,-0.0027,0.0524,2.8,35.09,11.39,285.6,71.35,141.85,0.0,69.671,35.178223,126.908745,,155.843274515097,,143.26451,,0 / 22,7467,2014-12-14 14:52:44:535
-1.8793,-9.2142,-2.3963,-1.9213,-9.2995,-2.4492,0.0603,-0.0425,0.0149,2.43,35.46,10.51,285.6,71.35,141.85,0.0,69.671,35.178223,126.908745,,155.843274515097,,143.26451,,0 / 22,7517,2014-12-14 14:52:44:585
-1.9176,-9.1759,-2.4155,-1.9265,-9.2974,-2.453,-0.0167,0.023,0.0047,2.05,34.71,10.26,298.32,71.49,141.89,0.0,69.671,35.178223,126.908745,,155.843274515097,,143.26451,,0 / 22,7570,2014-12-14 14:52:44:638
-1.9368,-9.1759,-2.4538,-1.9307,-9.2964,-2.4535,-0.0741,0.0265,-0.0314,3.18,35.46,11.26,284.98,71.44,141.8,0.0,61.48,35.178223,126.908745,,155.843274515097,,143.26451,,0 / 22,7617,2014-12-14 14:52:44:685
-1.9751,-9.1951,-2.4538,-1.9422,-9.2916,-2.4626,-0.0403,0.0074,0.0037,2.43,35.09,10.7,289.09,71.38,141.76,0.0,61.48,35.178223,126.908745,,155.843274515097,,143.26451,,0 / 22,7667,2014-12-14 14:52:44:735
-1.8985,-9.2142,-2.4538,-1.9447,-9.2918,-2.46,-0.0211,-0.0132,0.0021,3.18,36.21,9.57,289.09,71.38,141.76,0.0,61.48,35.178223,126.908745,,155.843274515097,,143.26451,,0 / 22,7717,2014-12-14 14:52:44:785
-1.8601,-9.2142,-2.4729,-1.9425,-9.2923,-2.4597,0.0286,-0.0152,0.0024,2.8,34.34,11.39,281.79,71.35,141.67,0.0,61.48,35.178223,126.908745,,155.843274515097,,143.26451,,0 / 22,7767,2014-12-14 14:52:44:835
-1.8601,-9.2142,-2.3963,-1.9317,-9.2944,-2.4602,0.0891,-0.0105,0.0219,2.05,34.71,11.64,280.18,71.4,141.86,0.0,61.48,35.178223,126.908745,,155.843274515097,,143.26451,,0 / 22,7818,2014-12-14 14:52:44:886
-1.9942,-9.1951,-2.5112,-1.9288,-9.295,-2.4603,-0.0733,0.0241,-0.0297,1.68,35.09,9.14,280.18,71.4,141.86,0.0,61.48,35.178223,126.908745,,155.843274515097,,143.26451,,0 / 22,7868,2014-12-14 14:52:44:936
-1.9942,-9.1951,-2.4346,-1.9403,-9.2911,-2.4661,-0.0753,0.0092,-0.0207,2.43,35.46,10.7,288.88,71.41,141.9,0.0,64.979,35.178223,126.908745,,155.843274515097,,143.26451,,0 / 22,7918,2014-12-14 14:52:44:986
-1.841,-9.1951,-2.3771,-1.9405,-9.2909,-2.4667,-0.0035,-0.004,-0.0114,1.3,35.46,10.45,288.88,71.41,141.9,0.0,64.979,35.178223,126.908745,,155.843274515097,,143.26451,,0 / 22,7968,2014-12-14 14:52:45:036
-1.8218,-9.2142,-2.3771,-1.9215,-9.2959,-2.4626,0.0557,-0.0085,-0.012,2.8,35.09,11.7,275.74,71.33,141.81,0.0,64.979,35.178223,126.908745,,155.843274515097,,143.26451,,0 / 22,8018,2014-12-14 14:52:45:086
-1.9176,-9.1759,-2.4155,-1.9205,-9.2955,-2.4648,0.0141,0.0121,-0.0291,3.18,34.34,10.26,292.99,71.43,142.04,0.0,64.979,35.178223,126.908745,,155.843274515097,,143.26451,,0 / 22,8068,2014-12-14 14:52:45:136
-1.9176,-9.2334,-2.358,-1.9222,-9.2962,-2.4611,-0.0142,-0.0116,0.0331,2.05,36.21,10.51,292.99,71.43,142.04,0.0,64.979,35.178223,126.908745,,155.843274515097,,143.26451,,0 / 22,8118,2014-12-14 14:52:45:186
-1.8793,-9.1951,-2.4538,-1.9246,-9.2952,-2.463,-0.034,0.0095,-0.027,2.8,34.71,11.39,298.71,71.43,142.01,0.0,64.979,35.178223,126.908745,,155.843274515097,,143.26451,,0 / 22,8168,2014-12-14 14:52:45:236
-1.9368,-9.1568,-2.4729,-1.9247,-9.2949,-2.464,-0.0222,0.006,0.0041,2.05,35.84,10.08,295.77,71.4,142.04,0.0,64.979,35.178223,126.908745,,155.843274515097,,143.26451,,0 / 22,8221,2014-12-14 14:52:45:289
-1.8985,-9.2142,-2.4155,-1.9262,-9.2935,-2.4679,-0.0204,0.0253,-0.0523,2.43,34.71,9.64,299.0,71.38,142.03,0.0,64.979,35.178223,126.908745,,155.843274515097,,143.26451,,0 / 22,8268,2014-12-14 14:52:45:336
-1.8601,-9.2334,-2.4155,-1.9197,-9.2979,-2.4565,0.0148,-0.0205,0.0368,1.68,34.34,10.51,299.0,71.38,142.03,0.0,57.741,35.178223,126.908745,,155.843274515097,,143.26451,,0 / 22,8317,2014-12-14 14:52:45:385
-1.8985,-9.1951,-2.3771,-1.9176,-9.2991,-2.4535,0.028,-0.0176,0.0417,2.05,35.09,9.57,298.51,71.46,141.99,0.0,57.741,35.178223,126.908745,,155.843274515097,,143.26451,,0 / 22,8368,2014-12-14 14:52:45:436
-1.841,-9.1951,-2.3197,-1.9135,-9.3037,-2.4392,0.0637,-0.0055,0.0747,2.05,35.09,11.95,279.53,71.5,141.93,0.0,57.741,35.178223,126.908745,,155.843274515097,,143.26451,,0 / 22,8418,2014-12-14 14:52:45:486
-1.9368,-9.1951,-2.3771,-1.9154,-9.3039,-2.4372,-0.0539,-0.0052,-5.0E-4,2.05,35.46,10.58,279.53,71.5,141.93,0.0,57.741,35.178223,126.908745,,155.843274515097,,143.26451,,0 / 22,8468,2014-12-14 14:52:45:536
-1.9176,-9.1951,-2.4729,-1.9253,-9.2999,-2.4444,-0.0514,0.0558,-0.0577,1.68,35.09,10.45,297.82,71.57,141.84,0.0,57.741,35.178223,126.908745,,155.843274515097,,143.26451,,0 / 22,8518,2014-12-14 14:52:45:586
-1.8793,-9.2142,-2.4921,-1.9264,-9.297,-2.4548,0.0035,0.0071,-0.0793,2.05,34.71,11.01,288.66,71.45,141.88,0.0,57.741,35.178223,126.908745,,155.843274515097,,143.26451,,0 / 22,8568,2014-12-14 14:52:45:636
-1.8027,-9.2334,-2.358,-1.9029,-9.3056,-2.4404,0.0815,-0.0373,0.0558,2.05,34.71,11.26,288.66,71.45,141.88,0.0,57.741,35.178223,126.908745,,155.843274515097,,143.26451,,0 / 22,8621,2014-12-14 14:52:45:689
-1.841,-9.2142,-2.4346,-1.8976,-9.3066,-2.4405,0.0783,0.0078,0.0052,2.43,35.09,9.57,297.65,71.61,142.06,0.0,56.411,35.178223,126.908745,,155.843274515097,,143.26451,,0 / 22,8668,2014-12-14 14:52:45:736
-1.8218,-9.1951,-2.4729,-1.894,-9.305,-2.4496,0.0478,0.017,-0.0011,2.05,35.09,11.26,287.58,71.6,142.2,0.0,56.411,35.178223,126.908745,,155.843274515097,,143.26451,,0 / 22,8718,2014-12-14 14:52:45:786
-1.841,-9.2334,-2.3963,-1.8908,-9.3066,-2.4458,0.0397,-0.0414,0.0477,2.43,34.71,10.83,287.58,71.6,142.2,0.0,56.411,35.178223,126.908745,,155.843274515097,,143.26451,,0 / 22,8768,2014-12-14 14:52:45:836
-1.8793,-9.2525,-2.3771,-1.8874,-9.3092,-2.4386,0.0096,-0.0319,0.0435,1.3,35.46,8.7,308.1,71.62,142.29,0.0,56.411,35.178223,126.908745,,155.843274515097,,143.26451,,0 / 22,8817,2014-12-14 14:52:45:885
-1.8793,-9.2334,-2.4538,-1.8931,-9.307,-2.4428,-0.0137,-0.0036,8.0E-4,2.43,34.71,10.01,297.33,71.66,142.24,0.0,56.411,35.178223,126.908745,,155.843274515097,,143.26451,,0 / 22,8868,2014-12-14 14:52:45:936
-1.7835,-9.1951,-2.4729,-1.8906,-9.3064,-2.4467,0.0611,0.018,-0.0374,2.43,33.96,11.14,297.33,71.66,142.24,0.0,56.411,35.178223,126.908745,,155.843274515097,,143.26451,,0 / 22,8917,2014-12-14 14:52:45:985
-1.8218,-9.2142,-2.4155,-1.8822,-9.3089,-2.4437,0.0501,-0.0233,0.0214,2.8,34.71,10.45,295.52,71.62,142.31,0.0,56.411,35.178223,126.908745,,155.843274515097,,143.26451,,0 / 22,8968,2014-12-14 14:52:46:036
-1.8793,-9.1951,-2.4155,-1.8769,-9.311,-2.44,0.0341,-0.0054,0.0214,3.18,35.46,8.95,295.52,71.62,142.31,0.0,69.53,35.178223,126.908745,,155.843274515097,,143.26451,,0 / 22,9018,2014-12-14 14:52:46:086
-1.9176,-9.1759,-2.4155,-1.8895,-9.3076,-2.4433,-0.064,0.0289,0.0172,1.68,34.34,10.83,297.04,71.71,142.43,0.0,69.53,35.178223,126.908745,,155.843274515097,,143.26451,,0 / 22,9068,2014-12-14 14:52:46:136
-1.8793,-9.2334,-2.3963,-1.8952,-9.3077,-2.4385,-0.0455,-0.0192,0.0157,1.3,35.09,10.26,298.86,71.64,142.28,0.0,69.53,35.178223,126.908745,,155.843274515097,,143.26451,,0 / 22,9118,2014-12-14 14:52:46:186
-1.9559,-9.1951,-2.4729,-1.8963,-9.3073,-2.4389,-0.026,-1.0E-4,-0.027,2.8,34.71,10.45,298.86,71.64,142.28,0.0,69.53,35.178223,126.908745,,155.843274515097,,143.26451,,0 / 22,9168,2014-12-14 14:52:46:236
-1.8985,-9.2142,-2.4346,-1.9036,-9.3036,-2.4474,0.0533,-0.0021,-0.0123,2.05,34.71,10.45,283.31,71.64,142.13,0.0,69.53,35.178223,126.908745,,155.843274515097,,143.26451,,0 / 22,9218,2014-12-14 14:52:46:286
-1.7835,-9.2334,-2.3963,-1.8963,-9.3051,-2.4472,0.1003,-0.0198,0.0032,2.05,33.96,12.14,275.9,71.57,142.13,0.0,69.53,35.178223,126.908745,,155.843274515097,,143.26451,,0 / 22,9268,2014-12-14 14:52:46:336
-1.8218,-9.2525,-2.3388,-1.8767,-9.3127,-2.4336,0.0435,-0.0345,0.0447,2.43,33.96,11.26,283.78,71.68,142.36,0.0,69.53,35.178223,126.908745,,155.843274515097,,143.26451,,0 / 22,9318,2014-12-14 14:52:46:386
-1.841,-9.2142,-2.4346,-1.8751,-9.3137,-2.431,0.0234,-0.0115,0.0362,2.05,33.96,12.14,283.78,71.68,142.36,0.0,66.076,35.178223,126.908745,,155.843274515097,,143.26451,,0 / 22,9368,2014-12-14 14:52:46:436
-1.9176,-9.2334,-2.3771,-1.881,-9.313,-2.4291,-0.071,0.011,0.0014,2.05,34.71,11.01,286.54,71.76,142.36,0.0,66.076,35.178223,126.908745,,155.843274515097,,143.26451,,0 / 22,9418,2014-12-14 14:52:46:486
-1.8601,-9.2142,-2.4155,-1.8856,-9.3113,-2.432,0.0064,0.003,-0.0141,2.05,35.09,11.01,286.86,71.71,142.19,0.0,66.076,35.178223,126.908745,,155.843274515097,,143.26451,,0 / 22,9467,2014-12-14 14:52:46:535
-1.8793,-9.1951,-2.4346,-1.8852,-9.3106,-2.4349,-0.0034,-0.0042,-0.0076,2.43,33.59,8.2,286.86,71.71,142.19,0.0,66.076,35.178223,126.908745,,155.843274515097,,143.26451,,0 / 22,9518,2014-12-14 14:52:46:586
-1.8601,-9.1951,-2.4921,-1.8839,-9.3081,-2.4455,0.0096,0.0201,-0.0358,2.05,35.46,11.26,308.02,71.7,142.25,0.0,66.076,35.178223,126.908745,,155.843274515097,,143.26451,,0 / 22,9568,2014-12-14 14:52:46:636
-1.8601,-9.2334,-2.4155,-1.8856,-9.3078,-2.4454,-0.0113,-0.0064,0.0108,2.43,34.71,10.14,297.38,71.65,142.39,0.0,66.076,35.178223,126.908745,,155.843274515097,,143.26451,,0 / 22,9618,2014-12-14 14:52:46:686
-1.7835,-9.2525,-2.4538,-1.8825,-9.3075,-2.4488,0.0396,-0.0022,-0.033,1.68,35.09,9.57,297.41,71.65,142.37,0.0,66.076,35.178223,126.908745,,155.843274515097,,143.26451,,0 / 22,9668,2014-12-14 14:52:46:736
-1.8027,-9.2142,-2.4346,-1.8733,-9.3096,-2.448,0.0506,-0.0166,0.0096,2.43,34.34,10.76,283.68,71.68,142.58,0.0,67.396,35.178223,126.908745,,155.843274515097,,143.26451,,0 / 22,9718,2014-12-14 14:52:46:786
-1.7643,-9.2334,-2.4346,-1.8642,-9.3121,-2.4455,0.0674,-0.0107,-0.0101,2.43,35.09,11.14,283.68,71.68,142.58,0.0,67.396,35.178223,126.908745,,155.843274515097,,143.26451,,0 / 22,9768,2014-12-14 14:52:46:836
-1.7835,-9.2334,-2.4729,-1.8531,-9.3125,-2.4525,0.0493,-7.0E-4,-0.0223,2.8,35.09,8.26,322.46,71.73,142.68,0.0,67.396,35.178223,126.908745,,155.843274515097,,143.26451,,0 / 22,9819,2014-12-14 14:52:46:887
-1.7643,-9.2525,-2.4346,-1.8492,-9.3119,-2.4574,0.0117,-0.0019,-0.0319,2.05,35.46,11.2,286.53,71.72,143.04,0.0,67.396,35.178223,126.908745,,155.843274515097,,143.26451,,0 / 22,9867,2014-12-14 14:52:46:935
-1.8218,-9.2142,-2.4155,-1.8419,-9.3145,-2.4529,0.008,-0.0082,0.0323,3.18,34.71,10.33,286.53,71.72,143.04,0.0,67.396,35.178223,126.908745,,155.843274515097,,143.26451,,0 / 22,9917,2014-12-14 14:52:46:985
-1.8027,-9.2142,-2.4155,-1.8389,-9.3151,-2.4529,0.0176,0.0063,-0.0196,0.93,34.34,10.76,286.41,71.77,143.1,0.0,67.396,35.178223,126.908745,,155.843274515097,,143.26451,,0 / 22,9968,2014-12-14 14:52:47:036
-1.8218,-9.2142,-2.4729,-1.8308,-9.3153,-2.4582,0.014,0.0096,-0.0274,1.68,33.96,10.51,296.52,71.79,143.16,0.0,67.396,35.178223,126.908745,,155.843274515097,,143.26451,,0 / 22,10050,2014-12-14 14:52:47:118
-1.8218,-9.2142,-2.4729,-1.8308,-9.3153,-2.4582,0.014,0.0096,-0.0274,1.68,33.96,10.51,296.52,71.79,143.16,0.0,67.396,35.178223,126.908745,,155.843274515097,,143.26451,,0 / 22,10067,2014-12-14 14:52:47:135
-1.7452,-9.2334,-2.4155,-1.8305,-9.3149,-2.4602,0.0019,0.0165,-0.0171,0.93,34.34,10.33,295.27,71.79,143.32,0.0,56.142,35.178223,126.908745,,155.843274515097,,143.26451,,0 / 22,10118,2014-12-14 14:52:47:186
-1.7452,-9.2525,-2.4155,-1.8196,-9.317,-2.4604,0.0533,-0.0283,0.0189,1.3,34.34,10.45,295.27,71.79,143.32,0.0,56.142,35.178223,126.908745,,155.843274515097,,143.26451,,0 / 22,10167,2014-12-14 14:52:47:235
-1.7643,-9.2142,-2.4155,-1.8159,-9.3187,-2.4566,0.025,-0.0163,0.0166,2.05,35.09,9.57,296.4,71.82,143.51,0.0,56.142,35.178223,126.908745,,155.843274515097,,143.26451,,0 / 22,10218,2014-12-14 14:52:47:286
-1.7835,-9.2334,-2.4538,-1.8096,-9.3192,-2.4592,0.0315,0.0085,-0.0025,3.18,35.46,9.08,288.62,71.85,143.53,0.0,56.142,35.178223,126.908745,,155.843274515097,,143.26451,,0 / 22,10268,2014-12-14 14:52:47:336
-1.841,-9.2142,-2.4155,-1.8121,-9.3186,-2.4599,-0.0367,0.0099,-0.0071,1.3,34.71,10.26,297.62,71.86,143.65,0.0,56.142,35.178223,126.908745,,155.843274515097,,143.26451,,0 / 22,10318,2014-12-14 14:52:47:386
-1.7069,-9.2334,-2.4538,-1.8068,-9.3191,-2.4619,0.0494,-0.0059,-0.0092,1.68,35.09,10.33,297.62,71.86,143.65,0.0,56.142,35.178223,126.908745,,155.843274515097,,143.26451,,0 / 22,10368,2014-12-14 14:52:47:436
-1.7835,-9.2142,-2.4538,-1.808,-9.3184,-2.4634,0.0038,-0.0177,-0.0061,2.43,34.34,9.89,292.71,71.86,143.72,0.0,56.142,35.178223,126.908745,,155.843274515097,,143.26451,,0 / 22,10417,2014-12-14 14:52:47:485
-1.7835,-9.2525,-2.4346,-1.8085,-9.3185,-2.4629,-0.009,-0.0108,0.0047,1.3,34.34,10.76,285.72,71.84,143.72,0.0,64.1,35.178223,126.908745,,155.843274515097,,143.26451,,0 / 22,10468,2014-12-14 14:52:47:536
-1.7643,-9.2142,-2.4538,-1.8047,-9.3192,-2.4631,0.0321,0.0025,-0.0192,2.05,35.46,9.45,285.72,71.84,143.72,0.0,64.1,35.178223,126.908745,,155.843274515097,,143.26451,,0 / 22,10518,2014-12-14 14:52:47:586
-1.7643,-9.1951,-2.4921,-1.8008,-9.3182,-2.4695,0.0184,0.0184,-0.0358,0.55,35.09,10.7,276.0,71.86,143.77,0.0,64.1,35.178223,126.908745,,155.843274515097,,143.26451,,0 / 22,10568,2014-12-14 14:52:47:636
-1.8027,-9.2142,-2.4538,-1.7998,-9.3179,-2.4713,0.0172,0.0236,-0.0206,1.3,35.46,10.76,288.56,71.84,143.94,0.0,64.1,35.178223,126.908745,,155.843274515097,,143.26451,,1 / 22,10617,2014-12-14 14:52:47:685
-1.8027,-9.2142,-2.4921,-1.7996,-9.3158,-2.4793,0.0038,0.0072,-0.0324,2.43,35.84,9.83,288.56,71.84,143.94,0.0,64.1,35.178223,126.908745,,155.843274515097,,143.26451,,1 / 22,10667,2014-12-14 14:52:47:735
-1.7643,-9.2142,-2.4155,-1.8033,-9.3144,-2.482,-0.0132,0.0057,0.0294,2.05,35.09,11.14,296.59,71.8,144.03,0.0,64.1,35.178223,126.908745,,155.843274515097,,143.26451,,1 / 22,10718,2014-12-14 14:52:47:786
-1.7643,-9.2142,-2.4346,-1.8004,-9.3158,-2.4787,0.0291,0.006,-0.0096,1.68,35.09,9.83,296.6,71.79,143.97,0.0,60.058,35.178223,126.908745,,155.843274515097,,143.26451,,1 / 22,10768,2014-12-14 14:52:47:836
-1.7835,-9.2334,-2.4346,-1.8002,-9.3146,-2.4837,-0.0265,-0.0019,-0.0585,1.68,34.71,10.14,296.6,71.79,143.97,0.0,60.058,35.178223,126.908745,,155.843274515097,,143.26451,,1 / 22,10818,2014-12-14 14:52:47:886
-1.841,-9.2142,-2.4921,-1.8056,-9.313,-2.4857,-0.061,-0.0048,-0.0043,1.68,35.84,10.14,311.36,71.77,144.07,0.0,60.058,35.178223,126.908745,,155.843274515097,,143.26451,,1 / 22,10869,2014-12-14 14:52:47:937
-1.7835,-9.1759,-2.5687,-1.8103,-9.3103,-2.4924,-0.0273,0.0207,-0.0743,2.05,35.84,9.39,311.49,71.74,144.01,0.0,60.058,35.178223,126.908745,,155.843274515097,,143.26451,,1 / 22,10918,2014-12-14 14:52:47:986
-1.7835,-9.2142,-2.4729,-1.81,-9.31,-2.4935,-0.0287,-0.0048,-0.0154,3.55,34.71,11.14,275.44,71.7,144.04,0.0,60.058,35.178223,126.908745,,155.843274515097,,143.26451,,1 / 22,10968,2014-12-14 14:52:48:036
-1.8027,-9.2334,-2.4538,-1.8094,-9.3088,-2.4985,0.0071,0.0108,-0.051,1.3,35.09,10.7,275.44,71.7,144.04,0.0,60.058,35.178223,126.908745,,155.843274515097,,143.26451,,1 / 22,11018,2014-12-14 14:52:48:086
-1.8027,-9.1951,-2.5496,-1.8117,-9.3072,-2.503,-0.016,-0.0019,-0.03,1.68,34.71,10.26,286.59,71.67,144.09,0.0,60.058,35.178223,126.908745,,155.843274515097,,143.26451,,1 / 22,11068,2014-12-14 14:52:48:136
-1.8027,-9.2142,-2.5112,-1.8119,-9.3058,-2.5079,-0.0075,0.0112,-0.0345,1.68,35.46,10.95,286.8,71.63,144.1,0.0,55.357,35.178223,126.908745,,155.843274515097,,143.26451,,1 / 22,11117,2014-12-14 14:52:48:185
-1.8218,-9.1951,-2.5496,-1.8164,-9.3033,-2.5138,-0.0468,0.0104,-0.0276,1.68,35.09,9.33,309.66,71.58,144.18,0.0,55.357,35.178223,126.908745,,155.843274515097,,143.26451,,1 / 22,11168,2014-12-14 14:52:48:236
-1.8027,-9.2142,-2.4921,-1.8158,-9.3018,-2.52,0.0142,-8.0E-4,-0.0586,2.8,35.84,8.95,309.66,71.58,144.18,0.0,55.357,35.178223,126.908745,,155.843274515097,,143.26451,,1 / 22,11218,2014-12-14 14:52:48:286
-1.7835,-9.2334,-2.5304,-1.8171,-9.3002,-2.525,-0.0112,0.006,-0.0278,2.43,34.71,10.26,272.34,71.53,144.22,0.0,55.357,35.178223,126.908745,,155.843274515097,,143.26451,,1 / 22,11267,2014-12-14 14:52:48:335
-1.8027,-9.1951,-2.5496,-1.8159,-9.2996,-2.528,0.0057,0.024,-0.0189,1.68,35.46,9.39,310.17,71.51,144.26,0.0,55.357,35.178223,126.908745,,155.843274515097,,143.26451,,1 / 22,11318,2014-12-14 14:52:48:386
-1.8218,-9.2142,-2.5496,-1.8138,-9.301,-2.5242,-0.0271,-0.0345,0.0073,1.68,36.53,11.26,294.14,71.52,144.34,0.0,55.357,35.178223,126.908745,,155.843274515097,,143.26451,,1 / 22,11368,2014-12-14 14:52:48:436
-1.8601,-9.1951,-2.5496,-1.8179,-9.2982,-2.5317,-0.0382,0.026,-0.0693,2.8,35.84,10.26,294.14,71.52,144.34,0.0,45.034,35.178223,126.908745,,155.843274515097,,143.26451,,1 / 22,11418,2014-12-14 14:52:48:486
-1.8027,-9.2334,-2.5112,-1.8264,-9.2958,-2.5344,-0.0179,-3.0E-4,0.0223,1.68,35.46,10.83,295.4,71.47,144.32,0.0,45.034,35.178223,126.908745,,155.843274515097,,143.26451,,1 / 22,11468,2014-12-14 14:52:48:536
-1.7452,-9.2334,-2.5112,-1.8213,-9.2975,-2.5317,0.0401,-0.0206,-0.0025,1.3,35.46,10.45,299.98,71.42,144.22,0.0,45.034,35.178223,126.908745,,155.843274515097,,143.26451,,1 / 22,11517,2014-12-14 14:52:48:585
-1.8027,-9.1951,-2.5496,-1.8171,-9.2983,-2.5319,0.0133,0.0075,-0.0263,2.05,34.71,9.64,298.77,71.48,144.3,0.0,45.034,35.178223,126.908745,,155.843274515097,,143.26451,,1 / 22,11568,2014-12-14 14:52:48:636
-1.726,-9.2525,-2.4346,-1.8188,-9.2981,-2.5312,0.0079,0.0033,0.0243,2.43,35.46,10.95,298.77,71.48,144.3,0.0,45.034,35.178223,126.908745,,155.843274515097,,143.26451,,1 / 22,11618,2014-12-14 14:52:48:686
-1.7835,-9.2142,-2.4538,-1.8089,-9.303,-2.5202,0.0248,-0.0043,0.0306,2.05,34.34,10.14,309.36,71.47,144.3,0.0,45.034,35.178223,126.908745,,155.843274515097,,143.26451,,1 / 22,11668,2014-12-14 14:52:48:736
-1.7643,-9.2334,-2.4729,-1.8077,-9.3039,-2.5179,0.0064,0.0084,0.0087,2.05,35.09,9.76,298.24,71.56,144.33,0.0,38.804,35.178223,126.908745,,155.843274515097,,143.26451,,1 / 22,11718,2014-12-14 14:52:48:786
-1.8027,-9.2334,-2.4346,-1.8071,-9.3055,-2.5125,-0.0058,-0.012,0.0216,2.05,33.59,10.45,294.52,71.6,144.3,0.0,38.804,35.178223,126.908745,,155.843274515097,,143.26451,,1 / 22,11767,2014-12-14 14:52:48:835
-1.8218,-9.2142,-2.4729,-1.8069,-9.306,-2.5106,0.0143,-3.0E-4,-0.0033,2.05,35.46,10.26,294.52,71.6,144.3,0.0,38.804,35.178223,126.908745,,155.843274515097,,143.26451,,1 / 22,11818,2014-12-14 14:52:48:886
-1.8218,-9.2525,-2.4921,-1.8079,-9.3075,-2.5043,-0.0156,-0.0206,0.0267,1.3,34.34,9.2,282.77,71.61,144.26,0.0,38.804,35.178223,126.908745,,155.843274515097,,143.26451,,1 / 22,11868,2014-12-14 14:52:48:936
-1.8218,-9.1951,-2.5112,-1.81,-9.3068,-2.5054,-0.0178,-0.0072,-0.0122,1.68,35.46,10.26,297.65,71.64,144.17,0.0,38.804,35.178223,126.908745,,155.843274515097,,143.26451,,1 / 22,11918,2014-12-14 14:52:48:986
-1.7835,-9.2142,-2.4538,-1.8117,-9.3061,-2.5068,0.0053,0.002,-0.011,2.05,33.59,10.08,294.37,71.62,144.13,0.0,38.804,35.178223,126.908745,,155.843274515097,,143.26451,,1 / 22,11967,2014-12-14 14:52:49:035
-1.7835,-9.1759,-2.5112,-1.8097,-9.3067,-2.5062,0.0184,-0.0059,-0.0072,2.8,35.09,9.83,294.37,71.62,144.13,0.0,38.804,35.178223,126.908745,,155.843274515097,,143.26451,,1 / 22,12018,2014-12-14 14:52:49:086
-1.7835,-9.2334,-2.5304,-1.8043,-9.3076,-2.5066,0.0143,-0.0223,-0.0247,2.43,34.71,10.08,314.85,71.63,144.17,0.0,51.575,35.178223,126.908745,,155.843274515097,,143.26451,,1 / 22,12068,2014-12-14 14:52:49:136
-1.7835,-9.1759,-2.4538,-1.8021,-9.3079,-2.507,0.0112,0.0063,-0.0067,0.93,35.46,10.95,289.56,71.64,144.25,0.0,51.575,35.178223,126.908745,,155.843274515097,,143.26451,,1 / 22,12118,2014-12-14 14:52:49:186
-1.726,-9.2334,-2.4921,-1.7979,-9.3093,-2.5048,0.0516,-0.0072,0.0263,2.05,35.09,9.83,289.56,71.64,144.25,0.0,51.575,35.178223,126.908745,,155.843274515097,,143.26451,,1 / 22,12168,2014-12-14 14:52:49:236
-1.7452,-9.2717,-2.4538,-1.7868,-9.3135,-2.4973,0.0507,-0.0211,0.0263,3.18,34.71,10.14,295.68,71.68,144.33,0.0,51.575,35.178223,126.908745,,155.843274515097,,143.26451,,1 / 22,12218,2014-12-14 14:52:49:286
-1.7835,-9.2525,-2.4155,-1.7881,-9.3143,-2.4934,-0.0064,-0.014,0.0163,2.05,35.84,11.14,289.23,71.76,144.37,0.0,51.575,35.178223,126.908745,,155.843274515097,,143.26451,,1 / 22,12267,2014-12-14 14:52:49:335
-1.726,-9.2525,-2.4538,-1.7856,-9.3153,-2.4914,0.015,-0.0062,0.0247,1.68,35.46,10.51,289.23,71.76,144.37,0.0,51.575,35.178223,126.908745,,155.843274515097,,143.26451,,1 / 22,12321,2014-12-14 14:52:49:389
-1.7835,-9.2334,-2.4538,-1.7814,-9.3179,-2.4848,0.0217,-0.0082,0.0576,2.8,35.09,9.14,309.73,71.79,144.37,0.0,12.992,35.178223,126.908745,,155.843274515097,,143.26451,,1 / 22,12368,2014-12-14 14:52:49:436
-1.7643,-9.2142,-2.4729,-1.784,-9.3175,-2.4843,-0.038,-0.0023,0.005,1.3,35.84,10.58,309.73,71.79,144.37,0.0,12.992,35.178223,126.908745,,155.843274515097,,143.26451,,1 / 22,12418,2014-12-14 14:52:49:486
-1.7643,-9.2142,-2.4155,-1.7807,-9.3175,-2.4867,-0.0086,-0.0118,0.0464,1.68,35.46,6.95,296.41,71.83,144.32,0.0,12.992,35.178223,126.908745,,155.843274515097,,143.26451,,1 / 22,12467,2014-12-14 14:52:49:535
-1.7835,-9.2142,-2.4538,-1.7818,-9.3184,-2.4826,-0.0098,0.0047,0.0236,1.68,36.15,9.83,299.73,71.83,144.39,0.0,12.992,35.178223,126.908745,,155.843274515097,,143.26451,,1 / 22,12518,2014-12-14 14:52:49:586
-1.7069,-9.2142,-2.4346,-1.7797,-9.3187,-2.4828,0.0403,0.0174,0.0023,1.3,35.84,10.95,299.73,71.83,144.39,0.0,12.992,35.178223,126.908745,,155.843274515097,,143.26451,,1 / 22,12567,2014-12-14 14:52:49:635
-1.7643,-9.2525,-2.358,-1.785,-9.3193,-2.4767,-0.0253,-0.0097,0.0469,3.18,36.53,9.57,317.28,71.85,144.35,0.0,12.992,35.178223,126.908745,,155.843274515097,,143.26451,,1 / 22,12618,2014-12-14 14:52:49:686
-1.7452,-9.2525,-2.4155,-1.7832,-9.3235,-2.4621,0.0124,-0.023,0.051,2.05,35.09,10.51,285.17,71.86,144.22,0.0,12.992,35.178223,126.908745,,155.843274515097,,143.26451,,1 / 22,12672,2014-12-14 14:52:49:740
-1.8218,-9.2142,-2.3963,-1.7877,-9.3239,-2.4577,-0.0519,0.0152,0.0261,1.68,36.15,9.57,285.17,71.86,144.22,0.0,26.774,35.178223,126.908745,,155.843274515097,,143.26451,,1 / 22,12717,2014-12-14 14:52:49:785
-1.8218,-9.2525,-2.358,-1.7925,-9.3229,-2.4579,-0.062,0.0317,0.0022,2.05,35.78,8.7,310.3,71.95,143.97,0.0,26.774,35.178223,126.908745,,155.843274515097,,143.26451,,1 / 22,12769,2014-12-14 14:52:49:837
-1.8218,-9.2525,-2.3771,-1.7956,-9.3241,-2.4511,-0.0287,-0.0173,0.0578,2.8,37.65,7.83,329.98,71.93,143.9,0.0,26.774,35.178223,126.908745,,155.843274515097,,143.26451,,1 / 22,12818,2014-12-14 14:52:49:886
-1.8601,-9.1951,-2.4155,-1.8152,-9.3204,-2.4505,-0.0548,0.0255,-0.0178,2.05,36.15,10.01,298.81,71.94,143.58,0.0,26.774,35.178223,126.908745,,155.843274515097,,143.26451,,1 / 22,12868,2014-12-14 14:52:49:936
-1.841,-9.2334,-2.4538,-1.821,-9.3207,-2.4451,-0.0287,0.0179,0.0429,3.18,35.09,9.57,298.81,71.94,143.58,0.0,26.774,35.178223,126.908745,,155.843274515097,,143.26451,,1 / 22,12918,2014-12-14 14:52:49:986
-1.9368,-9.1759,-2.5112,-1.8254,-9.3198,-2.4454,-0.0402,9.0E-4,-0.0125,3.55,38.03,8.26,335.49,71.89,143.32,0.0,26.774,35.178223,126.908745,,155.843274515097,,143.26451,,1 / 22,12968,2014-12-14 14:52:50:036
-1.8985,-9.1951,-2.4346,-1.8439,-9.3147,-2.4508,-0.0731,0.0325,-0.0178,2.8,37.28,9.14,314.95,71.83,143.18,0.0,26.774,35.178223,126.908745,,155.843274515097,,143.26451,,1 / 22,13017,2014-12-14 14:52:50:085
-1.841,-9.2142,-2.4346,-1.851,-9.3126,-2.4537,-0.0246,-0.0042,-0.0289,3.18,38.03,6.95,314.95,71.83,143.18,0.0,15.625,35.178223,126.908745,,155.843274515097,,143.26451,,1 / 22,13068,2014-12-14 14:52:50:136
-1.8218,-9.2334,-2.4155,-1.8516,-9.3115,-2.4573,-0.0121,-0.0082,-0.0126,3.18,37.28,6.14,347.15,71.73,142.98,0.0,15.625,35.178223,126.908745,,155.843274515097,,143.26451,,1 / 22,13118,2014-12-14 14:52:50:186
-1.8601,-9.1759,-2.4729,-1.856,-9.3098,-2.4602,-0.0281,0.0378,-0.0398,4.24,39.53,5.51,355.83,71.71,143.0,0.0,15.625,35.178223,126.908745,,155.843274515097,,143.26451,,1 / 22,13167,2014-12-14 14:52:50:235
-1.841,-9.2334,-2.3771,-1.8523,-9.3109,-2.4589,0.0289,-0.0353,0.0028,3.18,39.09,7.39,355.83,71.71,143.0,0.0,15.625,35.178223,126.908745,,155.843274515097,,143.26451,,1 / 22,13218,2014-12-14 14:52:50:286
-1.8985,-9.1951,-2.5112,-1.8607,-9.3093,-2.4587,-0.0941,0.0223,-0.019,4.62,38.78,4.82,346.8,71.7,143.01,0.0,15.625,35.178223,126.908745,,155.843274515097,,143.26451,,1 / 22,13268,2014-12-14 14:52:50:336
-1.9368,-9.1759,-2.4346,-1.8802,-9.3023,-2.4701,-0.0653,0.0169,-0.016,3.18,38.78,5.7,348.47,71.6,142.83,0.0,15.625,35.178223,126.908745,,155.843274515097,,143.26451,,1 / 22,13318,2014-12-14 14:52:50:386
-1.9368,-9.1759,-2.5112,-1.8911,-9.2997,-2.4717,-0.092,0.0208,-0.0156,3.87,39.46,6.95,347.36,71.5,142.58,0.0,37.627,35.178223,126.908745,,155.843274515097,,143.26451,,1 / 22,13368,2014-12-14 14:52:50:436
-1.9368,-9.1951,-2.4155,-1.9039,-9.296,-2.4757,-0.0413,7.0E-4,0.0177,4.62,38.03,6.58,347.36,71.5,142.58,0.0,37.627,35.178223,126.908745,,155.843274515097,,143.26451,,1 / 22,13418,2014-12-14 14:52:50:486
-1.8793,-9.2142,-2.4155,-1.9042,-9.2975,-2.4701,0.004,-0.0169,0.0349,3.87,38.78,6.14,353.92,71.43,142.44,0.0,37.627,35.178223,126.908745,,155.843274515097,,143.26451,,1 / 22,13468,2014-12-14 14:52:50:536
-1.8601,-9.1951,-2.4729,-1.9051,-9.2981,-2.467,-0.0116,0.0028,0.0202,2.8,38.03,7.26,339.53,71.46,142.35,0.0,37.627,35.178223,126.908745,,155.843274515097,,143.26451,,1 / 22,13517,2014-12-14 14:52:50:585
-1.8601,-9.2142,-2.3771,-1.906,-9.3,-2.4593,0.0064,-0.012,0.0468,3.55,36.9,7.58,333.04,71.5,142.22,0.0,37.627,35.178223,126.908745,,155.843274515097,,143.26451,,1 / 22,13568,2014-12-14 14:52:50:636
-1.9176,-9.1759,-2.5112,-1.9028,-9.3028,-2.451,-0.0028,-0.0191,-0.0044,2.8,35.46,7.39,333.04,71.5,142.22,0.0,37.627,35.178223,126.908745,,155.843274515097,,143.26451,,1 / 17,13620,2014-12-14 14:52:50:688
-1.9942,-9.1376,-2.5112,-1.911,-9.2989,-2.4594,-0.0862,0.0489,-0.0671,2.8,38.78,6.95,346.53,71.55,142.18,0.0,32.564,35.178223,126.908745,,155.843274515097,,143.26451,,1 / 17,13667,2014-12-14 14:52:50:735
-1.9176,-9.2334,-2.3771,-1.9268,-9.2932,-2.4688,-0.0196,-0.0115,-0.0056,2.8,38.78,6.14,347.98,71.42,142.11,0.0,32.564,35.178223,126.908745,,155.843274515097,,143.26451,,1 / 17,13717,2014-12-14 14:52:50:785
-1.8793,-9.2525,-2.3963,-1.9237,-9.2963,-2.4593,0.041,-0.0449,0.0652,3.18,39.15,5.7,347.83,71.43,141.97,0.0,32.564,35.178223,126.908745,,155.843274515097,,143.26451,,1 / 17,13768,2014-12-14 14:52:50:836
-1.9368,-9.2142,-2.3771,-1.9222,-9.2981,-2.4536,-0.0091,-0.0024,0.0385,3.18,38.4,5.76,347.83,71.43,141.97,0.0,32.564,35.178192,126.90874,,155.843274515097,,151.96774,,1 / 17,13817,2014-12-14 14:52:50:885
-1.8601,-9.1951,-2.358,-1.9246,-9.2984,-2.4508,0.0222,0.0134,0.0212,3.18,39.09,8.7,320.9,71.47,141.92,0.0,32.564,35.178192,126.90874,,155.843274515097,,151.96774,,1 / 17,13868,2014-12-14 14:52:50:936
-1.8985,-9.2334,-2.358,-1.9187,-9.3026,-2.4393,0.012,-0.0144,0.0492,1.68,37.28,9.89,304.07,71.5,141.86,0.0,32.564,35.178192,126.90874,,155.843274515097,,151.96774,,1 / 17,13918,2014-12-14 14:52:50:986
-1.8985,-9.2142,-2.4538,-1.9167,-9.3037,-2.4366,0.0077,0.0019,0.0195,2.43,38.4,9.01,304.07,71.5,141.86,0.0,28.601,35.178192,126.90874,,155.843274515097,,151.96774,,1 / 17,13968,2014-12-14 14:52:51:036
-1.8218,-9.2142,-2.4346,-1.9124,-9.3041,-2.4387,0.0418,-0.0132,0.0293,3.55,39.09,5.14,303.05,71.56,141.84,0.0,28.601,35.178192,126.90874,,155.843274515097,,151.96774,,1 / 17,14017,2014-12-14 14:52:51:085
-1.8027,-9.2142,-2.3388,-1.9035,-9.3073,-2.4334,0.0707,-0.0037,0.049,3.87,38.03,4.82,0.6,71.58,141.9,0.0,28.601,35.178192,126.90874,,155.843274515097,,151.96774,,1 / 17,14068,2014-12-14 14:52:51:136
-1.8027,-9.2334,-2.358,-1.8975,-9.3093,-2.4303,0.0835,-0.0243,0.0447,2.8,37.65,5.33,0.6,71.58,141.9,0.0,28.601,35.178192,126.90874,,155.843274515097,,151.96774,,1 / 17,14118,2014-12-14 14:52:51:186
-1.8218,-9.2334,-2.3963,-1.8872,-9.3134,-2.4227,0.0189,-0.0221,0.0433,4.24,38.4,6.01,353.7,71.67,142.02,0.0,28.601,35.178192,126.90874,,155.843274515097,,151.96774,,1 / 17,14168,2014-12-14 14:52:51:236
-1.841,-9.2334,-2.3197,-1.8784,-9.3169,-2.416,-0.0079,-0.0124,0.0175,3.87,38.03,5.33,0.87,71.79,142.13,0.0,28.601,35.178192,126.90874,,155.843274515097,,151.96774,,1 / 17,14218,2014-12-14 14:52:51:286
-1.8027,-9.2525,-2.3005,-1.8733,-9.3202,-2.4074,0.0514,-0.0306,0.0669,3.55,38.03,4.64,0.86,71.88,142.11,0.0,28.601,35.178192,126.90874,,155.843274515097,,151.96774,,1 / 17,14268,2014-12-14 14:52:51:336
-1.8218,-9.2142,-2.4538,-1.8636,-9.3221,-2.4073,0.0334,0.0119,-0.051,3.55,37.65,5.58,0.86,71.88,142.11,0.0,1.134,35.178192,126.90874,,155.843274515097,,151.96774,,1 / 17,14318,2014-12-14 14:52:51:386
-1.841,-9.2334,-2.4346,-1.8624,-9.3203,-2.4153,0.0019,0.0096,-0.0207,3.87,36.53,7.08,354.05,71.91,142.25,0.0,1.134,35.178192,126.90874,,155.843274515097,,151.96774,,1 / 17,14367,2014-12-14 14:52:51:435
-1.8027,-9.2334,-2.3197,-1.8601,-9.3223,-2.4093,0.0201,-0.0068,0.0446,2.8,37.65,4.64,353.87,71.89,142.37,0.0,1.134,35.178192,126.90874,,155.843274515097,,151.96774,,1 / 17,14417,2014-12-14 14:52:51:485
-1.8601,-9.2525,-2.3963,-1.8609,-9.3234,-2.4046,-0.0299,-0.0139,0.0323,3.18,38.4,5.14,353.75,71.94,142.26,0.0,1.134,35.178192,126.90874,,155.843274515097,,151.96774,,1 / 17,14468,2014-12-14 14:52:51:536
-1.8601,-9.2142,-2.3963,-1.8669,-9.3218,-2.4061,-0.0326,0.0173,-0.0123,3.18,38.78,6.01,353.75,71.94,142.26,0.0,1.134,35.178192,126.90874,,155.843274515097,,151.96774,,1 / 17,14517,2014-12-14 14:52:51:585
-1.8793,-9.1951,-2.3005,-1.8685,-9.3224,-2.4024,0.0204,-0.0119,0.0296,3.87,39.46,5.14,0.9,71.91,142.19,0.0,1.134,35.178192,126.90874,,155.843274515097,,151.96774,,1 / 17,14568,2014-12-14 14:52:51:636
-1.841,-9.2142,-2.3771,-1.8654,-9.3233,-2.4013,-0.0058,0.0044,-0.0135,3.87,38.78,4.33,5.95,71.94,142.15,0.0,1.113,35.178192,126.90874,,155.843274515097,,151.96774,,1 / 17,14618,2014-12-14 14:52:51:686
-1.8793,-9.2142,-2.4155,-1.8706,-9.3199,-2.4104,-0.052,0.0097,-0.0527,4.24,38.4,5.58,5.95,71.94,142.15,0.0,1.113,35.178192,126.90874,,155.843274515097,,151.96774,,1 / 17,14667,2014-12-14 14:52:51:735
-1.8793,-9.2525,-2.3388,-1.8777,-9.3197,-2.4059,-0.011,-0.0263,0.0507,3.18,38.4,5.7,0.85,71.87,142.19,0.0,1.113,35.178192,126.90874,,155.843274515097,,151.96774,,1 / 17,14718,2014-12-14 14:52:51:786
-1.8601,-9.2334,-2.358,-1.8782,-9.3198,-2.4052,-7.0E-4,7.0E-4,-0.001,3.18,38.4,6.14,346.62,71.87,142.03,0.0,1.113,35.178192,126.90874,,155.843274515097,,151.96774,,1 / 17,14768,2014-12-14 14:52:51:836
-1.841,-9.2334,-2.3388,-1.8776,-9.32,-2.4048,0.0167,0.0017,0.0189,2.43,38.03,5.95,341.05,71.86,142.01,0.0,1.113,35.178192,126.90874,,155.843274515097,,151.96774,,1 / 17,14818,2014-12-14 14:52:51:886
-1.8601,-9.2334,-2.358,-1.8755,-9.32,-2.4062,0.0308,9.0E-4,0.0,3.18,39.53,4.64,341.05,71.86,142.01,0.0,1.113,35.178192,126.90874,,155.843274515097,,151.96774,,1 / 17,14867,2014-12-14 14:52:51:935
-1.8027,-9.2525,-2.358,-1.865,-9.3236,-2.4006,0.0537,-0.0213,0.0187,4.24,39.46,5.51,353.89,71.87,142.07,0.0,1.113,35.178192,126.90874,,155.843274515097,,151.96774,,1 / 17,14918,2014-12-14 14:52:51:986
-1.8027,-9.2525,-2.3388,-1.8582,-9.3258,-2.3973,0.0368,0.0044,0.0201,3.18,39.46,5.26,353.95,71.94,142.16,0.0,1.342,35.178192,126.90874,,155.843274515097,,151.96774,,1 / 17,14967,2014-12-14 14:52:52:035
-1.7835,-9.2334,-2.3197,-1.8482,-9.3284,-2.395,0.0557,-0.0039,0.045,2.8,38.4,6.45,346.68,71.99,142.27,0.0,1.342,35.178192,126.90874,,155.843274515097,,151.96774,,1 / 17,15018,2014-12-14 14:52:52:086
-1.7835,-9.2525,-2.4155,-1.8414,-9.331,-2.3899,0.0337,-0.0267,0.0161,3.55,39.15,5.83,346.68,71.99,142.27,0.0,1.342,35.178192,126.90874,,155.843274515097,,151.96774,,1 / 17,15068,2014-12-14 14:52:52:136
-1.726,-9.2334,-2.3388,-1.8398,-9.3312,-2.3906,0.0217,-6.0E-4,-0.01,2.05,39.84,6.14,342.58,72.08,142.39,0.0,1.342,35.178192,126.90874,,155.843274515097,,151.96774,,1 / 17,15118,2014-12-14 14:52:52:186
-1.726,-9.2334,-2.3388,-1.8398,-9.3312,-2.3906,0.0217,-6.0E-4,-0.01,2.05,39.84,6.14,342.58,72.08,142.39,0.0,1.342,35.178192,126.90874,,155.843274515097,,151.96774,,1 / 17,15167,2014-12-14 14:52:52:235
-1.726,-9.2334,-2.3388,-1.8398,-9.3312,-2.3906,0.0217,-6.0E-4,-0.01,2.05,39.84,6.14,342.58,72.08,142.39,0.0,1.342,35.178192,126.90874,,155.843274515097,,151.96774,,1 / 17,15218,2014-12-14 14:52:52:286
-1.8027,-9.2525,-2.2813,-1.8285,-9.3342,-2.3872,0.0927,-0.0176,0.009,2.43,40.21,8.26,354.23,72.08,142.42,0.0,1.342,35.178192,126.90874,,155.843274515097,,151.96774,,1 / 17,15268,2014-12-14 14:52:52:336
-1.7835,-9.2525,-2.3197,-1.8275,-9.3354,-2.3836,0.0235,-0.0236,0.0257,2.05,39.84,8.89,317.83,72.17,142.52,0.0,1.344,35.178192,126.90874,,155.843274515097,,151.96774,,1 / 17,15318,2014-12-14 14:52:52:386
-1.7835,-9.2525,-2.358,-1.8203,-9.3369,-2.3833,1.0E-4,0.0106,-0.0074,3.87,40.21,7.76,317.83,72.17,142.52,0.0,1.344,35.178192,126.90874,,155.843274515097,,151.96774,,1 / 17,15367,2014-12-14 14:52:52:435
-1.8218,-9.2717,-2.3197,-1.8214,-9.3361,-2.3855,-0.015,0.0123,-0.031,3.55,38.78,7.83,334.79,72.19,142.63,0.0,1.344,35.178192,126.90874,,155.843274515097,,151.96774,,1 / 17,15418,2014-12-14 14:52:52:486
-1.841,-9.2525,-2.3771,-1.8286,-9.3352,-2.3834,-0.0168,-0.0295,0.0253,2.43,37.65,9.14,334.79,72.19,142.63,0.0,1.344,35.178192,126.90874,,155.843274515097,,151.96774,,1 / 17,15468,2014-12-14 14:52:52:536
-1.8985,-9.1951,-2.3963,-1.8328,-9.3344,-2.3835,-0.0598,0.0038,-0.0034,2.8,38.4,7.83,327.18,72.16,142.5,0.0,1.344,35.178192,126.90874,,155.843274515097,,151.96774,,1 / 17,15519,2014-12-14 14:52:52:587
-1.8218,-9.2334,-2.3771,-1.8437,-9.3312,-2.3876,0.0107,-0.0039,0.0139,3.18,38.03,9.14,327.18,72.16,142.5,0.0,1.344,35.178192,126.90874,,155.843274515097,,151.96774,,1 / 17,15568,2014-12-14 14:52:52:636
-1.8601,-9.2717,-2.3197,-1.8435,-9.3312,-2.3877,0.0028,-9.0E-4,-0.0016,3.18,37.28,6.58,337.83,72.08,142.32,0.0,1.344,35.178192,126.90874,,155.843274515097,,151.96774,,1 / 17,15618,2014-12-14 14:52:52:686
-1.8601,-9.2334,-2.3771,-1.8467,-9.3305,-2.3877,-0.0116,0.0094,-0.0265,2.8,37.28,5.7,345.78,72.08,142.28,0.0,1.185,35.178192,126.90874,,155.843274515097,,151.96774,,1 / 17,15668,2014-12-14 14:52:52:736
-1.8985,-9.2142,-2.358,-1.8495,-9.3296,-2.3892,-0.0401,0.0024,-0.0231,2.8,37.65,6.83,337.83,72.06,142.26,0.0,1.185,35.178192,126.90874,,155.843274515097,,151.96774,,1 / 17,15717,2014-12-14 14:52:52:785
-1.8218,-9.2334,-2.3963,-1.8546,-9.3275,-2.3933,0.0118,-0.0085,-0.0136,2.8,38.03,5.26,337.83,72.06,142.26,0.0,1.185,35.178192,126.90874,,155.843274515097,,151.96774,,1 / 17,15768,2014-12-14 14:52:52:836
-1.9176,-9.2142,-2.358,-1.858,-9.3263,-2.3954,-0.048,0.0117,-0.0292,3.18,38.4,5.7,331.55,72.02,142.23,0.0,1.185,35.178192,126.90874,,155.843274515097,,151.96774,,1 / 17,15818,2014-12-14 14:52:52:886
-1.7835,-9.2525,-2.3963,-1.8626,-9.3238,-2.4018,0.0581,-0.0074,-0.0077,2.43,39.84,7.83,327.51,71.93,142.11,0.0,1.185,35.178192,126.90874,,155.843274515097,,151.96774,,1 / 17,15867,2014-12-14 14:52:52:935
-1.7835,-9.2334,-2.3771,-1.8597,-9.3246,-2.4009,0.0417,-0.0012,0.0153,2.8,37.28,6.14,327.51,71.93,142.11,0.0,1.185,35.178192,126.90874,,155.843274515097,,151.96774,,1 / 17,15918,2014-12-14 14:52:52:986
-1.726,-9.2334,-2.3197,-1.8434,-9.3295,-2.3941,0.084,-0.036,0.0459,2.43,37.65,7.39,347.39,71.96,142.24,0.0,1.154,35.178192,126.90874,,155.843274515097,,151.96774,,1 / 17,15968,2014-12-14 14:52:53:036
-1.7643,-9.2142,-2.3388,-1.8332,-9.3332,-2.3878,0.0587,-0.0107,0.0418,3.18,37.28,6.7,336.63,72.05,142.4,0.0,1.154,35.178192,126.90874,,155.843274515097,,151.96774,,1 / 17,16018,2014-12-14 14:52:53:086
-1.841,-9.2334,-2.3771,-1.8333,-9.3321,-2.3919,0.0169,0.0115,-0.0109,2.43,36.53,6.83,336.63,72.05,142.4,0.0,1.154,35.178192,126.90874,,155.843274515097,,151.96774,,1 / 17,16068,2014-12-14 14:52:53:136
-1.841,-9.2334,-2.3005,-1.8342,-9.3315,-2.3935,-0.007,0.038,-0.0157,2.05,34.71,6.2,354.0,72.1,142.53,0.0,1.154,35.178192,126.90874,,155.843274515097,,151.96774,,1 / 17,16117,2014-12-14 14:52:53:185
-1.7643,-9.2525,-2.3197,-1.8331,-9.332,-2.3924,0.0485,-0.0342,-0.0081,3.18,36.53,5.7,345.98,72.08,142.45,0.0,1.154,35.178192,126.90874,,155.843274515097,,151.96774,,1 / 17,16168,2014-12-14 14:52:53:236
-1.7835,-9.2525,-2.3771,-1.8304,-9.3331,-2.3902,0.0364,-0.0236,0.029,2.05,37.28,10.45,300.49,72.12,142.56,0.0,1.154,35.178192,126.90874,,155.843274515097,,151.96774,,1 / 17,16218,2014-12-14 14:52:53:286
-1.8793,-9.1951,-2.3771,-1.8322,-9.3317,-2.3942,-0.023,0.0191,-0.0073,2.05,36.15,9.57,300.49,72.12,142.56,0.0,1.154,35.178192,126.90874,,155.843274515097,,151.96774,,1 / 17,16268,2014-12-14 14:52:53:336
-1.841,-9.2717,-2.3388,-1.8323,-9.3325,-2.391,-0.0031,-0.019,0.0419,2.43,36.53,8.33,311.36,72.1,142.57,0.0,1.57,35.178192,126.90874,,155.843274515097,,151.96774,,1 / 17,16318,2014-12-14 14:52:53:386
-1.8218,-9.2142,-2.4155,-1.8362,-9.3307,-2.3951,-0.0045,0.0091,-0.01,2.43,36.53,8.7,311.35,72.09,142.5,0.0,1.57,35.178192,126.90874,,155.843274515097,,151.96774,,1 / 17,16367,2014-12-14 14:52:53:435
-1.7835,-9.2525,-2.3197,-1.8354,-9.331,-2.3948,0.0095,-0.0087,0.0032,2.05,36.9,10.01,300.75,72.08,142.53,0.0,1.57,35.178192,126.90874,,155.843274515097,,151.96774,,1 / 17,16418,2014-12-14 14:52:53:486
-1.7643,-9.2334,-2.4155,-1.8271,-9.3322,-2.3964,0.0417,0.0055,-0.0463,2.05,36.9,6.64,300.75,72.08,142.53,0.0,1.57,35.178192,126.90874,,155.843274515097,,151.96774,,1 / 17,16468,2014-12-14 14:52:53:536
-1.8218,-9.2142,-2.4155,-1.8285,-9.3315,-2.398,-0.0179,0.0201,-0.0186,2.8,36.53,6.26,346.2,72.1,142.68,0.0,1.57,35.178192,126.90874,,155.843274515097,,151.96774,,1 / 17,16517,2014-12-14 14:52:53:585
-1.8027,-9.2334,-2.3963,-1.8253,-9.3313,-2.4011,0.0158,-0.0043,-0.0104,2.43,36.9,6.2,340.22,72.08,142.69,0.0,1.57,35.178192,126.90874,,155.843274515097,,151.96774,,1 / 17,16568,2014-12-14 14:52:53:636
-1.7643,-9.2525,-2.358,-1.8229,-9.3321,-2.3997,0.0326,-0.0137,0.0178,2.43,36.21,5.95,340.22,72.08,142.69,0.0,1.57,35.178192,126.90874,,155.843274515097,,151.96774,,1 / 17,16618,2014-12-14 14:52:53:686
-1.726,-9.2717,-2.358,-1.8078,-9.3367,-2.3933,0.0659,-0.0215,0.0311,3.55,40.21,5.33,348.51,72.1,142.78,0.0,8.983,35.178192,126.90874,,155.843274515097,,151.96774,,1 / 17,16668,2014-12-14 14:52:53:736
-1.7643,-9.2525,-2.358,-1.8061,-9.3372,-2.3926,0.0239,-0.0032,0.0101,2.8,38.78,5.33,354.49,72.2,142.95,0.0,8.983,35.178192,126.90874,,155.843274515097,,151.96774,,1 / 17,16718,2014-12-14 14:52:53:786
-1.8218,-9.2525,-2.3388,-1.8057,-9.3392,-2.385,0.0099,-0.0038,0.023,2.8,37.65,6.2,347.06,72.22,142.93,0.0,8.983,35.178192,126.90874,,155.843274515097,,151.96774,,1 / 17,16767,2014-12-14 14:52:53:835
-1.8218,-9.2142,-2.4346,-1.8039,-9.3396,-2.3851,0.0264,-3.0E-4,4.0E-4,2.43,33.96,7.76,347.06,72.22,142.93,0.0,8.983,35.178192,126.90874,,155.843274515097,,151.96774,,1 / 17,16818,2014-12-14 14:52:53:886
-1.7835,-9.2334,-2.3388,-1.8053,-9.3382,-2.3896,-0.0173,0.0265,-0.0227,2.8,37.65,6.2,345.43,72.25,142.9,0.0,8.983,35.178192,126.90874,,155.843274515097,,151.96774,,1 / 17,16868,2014-12-14 14:52:53:936
-1.7452,-9.2525,-2.358,-1.8019,-9.3384,-2.3911,0.0464,-0.019,0.0243,2.05,38.4,9.64,302.94,72.2,142.97,0.0,8.983,35.178192,126.90874,,155.843274515097,,151.96774,,1 / 17,16918,2014-12-14 14:52:53:986
-1.8027,-9.2525,-2.3963,-1.7979,-9.3399,-2.3882,0.0228,-0.0182,0.0344,3.55,37.65,10.08,302.94,72.2,142.97,0.0,8.983,35.178192,126.90874,,155.843274515097,,151.96774,,1 / 17,16968,2014-12-14 14:52:54:036
-1.8601,-9.1951,-2.4538,-1.7996,-9.3406,-2.3845,-0.0276,0.0041,0.0065,2.05,38.78,7.95,325.38,72.25,143.03,0.0,1.196,35.178192,126.90874,,155.843274515097,,151.96774,,1 / 17,17018,2014-12-14 14:52:54:086
-1.8793,-9.2142,-2.4155,-1.8204,-9.3332,-2.3976,-0.0888,0.032,-0.0856,2.8,39.15,8.45,329.26,72.26,142.96,0.0,1.196,35.178192,126.90874,,155.843274515097,,151.96774,,1 / 17,17068,2014-12-14 14:52:54:136
-1.7835,-9.2525,-2.3197,-1.8213,-9.3336,-2.3953,0.0107,-0.0149,0.0311,2.43,36.15,6.39,339.18,72.12,142.79,0.0,1.196,35.178192,126.90874,,155.843274515097,,151.96774,,1 / 17,17118,2014-12-14 14:52:54:186
-1.7835,-9.2334,-2.4155,-1.8187,-9.3347,-2.393,0.0052,0.0058,-0.0126,3.18,37.28,6.2,346.19,72.16,142.75,0.0,1.196,35.178192,126.90874,,155.843274515097,,151.96774,,1 / 17,17168,2014-12-14 14:52:54:236
-1.841,-9.1759,-2.3771,-1.8208,-9.334,-2.394,-0.0224,0.0455,-0.0052,3.18,37.65,5.01,346.19,72.16,142.75,0.0,1.196,35.178192,126.90874,,155.843274515097,,151.96774,,1 / 17,17217,2014-12-14 14:52:54:285
-1.7643,-9.2334,-2.3388,-1.8183,-9.3348,-2.3928,0.0272,-0.0043,0.0059,2.43,35.84,6.39,347.66,72.14,142.74,0.0,1.196,35.178192,126.90874,,155.843274515097,,151.96774,,1 / 17,17268,2014-12-14 14:52:54:336
-1.7452,-9.2525,-2.3388,-1.8152,-9.3357,-2.3917,0.0425,-0.0147,0.014,2.8,35.46,5.45,353.03,72.15,142.77,0.0,1.196,35.178192,126.90874,,155.843274515097,,151.96774,,1 / 17,17318,2014-12-14 14:52:54:386
-1.7452,-9.2525,-2.3197,-1.8021,-9.3398,-2.3856,0.0213,-0.0029,0.0164,2.43,36.15,6.26,339.05,72.22,142.89,0.0,29.897,35.178192,126.90874,,155.843274515097,,151.96774,,1 / 17,17367,2014-12-14 14:52:54:435
-1.7835,-9.1951,-2.358,-1.8017,-9.3394,-2.3874,0.0102,0.0291,-0.0193,2.43,36.53,5.45,339.05,72.22,142.89,0.0,29.897,35.178192,126.90874,,155.843274515097,,151.96774,,1 / 17,17418,2014-12-14 14:52:54:486
-1.7452,-9.2525,-2.358,-1.7975,-9.3389,-2.3927,0.0407,0.004,-0.035,2.43,35.84,7.14,329.85,72.24,142.96,0.0,29.897,35.178192,126.90874,,155.843274515097,,151.96774,,1 / 17,17468,2014-12-14 14:52:54:536
-1.7835,-9.2334,-2.358,-1.7936,-9.3402,-2.3904,0.0205,-0.0204,0.0258,2.8,37.65,5.7,329.85,72.24,142.96,0.0,29.897,35.178192,126.90874,,155.843274515097,,151.96774,,1 / 17,17518,2014-12-14 14:52:54:586
-1.726,-9.2909,-2.2622,-1.7932,-9.3401,-2.391,0.0168,-0.0041,0.0047,3.18,36.53,6.83,336.94,72.26,143.13,0.0,29.897,35.178192,126.90874,,155.843274515097,,151.96774,,1 / 17,17567,2014-12-14 14:52:54:635
-1.7452,-9.2525,-2.3197,-1.7852,-9.3432,-2.385,0.0095,-0.0371,0.0251,3.55,37.28,5.95,354.83,72.26,143.13,0.0,29.897,35.178192,126.90874,,155.843274515097,,151.96774,,1 / 17,17618,2014-12-14 14:52:54:686
-1.8218,-9.2334,-2.3771,-1.7819,-9.3432,-2.3874,-0.0351,0.0065,-0.0349,2.8,35.46,7.76,319.77,72.32,143.26,0.0,33.843,35.178192,126.90874,,155.843274515097,,151.96774,,1 / 17,17668,2014-12-14 14:52:54:736
-1.8218,-9.2334,-2.3963,-1.7887,-9.3411,-2.3906,-0.0781,0.0037,-0.0426,1.68,36.53,6.83,319.77,72.32,143.26,0.0,33.843,35.178192,126.90874,,155.843274515097,,151.96774,,1 / 17,17718,2014-12-14 14:52:54:786
-1.8218,-9.2334,-2.3005,-1.8019,-9.3384,-2.3911,-0.0321,0.0186,0.0222,2.8,35.84,5.95,345.69,72.22,143.12,0.0,33.843,35.178192,126.90874,,155.843274515097,,151.96774,,1 / 17,17768,2014-12-14 14:52:54:836
-1.8218,-9.2334,-2.3771,-1.8006,-9.3392,-2.3891,0.005,-0.0161,0.003,2.43,35.09,6.39,337.93,72.24,143.0,0.0,33.843,35.178192,126.90874,,155.843274515097,,151.96774,,1 / 17,17818,2014-12-14 14:52:54:886
-1.841,-9.2334,-2.3388,-1.8048,-9.3378,-2.3912,-0.0275,0.0017,-0.0324,3.87,35.46,6.39,337.93,72.24,143.0,0.0,33.843,35.178192,126.90874,,155.843274515097,,151.96774,,1 / 17,17867,2014-12-14 14:52:54:935
-1.841,-9.2334,-2.4155,-1.8065,-9.3378,-2.3902,-0.0012,-6.0E-4,-0.004,1.3,36.21,9.89,343.15,72.21,142.95,0.0,33.843,35.178192,126.90874,,155.843274515097,,151.96774,,1 / 17,17917,2014-12-14 14:52:54:985
-1.841,-9.2334,-2.358,-1.8143,-9.3358,-2.392,-0.0546,0.0261,0.008,3.55,37.28,8.51,314.16,72.21,142.92,0.0,24.04,35.178192,126.90874,,155.843274515097,,151.96774,,1 / 17,17968,2014-12-14 14:52:55:036
-1.7835,-9.2525,-2.3388,-1.8194,-9.3349,-2.3918,-0.0069,-0.0036,-0.0047,2.05,37.65,8.51,313.59,72.16,142.74,0.0,24.04,35.178192,126.90874,,155.843274515097,,151.96774,,1 / 17,18018,2014-12-14 14:52:55:086
-1.8218,-9.2334,-2.3771,-1.8187,-9.335,-2.3919,1.0E-4,0.0077,-0.0077,2.05,36.21,10.33,313.59,72.16,142.74,0.0,24.04,35.178192,126.90874,,155.843274515097,,151.96774,,1 / 17,18068,2014-12-14 14:52:55:136
-1.7835,-9.2334,-2.3388,-1.8164,-9.3362,-2.389,0.0198,0.0077,0.0027,2.05,37.65,8.64,313.6,72.16,142.75,0.0,24.04,35.178192,126.90874,,155.843274515097,,151.96774,,1 / 17,18118,2014-12-14 14:52:55:186
-1.8027,-9.2525,-2.3771,-1.8138,-9.3375,-2.3857,0.0213,-0.0097,0.032,2.05,36.9,6.39,340.01,72.21,142.75,0.0,24.04,35.178192,126.90874,,155.843274515097,,151.96774,,1 / 17,18167,2014-12-14 14:52:55:235
-1.7643,-9.2525,-2.3388,-1.8119,-9.3386,-2.383,0.0289,0.003,-0.0088,2.43,37.65,5.95,340.01,72.21,142.75,0.0,24.04,35.178192,126.90874,,155.843274515097,,151.96774,,1 / 17,18218,2014-12-14 14:52:55:286
-1.8218,-9.2334,-2.3388,-1.8123,-9.3389,-2.3813,-0.002,0.0169,0.0333,2.43,36.9,5.95,337.74,72.23,142.75,0.0,24.04,35.178192,126.90874,,155.843274515097,,151.96774,,1 / 17,18267,2014-12-14 14:52:55:335
-1.7835,-9.2525,-2.3388,-1.815,-9.3389,-2.3793,-0.0119,-0.0017,0.0151,3.55,36.9,6.83,343.98,72.23,142.73,0.0,58.361,35.178192,126.90874,,155.843274515097,,151.96774,,1 / 17,18318,2014-12-14 14:52:55:386
-1.8027,-9.2142,-2.3197,-1.8152,-9.3404,-2.3734,0.0042,-1.0E-4,0.0362,2.8,36.21,6.58,343.98,72.23,142.73,0.0,58.361,35.178192,126.90874,,155.843274515097,,151.96774,,1 / 17,18368,2014-12-14 14:52:55:436
-1.7452,-9.5399,-2.3197,-1.8148,-9.342,-2.3672,-0.0127,-0.1382,0.0151,2.43,34.71,7.83,346.61,72.26,142.59,0.0,58.361,35.178192,126.90874,,155.843274515097,,151.96774,,1 / 17,18418,2014-12-14 14:52:55:486
-0.998,-9.3292,-2.3197,-1.8133,-9.348,-2.3445,-0.0636,-0.0843,0.1064,3.18,36.21,7.08,333.64,72.41,142.28,0.0,58.361,35.178192,126.90874,,155.843274515097,,151.96774,,1 / 17,18468,2014-12-14 14:52:55:536
-2.569,-8.6395,-2.8944,-1.7746,-9.3479,-2.3743,-0.2185,0.5858,-0.1581,0.93,35.46,7.64,313.58,72.58,143.34,0.0,58.361,35.178192,126.90874,,155.843274515097,,151.96774,,1 / 17,18517,2014-12-14 14:52:55:585
-2.3008,-9.2334,-2.7603,-1.8828,-9.3108,-2.4361,-0.5811,-0.0114,-0.3769,2.43,35.84,9.89,313.58,72.58,143.34,0.0,58.361,35.178192,126.90874,,155.843274515097,,151.96774,,1 / 17,18569,2014-12-14 14:52:55:637
-1.4578,-9.8273,-1.7832,-1.8348,-9.3317,-2.3921,0.3419,-0.433,0.4831,2.43,36.9,8.95,313.29,71.7,142.3,0.0,58.361,35.178192,126.90874,,155.843274515097,,151.96774,,1 / 17,18618,2014-12-14 14:52:55:686
-1.7643,-9.674,-2.2239,-1.8083,-9.3518,-2.3333,0.0281,-0.3761,0.1542,2.8,35.46,8.07,320.15,72.1,142.51,0.0,66.514,35.178192,126.90874,,155.843274515097,,151.96774,,1 / 17,18673,2014-12-14 14:52:55:741
-2.205,-9.0993,-2.8178,-1.8932,-9.3115,-2.4252,-0.6164,0.2537,-0.5303,2.05,35.46,8.64,305.86,72.07,142.24,0.0,66.514,35.178192,126.90874,,155.843274515097,,151.96774,,1 / 17,18717,2014-12-14 14:52:55:785
-1.6877,-9.31,-2.2813,-1.8801,-9.3129,-2.4302,0.1892,-0.0353,0.0765,0.93,36.21,7.08,305.86,72.07,142.24,0.0,66.514,35.178192,126.90874,,155.843274515097,,151.96774,,1 / 17,18768,2014-12-14 14:52:55:836
-1.9176,-9.1184,-1.994,-1.8216,-9.3534,-2.3166,-0.0323,0.1144,0.3209,2.43,35.09,7.64,315.42,71.74,142.27,0.0,66.514,35.178192,126.90874,,155.843274515097,,151.96774,,1 / 17,18818,2014-12-14 14:52:55:886
-1.6877,-9.2142,-2.243,-1.8371,-9.3502,-2.317,0.0424,-0.0186,0.0311,2.05,38.03,9.39,311.19,72.51,141.82,0.0,66.514,35.178192,126.90874,,155.843274515097,,151.96774,,1 / 17,18868,2014-12-14 14:52:55:936
-2.3391,-8.6586,-2.6262,-1.7947,-9.3562,-2.3264,0.1034,0.4943,-0.0582,2.05,35.84,8.07,317.46,72.46,141.87,0.0,66.514,35.178192,126.90874,,155.843274515097,,151.96774,,1 / 17,18918,2014-12-14 14:52:55:986
-1.5919,-8.9843,-2.6837,-1.9082,-9.3094,-2.4217,-0.5756,0.4138,-0.7776,1.3,37.28,8.07,317.46,72.46,141.87,0.0,71.243,35.178192,126.90874,,155.843274515097,,151.96774,,1 / 17,18967,2014-12-14 14:52:56:035
-1.362,-9.9997,-1.6874,-1.8308,-9.3382,-2.3698,0.7223,-0.6995,0.8399,2.8,36.21,9.08,313.13,71.68,141.76,0.0,71.243,35.178192,126.90874,,155.843274515097,,151.96774,,1 / 17,19018,2014-12-14 14:52:56:086
-1.6494,-9.0226,-2.2813,-1.7739,-9.3749,-2.2659,0.0768,-0.3531,0.4764,2.8,36.21,9.14,308.24,72.22,142.31,0.0,71.243,35.178192,126.90874,,155.843274515097,,151.96774,,1 / 17,19068,2014-12-14 14:52:56:136
-1.9751,-8.9077,-2.8369,-1.7939,-9.3541,-2.3351,-0.1375,0.2379,-0.4588,2.05,35.84,9.08,306.08,72.53,142.47,0.0,71.243,35.178192,126.90874,,155.843274515097,,151.96774,,1 / 17,19118,2014-12-14 14:52:56:186
-1.7069,-9.4058,-1.994,-1.7974,-9.3523,-2.3398,-0.0582,-0.0994,0.0306,1.3,36.53,8.95,306.08,72.53,142.47,0.0,71.243,35.178192,126.90874,,155.843274515097,,151.96774,,1 / 17,19168,2014-12-14 14:52:56:236
-1.3812,-9.4058,-1.8982,-1.745,-9.3832,-2.2542,0.2382,-0.2391,0.3272,2.43,38.03,5.58,315.74,72.49,142.47,0.0,71.243,35.178192,126.90874,,155.843274515097,,151.96774,,1 / 17,19218,2014-12-14 14:52:56:286
-2.1667,-8.8694,-2.722,-1.7493,-9.3821,-2.2552,-0.0517,0.2937,-0.1803,2.43,37.28,8.7,305.24,73.1,142.26,0.0,71.243,35.178192,126.90874,,155.843274515097,,151.96774,,1 / 17,19268,2014-12-14 14:52:56:336
-2.0134,-9.0035,-2.5687,-1.8126,-9.3512,-2.3323,-0.4375,0.3641,-0.5332,2.8,38.4,9.14,305.24,73.1,142.26,0.0,72.212,35.178192,126.90874,,155.843274515097,,151.96774,,1 / 17,19318,2014-12-14 14:52:56:386
-1.2088,-9.674,-1.8599,-1.7758,-9.3672,-2.296,0.501,-0.4543,0.3773,2.05,38.78,8.51,319.88,72.47,142.15,0.0,72.212,35.178192,126.90874,,155.843274515097,,151.96774,,1 / 17,19368,2014-12-14 14:52:56:436
-1.7835,-9.1376,-1.8407,-1.7485,-9.3927,-2.2115,-0.0675,0.1132,0.4508,2.05,36.21,9.45,301.75,73.18,142.15,0.0,72.212,35.178192,126.90874,,155.843274515097,,151.96774,,1 / 17,19417,2014-12-14 14:52:56:485
-1.8027,-9.1376,-2.2239,-1.7388,-9.3883,-2.2374,0.158,0.1821,-0.3308,2.05,38.03,9.45,301.75,73.18,142.15,0.0,72.212,35.178192,126.90874,,155.843274515097,,151.96774,,1 / 17,19468,2014-12-14 14:52:56:536
-1.841,-9.061,-2.2622,-1.763,-9.3629,-2.3236,-0.4215,0.2517,-0.3734,1.68,36.59,8.7,307.28,73.2,142.15,0.0,72.212,35.178192,126.90874,,155.843274515097,,151.96774,,1 / 17,19526,2014-12-14 14:52:56:594
-1.5153,-9.3675,-1.9557,-1.763,-9.3629,-2.3236,-0.4215,0.2517,-0.3734,1.68,36.59,8.7,307.28,73.2,142.15,0.0,72.212,35.178192,126.90874,,155.843274515097,,151.96774,,1 / 17,19568,2014-12-14 14:52:56:636
-1.4003,-9.5591,-1.8024,-1.691,-9.3998,-2.2259,0.2963,-0.2891,0.3753,2.8,38.78,8.45,286.36,72.7,142.81,0.0,72.212,35.178192,126.90874,,155.843274515097,,151.96774,,1 / 17,19618,2014-12-14 14:52:56:686
-1.6111,-9.2142,-2.1281,-1.6864,-9.4069,-2.1993,-0.066,-0.1388,0.0545,1.3,36.9,8.26,313.68,73.44,142.78,0.0,69.799,35.178192,126.90874,,155.843274515097,,151.96774,,1 / 17,19668,2014-12-14 14:52:56:736
-2.0326,-9.1184,-2.3963,-1.7093,-9.3975,-2.2217,-0.288,0.1394,-0.2053,2.43,36.96,9.83,290.45,73.58,142.52,0.0,69.799,35.178192,126.90874,,155.843274515097,,151.96774,,1 / 17,19718,2014-12-14 14:52:56:786
-1.9176,-9.6549,-2.0131,-1.7394,-9.3982,-2.1952,-0.1694,-0.2448,0.2054,2.05,37.65,9.57,290.45,73.58,142.52,0.0,69.799,35.178192,126.90874,,155.843274515097,,151.96774,,1 / 17,19768,2014-12-14 14:52:56:836
-1.6877,-9.0035,-2.8944,-1.7596,-9.3951,-2.1923,-0.0902,-0.0576,-0.1101,1.68,35.84,8.64,300.1,73.41,141.61,0.0,69.799,35.178192,126.90874,,155.843274515097,,151.96774,,1 / 17,19818,2014-12-14 14:52:56:886
-1.9751,-9.0801,-2.3197,-1.7877,-9.3694,-2.2781,-0.4019,0.2247,-0.4985,2.05,38.03,9.14,309.44,72.83,141.88,0.0,69.799,35.178192,126.90874,,155.843274515097,,151.96774,,1 / 17,19868,2014-12-14 14:52:56:936
-1.4387,-9.2717,-2.2813,-1.8085,-9.3592,-2.3032,-0.0351,0.0747,-0.1029,2.8,36.9,10.01,309.44,72.83,141.88,0.0,69.799,35.178192,126.90874,,155.843274515097,,151.96774,,1 / 17,19917,2014-12-14 14:52:56:985
-2.1284,-9.2142,-2.243,-1.8178,-9.3579,-2.3012,-0.0556,-0.0238,0.0414,0.93,36.9,8.01,316.92,72.68,142.21,0.0,62.434,35.178192,126.90874,,155.843274515097,,151.96774,,1 / 17,19968,2014-12-14 14:52:57:036
-1.6494,-9.3483,-2.2813,-1.8117,-9.3625,-2.2872,0.4108,0.0194,0.0031,1.68,36.53,9.08,307.94,72.59,141.16,0.0,62.434,35.178192,126.90874,,155.843274515097,,151.96774,,1 / 17,20036,2014-12-14 14:52:57:104
-2.1284,-9.2334,-2.6262,-1.789,-9.364,-2.2989,0.0398,-0.0481,-0.0564,1.68,36.53,9.08,307.94,72.59,141.16,0.0,62.434,35.178192,126.90874,,155.843274515097,,151.96774,,1 / 17,20068,2014-12-14 14:52:57:136
-1.8601,-9.3483,-2.3963,-1.8094,-9.3528,-2.3286,-0.0272,0.0292,-0.1856,3.18,37.28,6.14,344.86,72.5,142.15,0.0,62.434,35.178192,126.90874,,155.843274515097,,151.96774,,1 / 17,20118,2014-12-14 14:52:57:186
-1.7069,-9.5591,-2.2813,-1.8387,-9.3602,-2.2751,0.1966,-0.2008,0.1309,3.18,37.28,6.45,344.86,72.5,142.15,0.0,62.434,35.178192,126.90874,,155.843274515097,,151.96774,,1 / 17,20167,2014-12-14 14:52:57:235
-1.4387,-9.061,-2.3005,-1.7738,-9.374,-2.2697,0.5249,0.0595,0.0841,2.05,38.78,4.33,5.2,72.65,141.05,0.0,62.434,35.178192,126.90874,,155.843274515097,,151.96774,,1 / 17,20217,2014-12-14 14:52:57:285
-2.4924,-8.8311,-3.2201,-1.9315,-9.3058,-2.4171,-0.6181,0.346,-0.9239,1.68,37.28,4.82,346.11,72.52,141.68,0.0,68.548,35.178192,126.90874,,155.843274515097,,151.96774,,1 / 17,20268,2014-12-14 14:52:57:336
-1.3812,-9.5208,-2.0131,-1.8876,-9.2976,-2.4822,0.8502,0.1028,-0.1441,2.43,38.03,9.14,346.11,72.52,141.68,0.0,68.548,35.178192,126.90874,,155.843274515097,,151.96774,,1 / 17,20318,2014-12-14 14:52:57:386
-0.0784,-9.7698,-1.2468,-1.8451,-9.314,-2.4527,0.5856,-0.2493,0.4039,2.8,37.28,9.14,316.74,71.46,142.75,0.0,68.548,35.178192,126.90874,,155.843274515097,,151.96774,,1 / 17,20368,2014-12-14 14:52:57:436
-1.9559,-8.946,-2.5112,-1.6751,-9.3803,-2.3181,1.4742,-0.4391,0.9505,3.49,38.4,5.26,349.05,71.76,143.05,0.0,68.548,35.178192,126.90874,,155.843274515097,,151.96774,,1 / 17,20418,2014-12-14 14:52:57:486
-2.1667,-8.6586,-2.971,-1.6789,-9.3693,-2.3598,-0.5105,0.5376,-0.6688,2.05,38.03,6.01,339.94,73.68,145.29,0.0,68.548,35.178192,126.90874,,155.843274515097,,151.96774,,1 / 17,20467,2014-12-14 14:52:57:535
-1.0363,-9.8081,-1.2468,-1.6975,-9.36,-2.3832,0.0376,-0.3135,0.0471,0.93,36.9,4.82,339.94,73.68,145.29,0.0,68.548,35.178192,126.90874,,155.843274515097,,151.96774,,1 / 17,20518,2014-12-14 14:52:57:586
-1.362,-9.3867,-1.8024,-1.6584,-9.3846,-2.313,0.8665,-0.3054,0.947,1.3,38.03,7.76,317.83,73.13,144.36,0.0,68.548,35.178192,126.90874,,155.843274515097,,151.96774,,1 / 17,20571,2014-12-14 14:52:57:639
-2.5307,-8.5629,-3.1243,-1.5849,-9.4283,-2.1828,0.1144,-0.522,0.8048,2.43,39.9,5.7,339.88,74.03,144.02,0.0,73.397,35.178192,126.90874,,155.843274515097,,151.96774,,1 / 17,20618,2014-12-14 14:52:57:686
-2.1475,-9.2909,-2.3963,-1.7398,-9.3538,-2.3769,-0.4249,0.0202,-0.0947,2.8,37.28,4.82,339.88,74.03,144.02,0.0,73.397,35.178192,126.90874,,155.843274515097,,151.96774,,1 / 17,20668,2014-12-14 14:52:57:736
-1.2088,-9.9806,-1.0935,-1.7054,-9.393,-2.2437,0.5982,-0.6049,1.0988,2.43,38.03,6.7,349.09,72.52,143.8,0.0,73.397,35.178192,126.90874,,155.843274515097,,151.96774,,1 / 17,20718,2014-12-14 14:52:57:786
-2.3391,-8.8119,-2.8369,-1.6494,-9.4177,-2.1809,-0.2581,0.4045,-0.5183,2.43,36.53,6.45,336.06,73.83,142.95,0.0,73.397,35.178192,126.90874,,155.843274515097,,151.96774,,1 / 17,20767,2014-12-14 14:52:57:835
-2.6073,-8.7736,-3.0094,-1.7903,-9.3653,-2.2926,-0.9691,0.5173,-0.7955,1.68,37.28,8.64,307.36,72.75,142.01,0.0,73.397,35.178192,126.90874,,155.843274515097,,151.96774,,1 / 17,20818,2014-12-14 14:52:57:886
-1.1321,-9.6549,-1.515,-1.7432,-9.3812,-2.2637,0.5143,-0.3126,0.5506,2.05,37.65,3.95,307.36,72.75,142.01,0.0,73.397,35.178192,126.90874,,155.843274515097,,151.96774,,1 / 17,20868,2014-12-14 14:52:57:936
-1.3237,-9.5399,-1.7832,-1.6749,-9.4104,-2.1932,0.3549,-0.2352,0.373,2.43,37.65,5.58,353.99,73.06,142.4,0.0,73.397,35.178192,126.90874,,155.843274515097,,151.96774,,1 / 17,20917,2014-12-14 14:52:57:985
-1.2279,-9.6549,-1.8215,-1.5624,-9.448,-2.1128,0.4442,-0.1129,0.3374,2.8,38.78,2.26,8.98,73.92,142.95,0.0,72.164,35.178192,126.90874,,155.843274515097,,151.96774,,1 / 17,20970,2014-12-14 14:52:58:038
-1.726,-9.061,-2.2813,-1.5842,-9.4444,-2.1129,-0.2587,0.2561,-0.2707,2.05,38.03,8.7,299.43,74.38,143.14,0.0,72.164,35.178192,126.90874,,155.843274515097,,151.96774,,1 / 17,21018,2014-12-14 14:52:58:086
-2.205,-9.1759,-2.2622,-1.7346,-9.388,-2.242,-0.5023,0.168,-0.3338,2.8,37.65,7.76,299.43,74.38,143.14,0.0,72.164,35.178192,126.90874,,155.843274515097,,151.96774,,1 / 17,21068,2014-12-14 14:52:58:136
-1.2279,-9.4825,-1.7641,-1.7258,-9.3955,-2.2172,0.3237,-0.1612,0.3447,2.8,35.84,5.7,344.82,73.2,142.27,0.0,72.164,35.178192,126.90874,,155.843274515097,,151.96774,,1 / 17,21118,2014-12-14 14:52:58:186
-1.5345,-9.31,-2.0898,-1.6863,-9.4082,-2.1937,0.1108,-0.1109,0.1003,2.8,35.46,9.14,294.76,73.35,142.1,0.0,72.164,35.178192,126.90874,,155.843274515097,,151.96774,,1 / 17,21168,2014-12-14 14:52:58:236
-1.9368,-9.0993,-2.5496,-1.6802,-9.4092,-2.1943,-0.0513,-0.0049,-0.0417,4.24,39.15,8.26,326.64,73.63,142.56,0.0,72.164,35.178192,126.90874,,155.843274515097,,151.96774,,1 / 17,21224,2014-12-14 14:52:58:292
-1.6685,-9.0993,-2.6262,-1.7309,-9.3728,-2.3075,-0.0015,0.1408,-0.3962,4.62,38.4,7.83,326.64,73.63,142.56,0.0,62.562,35.178192,126.90874,,155.843274515097,,151.96774,,1 / 17,21268,2014-12-14 14:52:58:336
-1.5536,-9.3675,-2.2239,-1.7181,-9.3742,-2.3116,0.1759,-0.025,-0.0572,3.55,38.4,8.2,329.95,72.89,143.13,0.0,62.562,35.178192,126.90874,,155.843274515097,,151.96774,,1 / 17,21317,2014-12-14 14:52:58:385
-1.8218,-9.1759,-2.6454,-1.7021,-9.3772,-2.3113,-0.093,0.073,-0.3074,3.18,39.15,8.7,312.66,73.08,143.36,0.0,62.562,35.178192,126.90874,,155.843274515097,,151.96774,,1 / 17,21368,2014-12-14 14:52:58:436
-2.0709,-9.0801,-2.6837,-1.7517,-9.3556,-2.3609,-0.3441,0.1293,-0.282,3.87,39.53,9.08,312.66,73.08,143.36,0.0,62.562,35.178192,126.90874,,155.843274515097,,151.96774,,1 / 17,21418,2014-12-14 14:52:58:486
-1.9559,-9.4441,-2.243,-1.7872,-9.3527,-2.346,-0.1464,-0.164,0.114,3.87,37.65,9.14,283.02,72.56,143.43,0.0,62.562,35.178192,126.90874,,155.843274515097,,151.96774,,1 / 17,21467,2014-12-14 14:52:58:535
-2.1475,-9.1759,-2.6262,-1.8258,-9.341,-2.3626,-0.3325,0.1064,-0.2324,4.24,39.15,8.26,333.54,72.5,142.7,0.0,62.562,35.178192,126.90874,,155.843274515097,,151.96774,,1 / 17,21518,2014-12-14 14:52:58:586
-2.3391,-9.0035,-2.8561,-1.9191,-9.301,-2.4452,-0.4349,0.2217,-0.4015,2.8,38.03,9.14,315.54,72.03,142.17,0.0,62.562,35.178192,126.90874,,155.843274515097,,151.96774,,1 / 17,21568,2014-12-14 14:52:58:636
-2.205,-9.0226,-2.9136,-1.9639,-9.2753,-2.5064,-0.2138,0.1786,-0.3769,3.87,37.28,8.7,315.54,72.03,142.17,0.0,57.57,35.178192,126.90874,,155.843274515097,,151.96774,,1 / 17,21618,2014-12-14 14:52:58:686
-1.8027,-8.5629,-1.515,-1.9676,-9.2847,-2.4686,-0.0344,0.1126,0.6937,2.43,38.4,9.14,322.87,71.05,141.92,0.0,57.57,35.178192,126.90874,,155.843274515097,,151.96774,,1 / 17,21669,2014-12-14 14:52:58:737
-0.9022,-10.0955,-0.1165,-1.7868,-9.3645,-2.2986,0.6545,-0.7341,1.824,2.43,39.53,10.83,303.87,71.22,141.44,0.0,57.57,35.178192,126.90874,,155.843274515097,,151.96774,,1 / 17,21718,2014-12-14 14:52:58:786
-2.3774,-9.1184,-2.9902,-1.7676,-9.3831,-2.2368,0.2326,-0.4333,0.8125,2.8,38.4,9.57,303.87,71.22,141.44,0.0,57.57,35.178192,126.90874,,155.843274515097,,151.96774,,1 / 17,21767,2014-12-14 14:52:58:835
-1.8793,-8.8885,-3.2584,-1.7764,-9.3606,-2.3223,-0.231,0.2825,-0.7845,4.24,39.53,6.58,343.28,73.1,141.68,0.0,57.57,35.178192,126.90874,,155.843274515097,,151.96774,,1 / 17,21818,2014-12-14 14:52:58:886
-2.3583,-8.9843,-2.5687,-1.9026,-9.2905,-2.4973,-0.4514,0.1463,0.0132,3.87,38.78,10.01,310.12,71.73,143.23,0.0,57.57,35.178192,126.90874,,155.843274515097,,151.96774,,1 / 17,21868,2014-12-14 14:52:58:936
-1.3046,-9.5208,-2.358,-1.889,-9.3031,-2.4607,0.3034,-0.3359,0.1923,2.8,37.28,12.39,310.12,71.73,143.23,0.0,38.226,35.178192,126.90874,,155.843274515097,,151.96774,,1 / 17,21918,2014-12-14 14:52:58:986
-1.4961,-9.3483,-2.3963,-1.8493,-9.313,-2.4535,0.5186,-0.2968,0.0586,2.43,37.28,8.7,314.12,71.56,142.49,0.0,38.226,35.178192,126.90874,,155.843274515097,,151.96774,,1 / 17,21970,2014-12-14 14:52:59:038
-1.7069,-9.1184,-2.607,-1.8422,-9.3102,-2.4691,-0.1707,0.2215,-0.1286,3.18,37.28,8.64,314.12,71.56,142.49,0.0,38.226,35.178192,126.90874,,155.843274515097,,151.96774,,1 / 17,22019,2014-12-14 14:52:59:087
-1.8793,-9.3292,-2.3963,-1.8121,-9.3071,-2.503,0.1638,-0.1,-0.0598,3.18,37.65,9.39,318.67,71.69,143.27,0.0,38.226,35.178192,126.90874,,155.843274515097,,151.96774,,1 / 17,22071,2014-12-14 14:52:59:139
-2.5881,-9.0801,-2.5496,-1.8693,-9.2961,-2.5019,-0.6193,0.08,-0.0568,2.8,36.21,8.7,318.67,71.69,143.27,0.0,38.226,35.178192,126.90874,,155.843274515097,,151.96774,,1 / 17,22118,2014-12-14 14:52:59:186
-2.3008,-9.0418,-2.6645,-1.9386,-9.2749,-2.5275,-0.3947,0.1275,-0.2114,2.43,37.65,8.26,326.92,71.43,143.23,0.0,38.226,35.178192,126.90874,,155.843274515097,,151.96774,,1 / 17,22168,2014-12-14 14:52:59:236
-1.4578,-9.3292,-2.0706,-1.839,-9.3075,-2.4818,0.3438,-0.0577,0.3091,2.43,35.84,9.83,300.73,71.64,143.46,0.0,38.226,35.178192,126.90874,,155.843274515097,,151.96774,,1 / 17,22217,2014-12-14 14:52:59:285
-1.6302,-9.1568,-2.4346,-1.8206,-9.3126,-2.4762,0.2804,0.057,0.1124,2.05,36.9,10.14,300.73,71.64,143.46,0.0,61.518,35.178192,126.90874,,155.843274515097,,151.96774,,1 / 17,22268,2014-12-14 14:52:59:336
-1.8601,-9.2717,-2.358,-1.7901,-9.3226,-2.4607,-0.0186,-0.0462,0.0947,2.43,35.09,9.33,289.55,71.74,143.68,0.0,61.518,35.178192,126.90874,,155.843274515097,,151.96774,,1 / 17,22321,2014-12-14 14:52:59:389
-1.9942,-9.1376,-2.6262,-1.8185,-9.3158,-2.4658,-0.2064,0.0623,-0.0998,2.05,37.28,8.95,313.12,71.92,143.96,0.0,61.518,35.178192,126.90874,,155.843274515097,,151.96774,,1 / 17,22367,2014-12-14 14:52:59:435
-1.7835,-9.2909,-2.3388,-1.8477,-9.3052,-2.484,-0.1543,0.0994,-0.1022,2.05,35.84,9.33,313.12,71.92,143.96,0.0,61.518,35.178192,126.90874,,155.843274515097,,151.96774,,1 / 17,22418,2014-12-14 14:52:59:486
-1.841,-9.2142,-2.3771,-1.8435,-9.3072,-2.4794,0.074,-0.0439,0.0407,2.8,35.84,8.89,313.27,71.64,143.37,0.0,61.518,35.178192,126.90874,,155.843274515097,,151.96774,,1 / 17,22468,2014-12-14 14:52:59:536
-1.7643,-9.1951,-2.6837,-1.8464,-9.2981,-2.5111,0.0576,0.0302,-0.1985,1.68,37.28,10.01,313.27,71.64,143.37,0.0,61.518,35.178192,126.90874,,155.843274515097,,151.96774,,1 / 17,22517,2014-12-14 14:52:59:585
-1.726,-9.2334,-2.3963,-1.8277,-9.3029,-2.5072,0.0805,-0.0371,0.1033,1.3,36.21,8.7,308.14,71.47,143.67,0.0,61.518,35.178192,126.90874,,155.843274515097,,151.96774,,1 / 17,22570,2014-12-14 14:52:59:638
-1.8027,-9.2334,-2.3771,-1.8199,-9.3077,-2.495,0.0643,-0.0468,0.0746,4.24,37.65,10.51,292.65,71.56,143.91,0.0,66.588,35.178192,126.90874,,155.843274515097,,151.96774,,1 / 17,22617,2014-12-14 14:52:59:685
-1.841,-9.1376,-2.607,-1.8227,-9.3063,-2.498,-0.045,-0.0101,-0.0499,2.43,37.28,9.57,292.65,71.56,143.91,0.0,66.588,35.178192,126.90874,,155.843274515097,,151.96774,,1 / 17,22668,2014-12-14 14:52:59:736
-1.6877,-9.2525,-2.4346,-1.8277,-9.303,-2.507,0.0927,-0.0403,0.0495,0.93,35.46,10.45,298.93,71.62,143.88,0.0,66.588,35.178192,126.90874,,155.843274515097,,151.96774,,1 / 17,22718,2014-12-14 14:52:59:786
-1.726,-9.2334,-2.5496,-1.8194,-9.3045,-2.5073,0.1143,-0.0222,-0.0049,2.43,36.53,9.14,315.02,71.56,143.91,0.0,66.588,35.178192,126.90874,,155.843274515097,,151.96774,,1 / 17,22768,2014-12-14 14:52:59:836
-1.726,-9.1951,-2.5112,-1.8025,-9.3066,-2.5115,0.0389,-0.001,-0.0053,2.8,36.59,7.51,329.86,71.62,144.33,0.0,66.588,35.178192,126.90874,,155.843274515097,,151.96774,,1 / 17,22818,2014-12-14 14:52:59:886
-1.7452,-9.2142,-2.4538,-1.8018,-9.3068,-2.5114,0.0087,-0.0107,-3.0E-4,3.18,36.21,9.14,329.86,71.62,144.33,0.0,66.588,35.178192,126.90874,,155.843274515097,,151.96774,,1 / 17,22868,2014-12-14 14:52:59:936
-1.7643,-9.2334,-2.4729,-1.791,-9.308,-2.5148,0.0166,-0.0082,0.0019,2.05,36.9,9.57,317.47,71.63,144.34,0.0,66.588,35.178192,126.90874,,155.843274515097,,151.96774,,1 / 17,22920,2014-12-14 14:52:59:988
-1.7643,-9.2142,-2.6454,-1.7902,-9.307,-2.5191,0.0091,0.0083,-0.0612,1.3,35.84,10.45,301.57,71.63,144.6,0.0,63.604,35.178192,126.90874,,155.843274515097,,151.96774,,1 / 17,22970,2014-12-14 14:53:00:038
-1.5536,-9.2334,-2.358,-1.7642,-9.3113,-2.5214,0.2081,0.0045,0.1019,2.43,39.15,8.76,301.57,71.63,144.6,0.0,63.604,35.178192,126.90874,,155.843274515097,,151.96774,,1 / 17,23018,2014-12-14 14:53:00:086
-1.7069,-9.2717,-2.4346,-1.7535,-9.3188,-2.5012,0.0755,-0.0224,0.1478,3.18,40.96,7.83,329.1,71.71,145.02,0.0,63.604,35.178192,126.90874,,155.843274515097,,151.96774,,1 / 17,23070,2014-12-14 14:53:00:138
-1.7643,-9.2142,-2.4155,-1.7524,-9.3215,-2.492,-0.0807,0.0027,0.0418,3.87,39.15,9.39,327.33,71.89,145.04,0.0,63.604,35.178192,126.90874,,155.843274515097,,151.96774,,1 / 17,23118,2014-12-14 14:53:00:186
-1.7835,-9.2142,-2.5112,-1.7581,-9.3203,-2.4924,-0.0768,0.0247,-0.0042,1.68,39.53,9.64,327.33,71.89,145.04,0.0,63.604,35.178192,126.90874,,155.843274515097,,151.96774,,1 / 17,23167,2014-12-14 14:53:00:235
-1.7643,-9.2142,-2.4538,-1.764,-9.3168,-2.5011,-0.0209,-0.0144,0.0106,2.43,38.78,8.76,318.99,71.83,144.85,0.0,63.604,35.178192,126.90874,,155.843274515097,,151.96774,,1 / 17,23218,2014-12-14 14:53:00:286
-1.7835,-9.2334,-2.3963,-1.7643,-9.3174,-2.4989,-0.0091,-0.0319,0.0235,3.87,36.96,8.95,320.87,71.82,144.78,0.0,63.604,35.178192,126.90874,,155.843274515097,,151.96774,,1 / 17,23267,2014-12-14 14:53:00:335
-1.841,-9.1951,-2.4346,-1.7744,-9.3165,-2.4948,-0.0698,-0.0124,0.0216,3.18,39.53,9.2,320.87,71.82,144.78,0.0,58.995,35.178192,126.90874,,155.843274515097,,151.96774,,1 / 17,23318,2014-12-14 14:53:00:386
-1.8027,-9.2142,-2.5304,-1.7765,-9.3168,-2.4923,3.0E-4,-0.0256,0.0442,2.8,37.65,7.08,341.4,71.81,144.58,0.0,58.995,35.178192,126.90874,,155.843274515097,,151.96774,,1 / 17,23372,2014-12-14 14:53:00:440
-1.7069,-9.2334,-2.4538,-1.7814,-9.3154,-2.4941,-0.0288,0.0172,-0.0035,3.49,40.21,7.83,341.4,71.81,144.58,0.0,58.995,35.178192,126.90874,,155.843274515097,,151.96774,,1 / 17,23419,2014-12-14 14:53:00:487
-1.7835,-9.2142,-2.4346,-1.7777,-9.3174,-2.4891,-0.0181,-1.0E-4,0.0085,2.05,37.28,8.51,308.72,71.79,144.46,0.0,58.995,35.178192,126.90874,,155.843274515097,,151.96774,,1 / 17,23468,2014-12-14 14:53:00:536
-1.7643,-9.2334,-2.4538,-1.7802,-9.3168,-2.4897,-0.0085,0.0108,0.0034,3.18,38.78,8.33,332.94,71.83,144.47,0.0,58.995,35.178192,126.90874,,155.843274515097,,151.96774,,1 / 17,23518,2014-12-14 14:53:00:586
-1.6877,-9.2142,-2.4155,-1.7743,-9.3185,-2.4874,0.0638,-0.0183,0.0375,3.87,38.4,10.45,332.94,71.83,144.47,0.0,58.995,35.178192,126.90874,,155.843274515097,,151.96774,,1 / 17,23568,2014-12-14 14:53:00:636
-1.8027,-9.2334,-2.3963,-1.7722,-9.3231,-2.4716,-0.0648,0.0212,0.0185,3.18,39.53,8.45,338.03,71.85,144.5,0.0,58.995,35.178192,126.90874,,155.843274515097,,151.96774,,1 / 17,23618,2014-12-14 14:53:00:686
-1.8985,-9.1951,-2.5496,-1.779,-9.321,-2.4749,-0.0987,0.0069,-0.0523,3.49,40.59,8.7,325.61,71.93,144.36,0.0,60.901,35.178192,126.90874,,155.843274515097,,151.96774,,1 / 17,23667,2014-12-14 14:53:00:735
-1.7452,-9.1951,-2.4538,-1.7837,-9.32,-2.4751,0.1006,-0.0575,0.0817,3.87,39.53,8.51,328.71,71.81,144.17,0.0,60.901,35.178192,126.90874,,155.843274515097,,151.96774,,1 / 17,23718,2014-12-14 14:53:00:786
-1.5536,-9.2717,-2.3963,-1.7715,-9.3245,-2.4669,0.1695,-0.055,0.1161,3.18,39.53,4.89,328.71,71.81,144.17,0.0,60.901,35.178192,126.90874,,155.843274515097,,151.96774,,1 / 17,23768,2014-12-14 14:53:00:836
-1.841,-9.1568,-2.5687,-1.7564,-9.3278,-2.4652,-0.0239,0.0158,-0.0384,3.87,39.9,5.08,3.02,71.96,144.32,0.0,60.901,35.178192,126.90874,,155.843274515097,,151.96774,,1 / 17,23818,2014-12-14 14:53:00:886
-1.8601,-9.1759,-2.6454,-1.7707,-9.3198,-2.4851,-0.1059,0.0602,-0.1471,3.49,38.78,4.08,0.96,72.02,144.53,0.0,60.901,35.178192,126.90874,,155.843274515097,,151.96774,,1 / 17,23869,2014-12-14 14:53:00:937
-1.7643,-9.2525,-2.4155,-1.7906,-9.3171,-2.4812,-0.0116,-0.0468,0.0761,3.18,40.28,5.08,356.09,71.77,144.34,0.0,60.901,35.178192,126.90874,,155.843274515097,,151.96774,,1 / 17,23919,2014-12-14 14:53:00:987
-1.8793,-9.1568,-2.5304,-1.7954,-9.3168,-2.4788,-0.0683,-0.0047,0.0309,3.49,38.4,4.58,356.09,71.77,144.34,0.0,60.901,35.178192,126.90874,,155.843274515097,,151.96774,,1 / 17,23967,2014-12-14 14:53:01:035
-1.841,-9.1951,-2.5112,-1.8091,-9.3117,-2.4878,-0.079,0.0523,-0.0982,3.49,39.53,4.58,355.82,71.72,143.98,0.0,51.088,35.178192,126.90874,,155.843274515097,,151.96774,,1 / 17,24018,2014-12-14 14:53:01:086
-1.726,-9.2525,-2.3963,-1.8068,-9.312,-2.4886,0.0439,-8.0E-4,0.0695,3.49,40.28,4.58,355.87,71.69,144.03,0.0,51.088,35.178192,126.90874,,155.843274515097,,151.96774,,1 / 17,24068,2014-12-14 14:53:01:136
-1.7643,-9.2717,-2.3005,-1.801,-9.3163,-2.4767,0.0288,-0.0284,0.0896,4.62,40.59,4.45,355.87,71.69,144.03,0.0,51.088,35.178192,126.90874,,155.843274515097,,151.96774,,1 / 17,24118,2014-12-14 14:53:01:186
-1.8793,-9.2334,-2.4538,-1.7941,-9.3216,-2.4616,-0.0014,-0.0214,-0.0015,3.87,38.4,5.76,356.65,71.8,143.98,0.0,51.088,35.178192,126.90874,,155.843274515097,,151.96774,,1 / 17,24168,2014-12-14 14:53:01:236
-1.7835,-9.2142,-2.3771,-1.8058,-9.318,-2.4667,-0.0613,0.0319,-0.0486,4.24,38.78,5.01,2.73,71.9,143.91,0.0,51.088,35.178192,126.90874,,155.843274515097,,151.96774,,1 / 17,24218,2014-12-14 14:53:01:286
-1.7452,-9.2334,-2.3963,-1.795,-9.3212,-2.4624,0.0727,-0.0267,0.0348,4.24,40.96,5.01,2.73,71.9,143.91,0.0,51.088,35.178192,126.90874,,155.843274515097,,151.96774,,1 / 17,24268,2014-12-14 14:53:01:336
-1.8218,-9.1951,-2.4921,-1.7995,-9.3217,-2.4573,-0.0606,0.0223,0.0115,3.87,40.96,5.45,2.47,71.9,143.91,0.0,56.911,35.178192,126.90874,,155.843274515097,,151.96774,,1 / 17,24318,2014-12-14 14:53:01:386
-1.8793,-9.1759,-2.4729,-1.8026,-9.3207,-2.4588,-0.0373,0.0384,-0.0145,3.18,39.9,5.08,355.58,71.91,143.78,0.0,56.911,35.178192,126.90874,,155.843274515097,,151.96774,,1 / 17,24368,2014-12-14 14:53:01:436
-1.8027,-9.2717,-2.3197,-1.8246,-9.3184,-2.4513,-0.0313,-0.0347,0.0915,3.18,38.4,8.01,355.58,71.91,143.78,0.0,56.911,35.178192,126.90874,,155.843274515097,,151.96774,,1 / 17,24419,2014-12-14 14:53:01:487
-1.7835,-9.2717,-2.3005,-1.8214,-9.3217,-2.441,0.0282,-0.0446,0.0651,3.87,40.59,8.01,333.06,71.84,143.34,0.0,56.911,35.178192,126.90874,,155.843274515097,,151.96774,,1 / 17,24467,2014-12-14 14:53:01:535
-1.726,-9.2525,-2.3771,-1.8163,-9.325,-2.4323,0.0432,-0.0118,0.0649,2.8,40.28,7.26,341.69,71.91,143.27,0.0,56.911,35.178192,126.90874,,155.843274515097,,151.96774,,1 / 17,24518,2014-12-14 14:53:01:586
-1.6877,-9.2717,-2.3005,-1.806,-9.3275,-2.4303,0.0424,-0.0062,0.0329,2.8,40.28,6.7,341.6,71.99,143.36,0.0,56.911,35.178192,126.90874,,155.843274515097,,151.96774,,1 / 17,24567,2014-12-14 14:53:01:635
-1.726,-9.2717,-2.2813,-1.797,-9.3318,-2.4203,0.0627,-0.0276,0.0699,3.18,40.28,7.76,341.6,71.99,143.36,0.0,56.911,35.178192,126.90874,,155.843274515097,,151.96774,,1 / 17,24618,2014-12-14 14:53:01:686
-1.7069,-9.2717,-2.358,-1.7909,-9.3357,-2.41,0.0127,-0.0157,0.061,4.24,41.34,6.7,348.93,72.16,143.36,0.0,58.728,35.178192,126.90874,,155.843274515097,,151.96774,,1 / 17,24667,2014-12-14 14:53:01:735
-1.7452,-9.2334,-2.4346,-1.7818,-9.3376,-2.4095,0.0234,-0.0115,-0.0026,3.18,38.78,8.07,330.2,72.21,143.52,0.0,58.728,35.178192,126.90874,,155.843274515097,,151.96774,,1 / 17,24718,2014-12-14 14:53:01:786
-1.6877,-9.2717,-2.3771,-1.7786,-9.3371,-2.4136,0.0298,0.0053,-0.0527,3.87,39.15,7.14,330.2,72.21,143.52,0.0,58.728,35.178192,126.90874,,155.843274515097,,151.96774,,1 / 17,24768,2014-12-14 14:53:01:836
-1.7069,-9.2334,-2.3771,-1.7663,-9.3379,-2.4197,0.0442,0.0073,-0.0032,3.49,39.53,6.95,341.42,72.2,143.61,0.0,58.728,35.178192,126.90874,,155.843274515097,,151.96774,,1 / 17,24818,2014-12-14 14:53:01:886
-1.726,-9.2525,-2.4155,-1.7697,-9.3365,-2.4226,-0.0265,0.0097,-0.0091,2.43,38.03,6.58,332.37,72.21,143.87,0.0,58.728,35.178192,126.90874,,155.843274515097,,151.96774,,1 / 17,24868,2014-12-14 14:53:01:936
-1.726,-9.2909,-2.3197,-1.7661,-9.3374,-2.4217,0.0304,0.0144,0.0175,3.87,40.28,8.2,338.81,72.19,143.85,0.0,58.728,35.178192,126.90874,,155.843274515097,,151.96774,,1 / 17,24918,2014-12-14 14:53:01:986
-1.6877,-9.2909,-2.3388,-1.7569,-9.3412,-2.4136,0.0517,-0.0369,0.033,2.43,41.03,8.7,320.38,72.25,143.92,0.0,35.534,35.178192,126.90874,,155.843274515097,,151.96774,,1 / 17,24968,2014-12-14 14:53:02:036
-1.7452,-9.2334,-2.358,-1.7559,-9.3418,-2.4121,0.0146,-0.0044,0.0215,3.49,38.78,8.07,320.38,72.25,143.92,0.0,35.534,35.178192,126.90874,,155.843274515097,,151.96774,,1 / 17,25022,2014-12-14 14:53:02:090
-1.841,-9.1951,-2.4729,-1.7693,-9.3387,-2.4143,-0.0613,0.0475,-0.0179,3.18,40.28,6.39,349.33,72.29,143.95,0.0,35.534,35.178192,126.90874,,155.843274515097,,151.96774,,1 / 17,25068,2014-12-14 14:53:02:136
-1.6685,-9.2525,-2.3005,-1.765,-9.3454,-2.3912,0.0492,-0.0062,0.1075,3.18,39.15,8.07,330.29,72.24,143.69,0.0,35.534,35.178192,126.90874,,155.843274515097,,151.96774,,1 / 17,25118,2014-12-14 14:53:02:186
-1.6494,-9.2525,-2.3197,-1.7543,-9.3488,-2.386,0.0859,-0.0054,0.0151,2.43,38.03,9.57,330.29,72.24,143.69,0.0,35.534,35.178192,126.90874,,155.843274515097,,151.96774,,1 / 17,25168,2014-12-14 14:53:02:236
-1.726,-9.2334,-2.3005,-1.747,-9.3522,-2.3781,0.0302,-0.0142,0.0347,3.18,40.28,8.51,341.96,72.42,143.67,0.0,35.534,35.178192,126.90874,,155.843274515097,,151.96774,,1 / 17,25218,2014-12-14 14:53:02:286
-1.6877,-9.2525,-2.358,-1.7432,-9.3537,-2.3748,0.0355,0.0019,0.0288,2.8,39.53,7.64,331.06,72.49,143.7,0.0,35.534,35.178192,126.90874,,155.843274515097,,151.96774,,1 / 17,25267,2014-12-14 14:53:02:335
-1.726,-9.2717,-2.3197,-1.7375,-9.3561,-2.3697,0.0478,-0.0135,0.0416,2.43,40.59,7.64,331.06,72.49,143.7,0.0,30.535,35.178192,126.90874,,155.843274515097,,151.96774,,1 / 17,25318,2014-12-14 14:53:02:386
-1.7452,-9.2334,-2.3771,-1.7404,-9.3554,-2.3702,-0.0245,0.0073,-0.0454,2.43,40.28,6.01,330.82,72.56,143.75,0.0,30.535,35.178192,126.90874,,155.843274515097,,151.96774,,1 / 17,25367,2014-12-14 14:53:02:435
-1.8027,-9.2142,-2.358,-1.744,-9.3533,-2.3757,-0.0401,-0.0017,-0.03,3.87,41.03,9.14,325.98,72.55,143.71,0.0,30.535,35.178192,126.90874,,155.843274515097,,151.96774,,1 / 17,25418,2014-12-14 14:53:02:486
-1.7643,-9.2717,-2.358,-1.7514,-9.3513,-2.3783,-0.0354,0.0362,-0.0055,3.18,40.28,7.83,331.05,72.47,143.63,0.0,30.535,35.178192,126.90874,,155.843274515097,,151.96774,,1 / 17,25469,2014-12-14 14:53:02:537
-1.6685,-9.2717,-2.358,-1.742,-9.3532,-2.3778,0.0505,-0.0211,0.0149,3.49,40.65,7.14,331.05,72.47,143.63,0.0,30.535,35.178192,126.90874,,155.843274515097,,151.96774,,1 / 17,25519,2014-12-14 14:53:02:587
-1.7643,-9.2334,-2.3963,-1.7411,-9.3544,-2.3736,-0.0339,-0.006,-0.0012,3.18,40.65,7.33,341.81,72.54,143.78,0.0,30.535,35.178192,126.90874,,155.843274515097,,151.96774,,1 / 17,25568,2014-12-14 14:53:02:636
-1.7643,-9.2334,-2.4346,-1.7468,-9.3516,-2.3805,-0.0382,0.0164,-0.0576,3.87,40.65,6.89,348.98,72.48,143.73,0.0,30.535,35.178192,126.90874,,155.843274515097,,151.96774,,1 / 17,25618,2014-12-14 14:53:02:686
-1.8027,-9.2525,-2.3771,-1.7537,-9.3493,-2.3846,-0.0358,0.0038,-0.0438,3.18,39.9,6.64,348.98,72.48,143.73,0.0,48.074,35.178192,126.90874,,155.843274515097,,151.96774,,1 / 17,25668,2014-12-14 14:53:02:736
-1.7835,-9.2525,-2.358,-1.7612,-9.3475,-2.3861,-0.0484,0.0141,0.0274,4.24,39.9,8.89,348.23,72.43,143.67,0.0,48.074,35.178192,126.90874,,155.843274515097,,151.96774,,1 / 17,25718,2014-12-14 14:53:02:786
-1.6877,-9.2909,-2.2047,-1.7579,-9.3522,-2.3701,0.0565,-0.0515,0.0936,3.49,38.78,8.2,329.12,72.44,143.45,0.0,48.074,35.178192,126.90874,,155.843274515097,,151.96774,,1 / 17,25768,2014-12-14 14:53:02:836
-1.7835,-9.2525,-2.3963,-1.757,-9.3531,-2.3669,-0.0261,-0.0058,-0.0202,2.8,39.9,8.7,329.12,72.44,143.45,0.0,48.074,35.178192,126.90874,,155.843274515097,,151.96774,,1 / 17,25818,2014-12-14 14:53:02:886
-1.841,-9.1568,-2.607,-1.7781,-9.3386,-2.4082,-0.0982,0.0774,-0.2246,2.43,38.4,8.7,319.21,72.51,143.41,0.0,48.074,35.178192,126.90874,,155.843274515097,,151.96774,,1 / 17,25868,2014-12-14 14:53:02:936
-1.726,-9.2334,-2.3388,-1.7839,-9.3338,-2.4226,-0.0088,0.0055,-0.0201,2.43,39.53,9.14,318.23,72.23,143.56,0.0,48.074,35.178192,126.90874,,155.843274515097,,151.96774,,1 / 17,25918,2014-12-14 14:53:02:986
-1.726,-9.31,-2.243,-1.7782,-9.3391,-2.4062,0.0363,-0.058,0.1431,3.87,39.9,8.01,318.23,72.23,143.56,0.0,48.074,35.178192,126.90874,,155.843274515097,,151.96774,,1 / 17,25967,2014-12-14 14:53:03:035
-1.841,-9.1951,-2.3963,-1.78,-9.3411,-2.3969,-0.0766,0.037,-0.0309,3.49,41.03,7.39,325.02,72.24,143.54,0.0,40.924,35.178192,126.90874,,155.843274515097,,151.96774,,1 / 17,26018,2014-12-14 14:53:03:086
-1.7643,-9.2525,-2.3005,-1.7869,-9.3398,-2.397,-0.0047,0.0029,0.0283,4.24,37.71,7.95,333.89,72.28,143.4,0.0,40.924,35.178192,126.90874,,155.843274515097,,151.96774,,1 / 17,26067,2014-12-14 14:53:03:135
-1.726,-9.2525,-2.2813,-1.7805,-9.3438,-2.3862,0.0542,-0.0284,0.0914,3.18,40.96,6.95,333.89,72.28,143.4,0.0,40.924,35.178192,126.90874,,155.843274515097,,151.96774,,1 / 17,26118,2014-12-14 14:53:03:186
-1.7643,-9.2909,-2.3005,-1.7778,-9.347,-2.3757,-0.0024,-0.0417,0.0504,3.12,40.28,8.51,320.1,72.33,143.27,0.0,40.924,35.178192,126.90874,,155.843274515097,,151.96774,,1 / 17,26168,2014-12-14 14:53:03:236
-1.7452,-9.2334,-2.3005,-1.7743,-9.351,-2.3622,0.0047,0.0104,0.0424,3.49,40.65,8.07,332.22,72.44,143.15,0.0,40.924,35.178192,126.90874,,155.843274515097,,151.96774,,1 / 17,26218,2014-12-14 14:53:03:286
-1.7643,-9.2334,-2.2813,-1.7755,-9.3523,-2.3563,0.0066,0.0145,0.0472,3.49,40.28,7.83,332.22,72.44,143.15,0.0,40.924,35.178192,126.90874,,155.843274515097,,151.96774,,1 / 17,26268,2014-12-14 14:53:03:336
-1.7643,-9.2525,-2.3197,-1.776,-9.354,-2.3493,-0.0061,-0.0217,0.0509,2.43,41.03,7.95,311.93,72.49,143.0,0.0,40.924,35.178192,126.90874,,155.843274515097,,151.96774,,1 / 17,26318,2014-12-14 14:53:03:386
-1.8218,-9.2334,-2.243,-1.7851,-9.3534,-2.3446,-0.065,0.0161,0.038,2.8,38.78,8.64,315.91,72.52,142.82,0.0,41.633,35.178192,126.90874,,155.843274515097,,151.96774,,1 / 17,26368,2014-12-14 14:53:03:436
-1.8027,-9.2525,-2.3388,-1.7904,-9.3519,-2.3466,-0.0152,0.0128,-0.008,2.8,38.03,8.51,315.91,72.52,142.82,0.0,41.633,35.178192,126.90874,,155.843274515097,,151.96774,,1 / 17,26418,2014-12-14 14:53:03:486
-1.7835,-9.2525,-2.3005,-1.7932,-9.352,-2.3442,-0.0129,-0.0124,0.0252,2.43,39.53,6.95,334.53,72.48,142.66,0.0,41.633,35.178192,126.90874,,155.843274515097,,151.96774,,1 / 17,26468,2014-12-14 14:53:03:536
-1.7643,-9.2717,-2.3197,-1.7947,-9.3525,-2.3409,0.0057,-0.0054,0.0228,3.49,39.15,8.45,334.53,72.48,142.66,0.0,41.633,35.178192,126.90874,,155.843274515097,,151.96774,,1 / 17,26518,2014-12-14 14:53:03:586
-1.8218,-9.2334,-2.3388,-1.7946,-9.3525,-2.3409,-0.0023,-0.0105,0.0178,3.49,41.34,5.01,354.45,72.5,142.52,0.0,41.633,35.178192,126.90874,,155.843274515097,,151.96774,,1 / 17,26568,2014-12-14 14:53:03:636
-1.7835,-9.2525,-2.3197,-1.8022,-9.3521,-2.3367,-0.03,-0.0051,0.0297,3.49,39.53,7.14,339.21,72.49,142.36,0.0,41.633,35.178192,126.90874,,155.843274515097,,151.96774,,1 / 17,26618,2014-12-14 14:53:03:686
-1.8027,-9.2525,-2.3197,-1.806,-9.3513,-2.3371,-0.0337,-0.0023,-0.0332,2.8,38.78,8.51,339.21,72.49,142.36,0.0,41.633,35.178192,126.90874,,155.843274515097,,151.96774,,1 / 17,26668,2014-12-14 14:53:03:736
-1.8218,-9.2334,-2.2622,-1.8149,-9.3485,-2.3413,-0.0463,0.0126,-0.0122,3.87,41.03,7.83,336.55,72.47,142.3,0.0,32.491,35.178192,126.90874,,155.843274515097,,151.96774,,1 / 17,26718,2014-12-14 14:53:03:786
-1.7835,-9.2717,-2.2813,-1.8168,-9.3489,-2.3384,-0.0049,-0.0141,0.031,2.8,39.15,8.2,336.55,72.47,142.3,0.0,32.491,35.178192,126.90874,,155.843274515097,,151.96774,,1 / 17,26768,2014-12-14 14:53:03:836
-1.8027,-9.2334,-2.2813,-1.8104,-9.351,-2.3347,0.0452,-0.0287,0.0206,3.49,40.65,6.83,340.23,72.42,142.16,0.0,32.491,35.178192,126.90874,,155.843274515097,,151.96774,,1 / 17,26817,2014-12-14 14:53:03:885
-1.8218,-9.2334,-2.3005,-1.8123,-9.3507,-2.3345,-0.0278,0.0023,0.0123,3.49,39.53,7.26,339.07,72.46,142.18,0.0,32.491,35.178192,126.90874,,155.843274515097,,151.96774,,1 / 17,26868,2014-12-14 14:53:03:936
-1.726,-9.2525,-2.243,-1.8129,-9.3517,-2.3299,0.0219,-0.0039,0.0158,2.05,38.46,6.58,339.07,72.46,142.18,0.0,32.491,35.178192,126.90874,,155.843274515097,,151.96774,,1 / 17,26917,2014-12-14 14:53:03:985
-1.7643,-9.2525,-2.2813,-1.8086,-9.3535,-2.3264,0.0269,-0.0103,0.0247,3.49,38.4,8.07,311.51,72.48,142.11,0.0,32.491,35.178192,126.90874,,155.843274515097,,151.96774,,1 / 17,26968,2014-12-14 14:53:04:036
-1.8218,-9.2142,-2.3005,-1.811,-9.3528,-2.327,-0.0221,0.0062,-0.0424,2.8,41.03,7.26,339.95,72.52,142.13,0.0,70.005,35.178192,126.90874,,155.843274515097,,151.96774,,1 / 17,27018,2014-12-14 14:53:04:086
-1.7835,-9.2334,-2.2813,-1.8149,-9.3507,-2.3326,-0.0049,0.0051,-0.0145,2.43,37.71,8.95,311.39,72.5,142.11,0.0,70.005,35.178192,126.90874,,155.843274515097,,151.96774,,1 / 17,27068,2014-12-14 14:53:04:136
-1.7643,-9.2717,-2.2239,-1.8129,-9.3515,-2.3308,0.0191,-0.0063,0.0169,2.43,39.15,8.07,311.39,72.5,142.11,0.0,70.005,35.178192,126.90874,,155.843274515097,,151.96774,,1 / 17,27118,2014-12-14 14:53:04:186
-1.7069,-9.2717,-2.2813,-1.8054,-9.3538,-2.3275,0.0653,-0.0122,0.0125,4.24,39.53,7.76,334.52,72.48,142.12,0.0,70.005,35.178192,126.90874,,155.843274515097,,151.96774,,1 / 17,27168,2014-12-14 14:53:04:236
-1.726,-9.2717,-2.2239,-1.798,-9.3555,-2.3265,0.0158,-0.0021,0.038,3.12,38.78,6.83,337.74,72.54,142.26,0.0,70.005,35.178192,126.90874,,155.843274515097,,151.96774,,1 / 17,27218,2014-12-14 14:53:04:286
-1.7452,-9.2334,-2.3388,-1.7955,-9.3558,-2.3271,0.0175,-0.0012,-0.0167,2.05,41.4,7.83,337.74,72.54,142.26,0.0,70.005,35.178192,126.90874,,155.843274515097,,151.96774,,1 / 17,27268,2014-12-14 14:53:04:336
-1.7835,-9.2334,-2.358,-1.7938,-9.3546,-2.3334,-0.0047,0.0189,-0.0455,2.43,39.9,8.51,315.8,72.56,142.35,0.0,70.005,35.178192,126.90874,,155.843274515097,,151.96774,,1 / 17,27318,2014-12-14 14:53:04:386
-1.7643,-9.2525,-2.3005,-1.7987,-9.3531,-2.3356,-0.0281,0.0249,-0.0071,3.87,41.03,7.39,315.8,72.56,142.35,0.0,64.995,35.178192,126.90874,,155.843274515097,,151.96774,,1 / 17,27368,2014-12-14 14:53:04:436
-1.726,-9.2525,-2.3005,-1.7915,-9.3541,-2.3368,0.0457,-0.0179,-0.0056,3.49,40.28,7.08,339.21,72.51,142.4,0.0,64.995,35.178192,126.90874,,155.843274515097,,151.96774,,1 / 17,27418,2014-12-14 14:53:04:486
-1.726,-9.2525,-2.3388,-1.7826,-9.3571,-2.3318,0.0341,-0.0098,-0.0172,4.24,41.03,7.26,346.91,72.58,142.54,0.0,64.995,35.178192,126.90874,,155.843274515097,,151.96774,,1 / 17,27468,2014-12-14 14:53:04:536
-1.7452,-9.2334,-2.2622,-1.7882,-9.3541,-2.3393,-0.0133,-0.0075,0.0054,3.87,39.9,8.64,346.91,72.58,142.54,0.0,64.995,35.178192,126.90874,,155.843274515097,,151.96774,,1 / 17,27518,2014-12-14 14:53:04:586
-1.726,-9.2717,-2.3005,-1.7882,-9.3541,-2.3393,-0.0133,-0.0075,0.0054,3.49,39.9,7.51,338.19,72.53,142.6,0.0,64.995,35.178192,126.90874,,155.843274515097,,151.96774,,1 / 17,27568,2014-12-14 14:53:04:636
-1.7835,-9.2142,-2.3197,-1.784,-9.3556,-2.3369,-0.0436,0.026,-0.0445,3.49,40.28,7.7,329.31,72.59,142.63,0.0,64.995,35.178192,126.90874,,155.843274515097,,151.96774,,1 / 17,27618,2014-12-14 14:53:04:686
-1.7643,-9.2334,-2.3771,-1.7835,-9.3542,-2.3427,0.0118,-0.0019,-0.0304,3.12,39.9,8.01,329.31,72.59,142.63,0.0,64.995,35.178192,126.90874,,155.843274515097,,151.96774,,1 / 17,27668,2014-12-14 14:53:04:736
-1.7452,-9.2717,-2.3005,-1.7787,-9.3553,-2.3421,0.0167,-0.0212,0.0177,4.24,40.28,7.39,347.28,72.53,142.72,0.0,65.804,35.178192,126.90874,,155.843274515097,,151.96774,,1 / 17,27718,2014-12-14 14:53:04:786
-1.726,-9.2717,-2.3005,-1.7721,-9.3567,-2.3413,0.0167,-0.0212,0.0177,3.49,38.78,8.26,327.77,72.58,142.88,0.0,65.804,35.178192,126.90874,,155.843274515097,,151.96774,,1 / 17,27768,2014-12-14 14:53:04:836
-1.7643,-9.2525,-2.358,-1.7714,-9.3553,-2.3475,-0.0124,4.0E-4,-0.059,3.87,39.15,5.26,327.77,72.58,142.88,0.0,65.804,35.178192,126.90874,,155.843274515097,,151.96774,,1 / 17,27817,2014-12-14 14:53:04:885
-1.726,-9.2525,-2.3005,-1.7716,-9.3543,-2.3512,0.0216,0.0276,-0.0177,3.87,40.65,5.7,355.56,72.55,142.96,0.0,65.804,35.178192,126.90874,,155.843274515097,,151.96774,,1 / 17,27868,2014-12-14 14:53:04:936
-1.7835,-9.2717,-2.3771,-1.7696,-9.3547,-2.3511,-0.0024,-0.0088,0.0216,2.8,38.78,8.39,328.17,72.53,143.03,0.0,65.804,35.178192,126.90874,,155.843274515097,,151.96774,,1 / 17,27917,2014-12-14 14:53:04:985
-1.7643,-9.2334,-2.3771,-1.7702,-9.3543,-2.3526,0.0027,-0.0107,-0.0134,2.43,38.46,8.39,328.17,72.53,143.03,0.0,65.804,35.178192,126.90874,,155.843274515097,,151.96774,,1 / 17,27968,2014-12-14 14:53:05:036
-1.7452,-9.2525,-2.3963,-1.7734,-9.3516,-2.3609,-0.035,-0.0176,-0.0493,2.43,37.71,8.7,322.35,72.51,143.05,0.0,65.804,35.178192,126.90874,,155.843274515097,,151.96774,,1 / 17,28018,2014-12-14 14:53:05:086
-1.7643,-9.2334,-2.3963,-1.7773,-9.3498,-2.3648,-0.0417,1.0E-4,-0.0388,2.05,38.84,9.83,304.0,72.48,143.09,0.0,52.579,35.178192,126.90874,,155.843274515097,,151.96774,,1 / 17,28067,2014-12-14 14:53:05:135
-1.726,-9.2909,-2.3005,-1.7737,-9.3505,-2.3647,-0.0027,0.0056,0.0218,3.12,38.09,7.95,326.64,72.44,143.11,0.0,52.579,35.178192,126.90874,,155.843274515097,,151.96774,,1 / 17,28118,2014-12-14 14:53:05:186
-1.7643,-9.2525,-2.3771,-1.7782,-9.3498,-2.3641,-0.0625,0.0106,0.0082,2.05,36.59,9.08,326.64,72.44,143.11,0.0,52.579,35.178192,126.90874,,155.843274515097,,151.96774,,1 / 17,28167,2014-12-14 14:53:05:235
-1.6877,-9.2717,-2.2813,-1.7745,-9.3505,-2.3644,0.0877,-0.0225,0.0463,3.87,38.46,10.64,346.89,72.41,143.05,0.0,52.579,35.178192,126.90874,,155.843274515097,,151.96774,,1 / 17,28218,2014-12-14 14:53:05:286
-1.6494,-9.2717,-2.3388,-1.7577,-9.3549,-2.3593,0.1108,-0.0078,0.0329,0.93,36.59,8.01,318.23,72.46,143.11,0.0,52.579,35.178192,126.90874,,155.843274515097,,151.96774,,1 / 17,28268,2014-12-14 14:53:05:336
-1.6877,-9.2717,-2.3005,-1.7424,-9.3589,-2.3548,0.0458,-0.0161,0.0264,3.12,37.34,6.39,346.25,72.57,143.4,0.0,52.579,35.178192,126.90874,,155.843274515097,,151.96774,,1 / 17,28318,2014-12-14 14:53:05:386
-1.7452,-9.2334,-2.3388,-1.7441,-9.3582,-2.3563,-0.028,0.0037,-0.0262,2.8,36.21,8.07,346.25,72.57,143.4,0.0,56.483,35.178192,126.90874,,155.843274515097,,151.96774,,1 / 17,28368,2014-12-14 14:53:05:436
-1.8027,-9.2334,-2.358,-1.7579,-9.3538,-2.3638,-0.073,0.0335,-0.0028,3.49,37.34,6.39,346.37,72.57,143.48,0.0,56.483,35.178192,126.90874,,155.843274515097,,151.96774,,1 / 17,28418,2014-12-14 14:53:05:486
-1.8027,-9.2525,-2.3388,-1.7661,-9.3524,-2.3628,-0.0649,-0.004,0.0154,2.8,38.09,6.83,337.75,72.49,143.22,0.0,56.483,35.178192,126.90874,,155.843274515097,,151.96774,,1 / 17,28468,2014-12-14 14:53:05:536
-1.7452,-9.2334,-2.3005,-1.7736,-9.3517,-2.3603,-0.0024,0.0042,0.0234,3.12,37.71,5.51,337.75,72.49,143.22,0.0,56.483,35.178192,126.90874,,155.843274515097,,151.96774,,1 / 17,28518,2014-12-14 14:53:05:586
-1.7452,-9.2334,-2.3197,-1.7723,-9.3528,-2.3569,0.0136,-0.0109,0.021,3.12,38.46,5.45,354.15,72.48,143.08,0.0,56.483,35.178192,126.90874,,155.843274515097,,151.96774,,1 / 17,28568,2014-12-14 14:53:05:636
-1.7452,-9.2334,-2.3388,-1.7723,-9.3525,-2.3582,0.0078,0.0041,0.0025,1.3,35.15,5.95,332.46,72.5,143.07,0.0,56.483,35.178192,126.90874,,155.843274515097,,151.96774,,1 / 17,28618,2014-12-14 14:53:05:686
-1.726,-9.2717,-2.3963,-1.7703,-9.3535,-2.3554,-0.0031,-0.0105,0.0137,2.74,36.59,5.7,332.46,72.5,143.07,0.0,56.483,35.178192,126.90874,,155.843274515097,,151.96774,,1 / 17,28668,2014-12-14 14:53:05:736
-1.7452,-9.2525,-2.3197,-1.7681,-9.3534,-2.3574,0.0037,-0.0076,-0.0085,2.74,37.71,9.57,334.38,72.51,143.11,0.0,51.422,35.178192,126.90874,,155.843274515097,,151.96774,,1 / 17,28718,2014-12-14 14:53:05:786
-1.726,-9.2334,-2.3771,-1.7648,-9.3531,-2.3613,0.0399,-0.0057,-0.0348,1.3,34.78,8.51,303.78,72.51,143.13,0.0,51.422,35.178192,126.90874,,155.843274515097,,151.96774,,1 / 17,28767,2014-12-14 14:53:05:835
-1.726,-9.2334,-2.358,-1.7601,-9.3532,-2.3645,0.0342,-0.01,-0.0111,2.43,39.15,8.07,324.55,72.5,143.26,0.0,51.422,35.178192,126.90874,,155.843274515097,,151.96774,,1 / 17,28818,2014-12-14 14:53:05:886
-1.7069,-9.2525,-2.3388,-1.7569,-9.3535,-2.3654,0.0448,-0.0022,-0.0111,2.05,36.96,7.26,324.55,72.5,143.26,0.0,51.422,35.178192,126.90874,,155.843274515097,,151.96774,,1 / 17,28868,2014-12-14 14:53:05:936
-1.7069,-9.2717,-2.3388,-1.7498,-9.3544,-2.3671,0.0341,-0.0109,0.0284,1.68,36.59,9.39,309.39,72.52,143.4,0.0,51.422,35.178192,126.90874,,155.843274515097,,151.96774,,1 / 17,28918,2014-12-14 14:53:05:986
-1.7069,-9.2909,-2.3005,-1.7477,-9.3553,-2.3652,0.028,-0.0187,0.0253,3.12,35.84,8.51,306.72,72.55,143.54,0.0,51.422,35.178192,126.90874,,155.843274515097,,151.96774,,1 / 17,28968,2014-12-14 14:53:06:036
-1.7452,-9.2525,-2.3197,-1.7415,-9.3574,-2.3616,0.0428,-0.0101,0.0135,1.68,36.59,9.39,306.72,72.55,143.54,0.0,55.587,35.178192,126.90874,,155.843274515097,,151.96774,,1 / 17,29017,2014-12-14 14:53:06:085
-1.7452,-9.2717,-2.2813,-1.7403,-9.359,-2.3562,-0.0082,-0.0045,0.0345,2.43,36.59,10.26,311.71,72.59,143.59,0.0,55.587,35.178192,126.90874,,155.843274515097,,151.96774,,1 / 17,29068,2014-12-14 14:53:06:136
-1.7452,-9.2525,-2.2622,-1.743,-9.3596,-2.3515,-0.0081,-0.0066,0.004,1.3,36.21,9.39,305.76,72.63,143.54,0.0,55.587,35.178192,126.90874,,155.843274515097,,151.96774,,1 / 17,29117,2014-12-14 14:53:06:185
-1.726,-9.2525,-2.3005,-1.7454,-9.3597,-2.3494,-0.0204,0.0014,0.0157,2.05,37.34,10.26,305.76,72.63,143.54,0.0,55.587,35.178192,126.90874,,155.843274515097,,151.96774,,1 / 17,29168,2014-12-14 14:53:06:236
-1.8027,-9.2525,-2.358,-1.7565,-9.3552,-2.3589,-0.057,0.0091,-0.0425,2.43,38.46,10.26,300.38,72.62,143.38,0.0,55.587,35.178192,126.90874,,155.843274515097,,151.96774,,1 / 17,29218,2014-12-14 14:53:06:286
-1.7452,-9.2525,-2.2813,-1.7614,-9.3537,-2.3615,-0.0301,-0.0028,-0.006,1.3,37.34,9.08,308.66,72.52,143.28,0.0,55.587,35.178192,126.90874,,155.843274515097,,151.96774,,1 / 17,29267,2014-12-14 14:53:06:335
-1.7452,-9.2525,-2.3005,-1.7619,-9.3538,-2.3607,-0.0109,-0.0152,0.0077,2.05,36.21,9.51,308.66,72.52,143.28,0.0,55.587,35.178192,126.90874,,155.843274515097,,151.96774,,1 / 17,29318,2014-12-14 14:53:06:386
-1.6877,-9.2717,-2.2813,-1.7618,-9.3541,-2.3593,0.0314,-0.0075,0.0363,2.05,37.34,10.33,320.52,72.51,143.25,0.0,60.441,35.178192,126.90874,,155.843274515097,,151.96774,,1 / 17,29368,2014-12-14 14:53:06:436
