sep=;
ACCELEROMETER X (m/s²);ACCELEROMETER Y (m/s²);ACCELEROMETER Z (m/s²);GRAVITY X (m/s²);GRAVITY Y (m/s²);GRAVITY Z (m/s²);LINEAR ACCELERATION X (m/s²);LINEAR ACCELERATION Y (m/s²);LINEAR ACCELERATION Z (m/s²);GYROSCOPE X (rad/s);GYROSCOPE Y (rad/s);GYROSCOPE Z (rad/s);LIGHT (lux);MAGNETIC FIELD X (μT);MAGNETIC FIELD Y (μT);MAGNETIC FIELD Z (μT);ORIENTATION X (°);ORIENTATION Y (°);ORIENTATION Z (°);PROXIMITY (i);ATMOSPHERIC PRESSURE (hPa);SOUND LEVEL (dB);LOCATION Latitude : ;LOCATION Longitude : ;LOCATION Altitude ( m);LOCATION Speed ( Kmh);LOCATION Accuracy ( m);Satellites in range;Temperature (F);Level (%);Voltage (Volt);Time since start in ms ;YYYY-MO-DD HH-MI-SS_SSS
0.057461;-9.662998;0.086191;0.278573;-9.767644;0.828202;-0.221113;0.104646;-0.74201;0.031765;0.093768;-0.008552;335.0;-25.86;44.88;-10.86;124.6916;84.888;-18.5909;0.0;1017.81;44.21547;;;;;;0 / 0;85.8;45.0;3.667;17;2014-11-17 16:55:51:935
0.057461;-9.586384;0.775721;0.323019;-9.767144;0.817891;-0.265558;0.18076;-0.042169;-0.102014;-0.068417;-0.117592;335.0;-25.92;44.82;-11.16;127.8767;84.8554;-21.5511;0.0;1017.81;44.21547;;;;;;0 / 0;85.8;45.0;3.667;68;2014-11-17 16:55:51:986
0.411803;-9.691728;1.273715;0.430716;-9.767528;0.761773;-0.018913;0.075799;0.511942;-0.128587;0.092241;-0.104763;336.0;-25.92;44.82;-11.52;127.8767;84.8554;-21.5511;0.0;1017.82;44.21547;;;;;;0 / 0;85.8;45.0;3.667;124;2014-11-17 16:55:52:042
0.584185;-9.873688;1.857901;0.532227;-9.7644;0.737301;0.051958;-0.109287;1.1206;-0.111483;0.078802;-0.114843;332.0;-26.22;44.64;-11.7;138.8413;84.8804;-29.4843;0.0;1017.82;44.21547;;;;;;0 / 0;85.8;45.0;3.667;199;2014-11-17 16:55:52:117
-0.114922;-9.720458;2.30801;0.618835;-9.760706;0.718362;-0.733756;0.040247;1.589649;-0.079718;0.246179;-0.074526;329.0;-26.58;44.52;-11.4;148.284;84.4517;-40.7433;0.0;1017.82;44.93733;;;;;;0 / 0;85.8;45.0;3.667;254;2014-11-17 16:55:52:172
-1.120486;-10.850522;4.041412;0.619953;-9.753818;0.805675;-1.740439;-1.096704;3.235737;0.313068;0.096211;0.146913;336.0;-26.64;44.1;-10.74;144.3572;84.0499;-37.5777;0.0;1017.77;44.93733;;;;;;0 / 0;85.8;45.0;3.667;313;2014-11-17 16:55:52:231
0.555455;-9.921572;2.03986;0.526977;-9.728812;1.114842;0.028478;-0.192759;0.925018;0.967611;0.101404;0.398284;340.0;-26.52;43.8;-10.74;144.3572;84.0499;-37.5777;0.0;1017.77;44.93733;;;;;;0 / 0;85.8;45.0;3.667;376;2014-11-17 16:55:52:294
0.833182;-10.218452;1.168371;0.365146;-9.654494;1.681606;0.468036;-0.563957;-0.513235;1.042442;-0.413556;0.445015;349.0;-26.16;43.44;-11.64;131.7083;82.7763;-25.2997;0.0;1017.77;44.93733;;;;;;0 / 0;85.8;45.0;3.667;427;2014-11-17 16:55:52:345
-0.287304;-8.255207;0.459687;0.167578;-9.55768;2.189308;-0.454882;1.302473;-1.729621;0.609338;0.152716;0.482889;347.0;-25.2;41.82;-13.02;102.0028;77.0618;-4.3771;0.0;1017.76;44.93733;;;;;;0 / 0;85.8;45.0;3.667;489;2014-11-17 16:55:52:407
-0.009577;-8.590396;1.80044;-0.061427;-9.486358;2.485078;0.05185;0.895963;-0.684638;0.386067;-0.466701;0.443183;349.0;-24.36;40.08;-13.32;94.3711;75.3162;1.416;0.0;1017.76;44.93733;;;;;;0 / 0;85.8;45.0;3.667;548;2014-11-17 16:55:52:466
-0.574608;-8.973468;2.355895;-0.217043;-9.426086;2.696695;-0.357565;0.452619;-0.340801;0.217468;-0.290772;0.403782;345.0;-23.88;40.02;-12.96;94.3711;75.3162;1.416;0.0;1017.76;56.16754;;;;;;0 / 0;85.8;45.0;3.667;608;2014-11-17 16:55:52:526
0.153229;-8.465898;3.265691;-0.285279;-9.385836;2.827559;0.438508;0.919939;0.438132;-0.060781;-0.46609;0.191201;320.0;-23.34;39.78;-10.8;82.2984;73.4814;6.1545;0.0;1017.81;56.16754;;;;;;0 / 0;85.8;45.0;3.667;709;2014-11-17 16:55:52:627
-1.005565;-8.504204;2.786851;-0.327475;-9.417692;2.714818;-0.67809;0.913488;0.072033;-0.174097;-0.417526;0.146913;307.0;-23.58;39.12;-9.06;78.5284;73.8089;6.8781;0.0;1017.81;56.16754;;;;;;0 / 0;85.8;45.0;3.667;783;2014-11-17 16:55:52:701
-0.057461;-8.829816;2.365471;-0.305793;-9.447226;2.612808;0.248332;0.617412;-0.247337;-0.317955;-0.551;0.191812;300.0;-24.36;38.16;-7.02;78.5284;73.8089;6.8781;0.0;1017.81;56.16754;;;;;;0 / 0;85.8;45.0;3.667;843;2014-11-17 16:55:52:761
0.047884;-8.820238;2.94008;-0.273583;-9.515582;2.355684;0.321467;0.695343;0.584396;-0.554666;-0.654542;0.144164;274.0;-24.66;38.28;-5.34;72.0975;74.4398;6.6753;0.0;1017.81;56.16754;;;;;;0 / 0;85.8;45.0;3.667;899;2014-11-17 16:55:52:817
1.714248;-12.880804;0.258574;-0.161197;-9.616354;1.915761;1.875445;-3.26445;-1.657187;-1.533883;-0.640798;-0.211359;266.0;-25.38;38.22;-1.86;73.2443;78.6943;4.8097;0.0;1017.81;51.18288;;;;;;0 / 0;85.8;45.0;3.667;963;2014-11-17 16:55:52:881
-0.373495;-10.620678;2.06859;0.035782;-9.726588;1.250036;-0.409277;-0.894091;0.818554;-0.427606;-1.886963;0.050091;241.0;-26.58;37.86;3.9;73.4672;82.6737;-1.6396;0.0;1017.8;51.18288;;;;;;0 / 0;85.8;45.0;3.667;1032;2014-11-17 16:55:52:950
4.52983;-6.358999;-4.022259;0.16323;-9.770796;0.821778;4.3666;3.411796;-4.844036;-1.064738;0.936151;0.527788;235.0;-27.12;37.26;6.72;73.4672;82.6737;-1.6396;0.0;1017.8;51.18288;;;;;;0 / 0;85.8;45.0;3.667;1089;2014-11-17 16:55:53:007
-0.421379;-10.381258;-1.369483;0.104784;-9.806076;0.016757;-0.526163;-0.575182;-1.38624;-1.134682;0.422719;0.005803;227.0;-27.42;36.72;9.3;76.6219;85.099;-11.2344;0.0;1017.8;51.18288;;;;;;0 / 0;85.8;45.0;3.667;1147;2014-11-17 16:55:53:065
0.45011;-9.107542;-3.696647;0.13424;-9.781044;-0.695385;0.31587;0.673502;-3.001262;-1.091311;-0.075747;-0.018021;227.0;-27.48;35.46;12.78;237.5196;85.8585;-169.0737;0.0;1017.84;51.18288;;;;;;0 / 0;85.8;45.0;3.667;1204;2014-11-17 16:55:53:122
0.794875;-10.31422;-1.886631;0.19603;-9.705964;-1.3879;0.598845;-0.608257;-0.49873;-1.465771;0.890031;0.025351;223.0;-27.42;34.5;15.9;239.5261;81.7825;-171.9606;0.0;1017.84;51.18288;;;;;;0 / 0;85.8;45.0;3.667;1274;2014-11-17 16:55:53:192
-0.584185;-9.35654;-2.106897;0.272434;-9.571716;-2.116235;-0.856619;0.215176;0.009338;-0.700968;0.837191;0.221133;219.0;-27.48;34.38;16.92;239.5261;81.7825;-171.9606;0.0;1017.84;63.21079;;;;;;0 / 0;85.8;45.0;3.667;1340;2014-11-17 16:55:53:258
-0.976834;-9.979032;-1.273715;0.264192;-9.489902;-2.458123;-1.241026;-0.489131;1.184408;-0.553444;1.067182;0.195782;223.0;-27.96;33.6;17.7;241.3192;77.4332;-172.6644;0.0;1017.8;63.21079;;;;;;0 / 0;85.8;45.0;3.667;1408;2014-11-17 16:55:53:326
1.13964;-8.743624;-2.566584;0.466208;-9.319674;-3.016073;0.673432;0.576051;0.449489;-0.530842;0.565967;0.050396;233.0;-27.24;32.76;17.64;245.8699;73.7433;-173.0872;0.0;1017.8;63.21079;;;;;;0 / 0;85.8;45.0;3.667;1480;2014-11-17 16:55:53:398
-1.187524;-9.672574;-2.576161;0.666993;-9.173164;-3.402725;-1.854517;-0.49941;0.826564;-0.869567;0.519541;-0.271835;233.0;-27.6;32.4;17.7;246.1617;71.8681;-171.2131;0.0;1017.8;63.21079;;;;;;0 / 0;85.8;45.0;3.667;1535;2014-11-17 16:55:53:453
0.670377;-9.768342;-2.355894;0.861051;-9.002778;-3.791963;-0.190674;-0.765564;1.436069;-0.805731;0.425773;-0.184176;231.0;-28.8;30.48;18.36;245.9917;69.2933;-168.9096;0.0;1017.78;63.21079;;;;;;0 / 0;85.8;45.0;3.667;1597;2014-11-17 16:55:53:515
0.670377;-9.768342;-2.355894;0.861051;-9.002778;-3.791963;-0.190674;-0.765564;1.436069;-0.551306;0.903775;0.021991;230.0;-29.28;29.4;18.36;245.9917;69.2933;-168.9096;0.0;1017.78;63.21079;;;;;;0 / 0;85.8;45.0;3.667;1648;2014-11-17 16:55:53:566
-3.964798;-11.597512;3.457227;0.983904;-9.008696;-3.747769;-4.948701;-2.588817;7.204996;0.346361;0.758695;0.285274;241.0;-29.52;27.36;17.94;246.5694;65.4768;-166.2468;0.0;1017.78;58.68262;;;;;;0 / 0;85.8;45.0;3.667;1725;2014-11-17 16:55:53:643
3.62961;-12.526464;-1.493982;0.820288;-9.378662;-2.745581;2.809322;-3.1478;1.251599;2.190563;0.542754;0.914465;251.0;-30.18;26.64;17.34;245.1586;66.7268;-165.2901;0.0;1017.83;58.68262;;;;;;0 / 0;85.8;45.0;3.667;1776;2014-11-17 16:55:53:694
2.432509;-13.94383;-3.801992;0.438295;-9.716012;-1.255929;1.994214;-4.227817;-2.546063;2.443766;0.628275;0.886671;266.0;-31.02;25.74;16.26;245.1586;66.7268;-165.2901;0.0;1017.83;58.68262;;;;;;0 / 0;85.8;45.0;3.667;1839;2014-11-17 16:55:53:757
-0.833182;-11.415554;-2.528277;-0.057402;-9.805794;0.116159;-0.77578;-1.60976;-2.644436;2.326786;0.867734;0.928821;324.0;-32.52;25.8;14.46;230.339;82.2041;-160.762;0.0;1017.83;58.68262;;;;;;0 / 0;85.8;45.0;3.667;1895;2014-11-17 16:55:53:813
1.522712;-7.776367;-2.336741;-0.408522;-9.675362;1.546248;1.931234;1.898995;-3.882988;2.415361;-1.155757;0.762971;364.0;-31.98;26.64;13.8;39.7022;89.2428;26.297;0.0;1017.86;58.68262;;;;;;0 / 0;85.8;45.0;3.667;1964;2014-11-17 16:55:53:882
0.986411;-6.406883;-3.035848;-0.624493;-9.449328;2.547665;1.610904;3.042445;-5.583512;1.663997;-0.810313;0.67409;380.0;-31.5;27.96;13.38;39.7022;89.2428;26.297;0.0;1017.86;58.68262;;;;;;0 / 0;85.8;45.0;3.667;2015;2014-11-17 16:55:53:933
0.881066;-6.062118;-0.881066;-0.798527;-9.244208;3.174485;1.679593;3.18209;-4.055551;1.206153;-0.802677;0.683864;362.0;-29.7;32.46;11.82;43.6075;74.4856;13.773;0.0;1017.81;64.17278;;;;;;0 / 0;85.8;45.0;3.667;2088;2014-11-17 16:55:54:006
0.220267;-6.157887;1.063026;-0.881811;-9.234852;3.179668;1.102078;3.076965;-2.116642;-0.213192;-0.117286;0.242819;354.0;-29.1;34.2;10.98;42.1832;70.5009;14.1195;0.0;1017.81;64.17278;;;;;;0 / 0;85.8;45.0;3.667;2151;2014-11-17 16:55:54:069
-2.422932;-12.35408;10.35253;-0.750807;-9.308012;2.994587;-1.672125;-3.046068;7.357942;-0.623083;-0.859487;-0.341474;321.0;-28.26;36.12;11.52;40.0439;71.6504;14.0751;0.0;1017.81;64.17278;;;;;;0 / 0;85.8;45.0;3.667;2233;2014-11-17 16:55:54:151
-1.302446;-9.557652;6.799533;-0.49866;-9.314448;3.027005;-0.803785;-0.243205;3.772528;-0.139277;-0.209527;0.12034;307.0;-27.96;37.92;14.46;40.8383;71.7702;9.3547;0.0;1017.82;64.17278;;;;;;0 / 0;85.8;45.0;3.667;2302;2014-11-17 16:55:54:220
-1.790863;-18.119318;3.131616;-0.441578;-9.30831;3.054631;-1.349285;-8.811008;0.076985;-0.154243;-0.142942;0.189674;291.0;-27.3;39.96;15.72;37.9881;71.6559;8.2257;0.0;1017.82;64.17278;;;;;;0 / 0;85.8;45.0;3.667;2359;2014-11-17 16:55:54:277
5.439626;-1.819593;-5.765238;0.334565;-9.796596;0.291776;5.105061;7.977004;-6.057013;-0.280998;-1.94866;0.573908;266.0;-26.34;40.8;16.14;37.9881;71.6559;8.2257;0.0;1017.82;63.40738;;;;;;0 / 0;85.8;45.0;3.667;2418;2014-11-17 16:55:54:336
-1.455675;-13.627796;-1.503559;0.202019;-9.804564;-0.006615;-1.657694;-3.823231;-1.496944;-1.415069;0.329562;-0.520152;252.0;-24.36;42.3;17.52;146.7547;88.8192;-91.8755;0.0;1017.76;63.40738;;;;;;0 / 0;85.8;45.0;3.667;2478;2014-11-17 16:55:54:396
-1.503559;-7.460332;-3.074155;0.01256;-9.802284;-0.29229;-1.516119;2.341953;-2.781865;-1.173472;-0.150273;0.043982;255.0;-23.82;42.72;19.02;231.0526;88.2904;-177.5393;0.0;1017.76;63.40738;;;;;;0 / 0;85.8;45.0;3.667;2552;2014-11-17 16:55:54:470
-0.555455;-9.270348;-0.517148;-0.065423;-9.796792;-0.434728;-0.490031;0.526444;-0.08242;-1.682323;0.428522;-0.084299;233.0;-24.12;42.78;23.22;231.4147;87.7187;179.8272;0.0;1017.82;63.40738;;;;;;0 / 0;85.8;45.0;3.667;2635;2014-11-17 16:55:54:553
-0.871489;-9.050082;-1.292869;-0.133814;-9.794326;-0.472933;-0.737676;0.744245;-0.819936;-0.855822;0.415083;-0.13042;233.0;-24.66;42.24;26.28;242.6797;87.1272;164.2014;0.0;1017.82;63.40738;;;;;;0 / 0;85.8;45.0;3.667;2708;2014-11-17 16:55:54:626
0.459687;-8.590396;-3.964798;-0.078363;-9.770574;-0.836753;0.53805;1.180178;-3.128044;-0.966389;0.225715;-0.142942;227.0;-25.56;41.16;28.74;231.3821;85.0838;174.6498;0.0;1017.82;63.40738;;;;;;0 / 0;85.8;45.0;3.667;2759;2014-11-17 16:55:54:677
1.733402;-9.749188;-1.513135;0.116036;-9.758554;-0.963089;1.617366;0.009364;-0.550046;-1.37353;0.388205;-0.199753;227.0;-25.8;40.5;30.12;231.3821;85.0838;174.6498;0.0;1017.82;63.27509;;;;;;0 / 0;85.8;45.0;3.667;2837;2014-11-17 16:55:54:755
-0.430956;-10.505756;-3.093309;-0.090146;-9.728488;-1.232379;-0.34081;-0.777268;-1.86093;-0.877508;0.535118;-0.186925;216.0;-27.36;39.18;32.4;216.6;84.3231;-173.1299;0.0;1017.82;63.27509;;;;;;0 / 0;85.8;45.0;3.667;2916;2014-11-17 16:55:54:834
-2.059013;-12.53604;-1.80044;-0.272141;-9.723146;-1.247688;-1.786872;-2.812893;-0.552751;-0.684474;1.034195;0.074831;224.0;-28.2;38.28;33.48;229.7164;82.7613;175.8164;0.0;1017.79;63.27509;;;;;;0 / 0;85.8;45.0;3.667;2989;2014-11-17 16:55:54:907
-3.131616;-10.572794;0.92895;-0.591946;-9.743556;-0.939761;-2.53967;-0.829239;1.868712;0.06689;0.981966;0.435242;241.0;-27.72;38.28;31.8;238.4648;82.5177;167.6956;0.0;1017.79;63.27509;;;;;;0 / 0;85.8;45.0;3.667;3051;2014-11-17 16:55:54:969
4.491523;-11.951854;0.143652;-0.164799;-9.783198;-0.657499;4.656321;-2.168656;0.801151;2.224771;0.133169;1.115135;252.0;-24.0;39.96;26.16;259.5075;83.497;147.7936;0.0;1017.79;63.27509;;;;;;0 / 0;85.8;45.0;3.667;3121;2014-11-17 16:55:55:039
4.060566;-13.005302;-3.907337;0.226123;-9.76856;-0.833367;3.834443;-3.236743;-3.07397;2.720488;0.419664;0.988685;292.0;-21.0;40.62;21.66;212.2199;84.9485;-164.8191;0.0;1017.85;63.82024;;;;;;0 / 0;85.8;45.0;3.667;3179;2014-11-17 16:55:55:097
-0.507571;-11.731588;-3.102885;0.155301;-9.753714;-1.005653;-0.662872;-1.977874;-2.097232;2.588236;-0.047953;0.89339;328.0;-16.62;40.62;15.72;212.2199;84.9485;-164.8191;0.0;1017.85;63.82024;;;;;;0 / 0;85.8;45.0;3.667;3239;2014-11-17 16:55:55:157
-0.612916;-8.619126;-2.403778;0.075617;-9.738828;-1.148862;-0.688533;1.119702;-1.254916;2.483473;-0.370795;0.897666;360.0;-9.42;36.96;5.34;235.586;84.0441;-171.2213;0.0;1017.85;63.82024;;;;;;0 / 0;85.8;45.0;3.667;3302;2014-11-17 16:55:55:220
0.948104;-7.31668;-2.75812;0.157758;-9.705532;-1.395755;0.790346;2.388852;-1.362365;1.381777;-1.505172;0.696386;338.0;-5.64;30.9;0.66;282.7701;83.2576;-176.2343;0.0;1017.83;63.82024;;;;;;0 / 0;85.8;45.0;3.667;3376;2014-11-17 16:55:55:294
0.775721;-6.789956;-0.593762;0.227752;-9.697864;-1.438744;0.547969;2.907908;0.844982;0.123395;-0.153022;0.573908;299.0;-5.04;26.28;0.54;304.4356;81.4578;-171.0048;0.0;1017.83;63.82024;;;;;;0 / 0;85.8;45.0;3.667;3444;2014-11-17 16:55:55:362
-0.402226;-6.291962;0.890643;0.206517;-9.714478;-1.325387;-0.608743;3.422517;2.21603;-0.502131;-0.118202;0.308487;296.0;-4.92;24.84;1.44;289.3217;82.1383;-171.1436;0.0;1017.83;63.82024;;;;;;0 / 0;85.8;45.0;3.667;3496;2014-11-17 16:55:55:414
-1.40779;-10.94629;9.548078;0.062148;-9.802726;-0.270377;-1.469938;-1.143564;9.818454;-0.707993;0.053451;0.045204;292.0;-3.96;22.68;2.88;289.3217;82.1383;-171.1436;0.0;1017.78;60.90035;;;;;;0 / 0;85.8;45.0;3.667;3551;2014-11-17 16:55:55:469
-2.384625;-9.911994;6.684612;-0.172609;-9.791372;0.519267;-2.212016;-0.120623;6.165345;-0.25748;-0.688751;0.156076;274.0;-3.72;21.54;4.08;21.9832;86.8013;18.3873;0.0;1017.78;60.90035;;;;;;0 / 0;85.8;45.0;3.667;3607;2014-11-17 16:55:55:525
-3.667917;-7.31668;-2.834735;-0.54184;-9.78983;0.189693;-3.126077;2.473151;-3.024428;0.315206;-1.722029;-0.006109;263.0;-3.54;19.08;7.26;323.6822;86.6439;70.7054;0.0;1017.78;60.90035;;;;;;0 / 0;85.8;45.0;3.667;3671;2014-11-17 16:55:55:589
-0.6608;-15.782578;1.704672;-0.50023;-9.791274;0.226039;-0.16057;-5.991302;1.478633;-0.625221;-0.754113;-0.093157;241.0;-3.96;17.58;9.36;323.6822;86.6439;70.7054;0.0;1017.82;60.90035;;;;;;0 / 0;85.8;45.0;3.667;3727;2014-11-17 16:55:55:645
8.973468;-5.861006;-4.61602;0.368613;-9.795268;-0.295368;8.604856;3.934263;-4.320652;-1.659721;-0.228769;-0.21197;234.0;-4.14;14.76;15.42;315.551;86.7912;65.6832;0.0;1017.82;60.90035;;;;;;0 / 0;85.8;45.0;3.667;3798;2014-11-17 16:55:55:716
-3.275268;-11.60709;-0.469264;0.360185;-9.715754;-1.282479;-3.635453;-1.891335;0.813216;-1.963015;0.460287;-0.491136;227.0;-4.2;13.26;19.26;175.7787;82.193;-164.3126;0.0;1017.82;60.90035;;;;;;0 / 0;85.8;45.0;3.667;3856;2014-11-17 16:55:55:774
0.842759;-8.801084;-1.570596;0.546992;-9.541098;-2.199696;0.295767;0.740012;0.6291;-1.445918;0.566883;0.06353;224.0;-3.9;12.6;21.12;175.7787;82.193;-164.3126;0.0;1017.86;64.19496;;;;;;0 / 0;85.8;45.0;3.667;3924;2014-11-17 16:55:55:842
-0.852336;-9.816226;-0.45011;0.651037;-9.350826;-2.882457;-1.503372;-0.4654;2.432347;-1.156979;1.333519;0.070555;224.0;-3.96;11.04;22.92;175.69;76.636;-166.0357;0.0;1017.86;64.19496;;;;;;0 / 0;85.8;45.0;3.667;3978;2014-11-17 16:55:55:896
-0.699107;-9.021352;-1.426944;0.854445;-9.176846;-3.350493;-1.553552;0.155496;1.923549;-0.93554;1.059546;-0.043371;222.0;-4.02;10.26;23.64;173.8793;69.3542;-165.6933;0.0;1017.86;64.19496;;;;;;0 / 0;85.8;45.0;3.667;4030;2014-11-17 16:55:55:948
-0.976834;-9.289502;-1.771709;1.075157;-8.979412;-3.792703;-2.051991;-0.31009;2.020994;-0.994794;0.26145;-0.147829;222.0;-4.8;8.76;24.6;174.1668;66.2975;-164.173;0.0;1017.77;64.19496;;;;;;0 / 0;85.8;45.0;3.667;4090;2014-11-17 16:55:56:008
1.637634;-9.222464;-1.235408;1.261076;-8.758824;-4.226467;0.376558;-0.463639;2.991059;-1.078483;0.2474;-0.176235;219.0;-5.28;7.8;25.08;174.1668;66.2975;-164.173;0.0;1017.77;64.19496;;;;;;0 / 0;85.8;45.0;3.667;4143;2014-11-17 16:55:56:061
-1.781286;-9.576806;-2.298433;1.433413;-8.507224;-4.662925;-3.214699;-1.069582;2.364492;-0.970665;0.470366;-0.313068;213.0;-5.88;5.22;25.92;175.956;63.272;-163.3862;0.0;1017.77;64.19496;;;;;;0 / 0;85.8;45.0;3.667;4208;2014-11-17 16:55:56:126
0.42138;-10.160992;-2.99754;1.672216;-8.26636;-5.004138;-1.250836;-1.894631;2.006598;-0.738842;0.336587;-0.010996;213.0;-5.94;3.54;26.64;172.2401;57.4513;-161.5221;0.0;1017.77;64.19496;;;;;;0 / 0;85.8;45.0;3.667;4270;2014-11-17 16:55:56:188
0.02873;-11.080364;-1.225831;1.774226;-8.16615;-5.131914;-1.745495;-2.914215;3.906083;-0.654237;1.220814;0.027489;213.0;-6.3;1.74;27.3;172.2401;57.4513;-161.5221;0.0;1017.77;62.69692;;;;;;0 / 0;85.8;45.0;3.667;4326;2014-11-17 16:55:56:244
-4.577713;-12.62223;0.679953;1.927149;-8.230032;-4.972229;-6.504863;-4.392199;5.652182;-0.040317;1.246471;0.104458;230.0;-8.1;-0.96;28.62;173.9601;56.3787;-160.9285;0.0;1017.77;62.69692;;;;;;0 / 0;85.8;45.0;3.667;4384;2014-11-17 16:55:56:302
4.424485;-11.022904;1.819593;1.961522;-8.67099;-4.139657;2.462963;-2.351913;5.959251;2.19545;0.281914;1.135599;241.0;-9.72;-2.22;29.58;176.8525;57.0589;-158.8145;0.0;1017.89;62.69692;;;;;;0 / 0;85.8;45.0;3.667;4447;2014-11-17 16:55:56:365
4.874595;-13.70441;-4.395754;1.50874;-9.30669;-2.698078;3.365855;-4.39772;-1.697676;2.661235;0.814894;0.962418;258.0;-15.78;-2.34;33.78;175.8462;71.6258;-150.7865;0.0;1017.89;62.69692;;;;;;0 / 0;85.8;45.0;3.667;4520;2014-11-17 16:55:56:438
0.430956;-12.708422;-2.557007;1.078677;-9.679702;-1.14465;-0.647721;-3.028721;-1.412357;2.652072;0.097738;0.861015;288.0;-24.12;3.66;37.26;169.381;80.7709;-136.6996;0.0;1017.89;62.69692;;;;;;0 / 0;85.8;45.0;3.667;4585;2014-11-17 16:55:56:503
0.90022;-8.887276;-2.202665;0.619134;-9.781062;0.343279;0.281086;0.893786;-2.545945;2.269364;-0.404087;0.597426;327.0;-27.48;9.0;37.38;169.381;80.7709;-136.6996;0.0;1017.81;62.69692;;;;;;0 / 0;85.8;45.0;3.667;4647;2014-11-17 16:55:56:565
0.469264;-7.31668;-2.154781;0.312595;-9.674214;1.57551;0.156669;2.357535;-3.730291;1.4505;-0.804204;0.682336;327.0;-30.84;20.28;33.72;99.4657;85.8602;-60.9938;0.0;1017.81;64.80084;;;;;;0 / 0;85.8;45.0;3.667;4703;2014-11-17 16:55:56:621
-0.181959;-5.985504;-1.082179;0.056411;-9.51077;2.390075;-0.23837;3.525267;-3.472254;0.858877;-0.468228;0.587042;310.0;-31.2;25.2;31.62;41.0848;75.8898;-1.3521;0.0;1017.81;64.80084;;;;;;0 / 0;85.8;45.0;3.667;4754;2014-11-17 16:55:56:672
-0.459687;-5.573701;0.143652;-0.197171;-9.457874;2.584595;-0.262515;3.884173;-2.440943;-0.633773;0.043982;0.270002;309.0;-30.84;31.98;28.2;37.3888;74.6734;4.3625;0.0;1017.81;64.80084;;;;;;0 / 0;85.8;45.0;3.667;4813;2014-11-17 16:55:56:731
-0.038307;-8.599972;4.185065;0.303155;-9.771716;-0.769437;-0.341462;1.171744;4.954502;-1.127963;-0.13439;0.149051;304.0;-31.2;34.2;27.54;37.3888;74.6734;4.3625;0.0;1017.81;64.80084;;;;;;0 / 0;85.8;45.0;3.667;4872;2014-11-17 16:55:56:790
-3.41892;-12.047622;8.571242;-0.055118;-9.803086;0.258571;-3.363802;-2.244536;8.312672;-0.372628;-1.16828;0.050396;264.0;-32.28;36.9;29.16;208.4799;85.1624;-158.4958;0.0;1017.81;64.80084;;;;;;0 / 0;85.8;45.0;3.667;4932;2014-11-17 16:55:56:850
-0.555455;-7.613561;3.169923;-0.126755;-9.788408;0.584263;-0.428699;2.174848;2.58566;-0.080023;-1.246471;0.198226;252.0;-32.7;38.52;30.6;32.96;86.5048;12.2406;0.0;1017.78;64.80084;;;;;;0 / 0;85.8;45.0;3.667;4983;2014-11-17 16:55:56:901
2.317587;-19.211075;9.940726;-0.099449;-9.795134;0.464559;2.417036;-9.415938;9.476168;0.042455;-0.917825;-0.223577;252.0;-32.34;40.26;32.16;32.96;86.5048;12.2406;0.0;1017.78;61.09435;;;;;;0 / 0;85.8;45.0;3.667;5050;2014-11-17 16:55:56:968
2.116475;-4.022259;-8.532934;0.341203;-9.789958;0.459016;1.775271;5.7677;-8.991952;-0.884227;-1.553125;0.361632;224.0;-31.62;43.8;33.84;31.6362;87.2232;12.0831;0.0;1017.78;61.09435;;;;;;0 / 0;85.8;45.0;3.667;5105;2014-11-17 16:55:57:023
-1.762132;-11.741164;-2.700659;0.152884;-9.805436;0.021084;-1.915017;-1.935729;-2.721743;-1.582446;-0.086132;-0.498466;219.0;-30.72;45.36;35.88;75.0668;86.6566;-36.6247;0.0;1017.78;61.09435;;;;;;0 / 0;85.8;45.0;3.667;5177;2014-11-17 16:55:57:095
-0.23942;-8.561666;-2.365471;0.090075;-9.80507;-0.151286;-0.329495;1.243405;-2.214185;-1.028086;-0.143553;0.09499;213.0;-30.06;45.3;37.32;188.4096;88.9715;-149.2306;0.0;1017.78;61.09435;;;;;;0 / 0;85.8;45.0;3.667;5242;2014-11-17 16:55:57:160
0.497994;-9.883264;-0.248997;0.117745;-9.804028;-0.19376;0.380249;-0.079236;-0.055237;-1.121548;0.545808;0.099266;212.0;-30.9;44.16;40.2;186.6238;88.6751;-148.7135;0.0;1017.78;61.09435;;;;;;0 / 0;85.8;45.0;3.667;5299;2014-11-17 16:55:57:217
-1.80044;-9.500192;-1.790863;-0.146949;-9.79752;-0.396735;-1.653491;0.297327;-1.394127;-0.947452;0.927599;-0.120951;211.0;-32.28;42.96;41.52;214.0308;88.4998;-176.0339;0.0;1017.86;61.09435;;;;;;0 / 0;85.8;45.0;3.667;5381;2014-11-17 16:55:57:299
-1.80044;-9.500192;-1.790863;-0.146949;-9.79752;-0.396735;-1.653491;0.297327;-1.394127;-0.818254;0.222966;-0.141721;213.0;-33.42;42.3;42.0;214.0308;88.4998;-176.0339;0.0;1017.86;61.38457;;;;;;0 / 0;85.8;45.0;3.667;5433;2014-11-17 16:55:57:351
1.130063;-9.337386;-0.842759;-0.023485;-9.795894;-0.458593;1.153548;0.458507;-0.384166;-1.01312;0.401644;-0.149357;211.0;-34.8;41.64;42.6;223.507;87.3162;177.0684;0.0;1017.86;61.38457;;;;;;0 / 0;85.8;45.0;3.667;5495;2014-11-17 16:55:57:413
-0.354342;-8.829816;-1.685518;-0.049551;-9.78865;-0.591822;-0.304791;0.958836;-1.093696;-0.756251;0.563523;-0.228158;209.0;-35.52;41.1;43.38;223.507;87.3162;177.0684;0.0;1017.82;61.38457;;;;;;0 / 0;85.8;45.0;3.667;5550;2014-11-17 16:55:57:468
-0.411803;-9.557652;-3.313575;-0.07759;-9.768488;-0.860806;-0.334213;0.210835;-2.452769;-0.689972;0.616668;-0.055283;216.0;-37.08;40.32;44.04;225.9279;86.528;175.214;0.0;1017.82;61.38457;;;;;;0 / 0;85.8;45.0;3.667;5612;2014-11-17 16:55:57:530
1.446098;-9.854534;-2.135628;0.058886;-9.75567;-0.99691;1.387212;-0.098864;-1.138718;-0.610865;0.730289;-0.026878;213.0;-37.98;40.02;43.62;220.1782;84.1552;-176.6195;0.0;1017.82;61.38457;;;;;;0 / 0;85.8;45.0;3.667;5665;2014-11-17 16:55:57:583
-2.384625;-12.708422;-0.248997;-0.183069;-9.765686;-0.876491;-2.201556;-2.942737;0.627494;0.053451;1.644144;0.279471;227.0;-39.0;40.8;41.1;238.7232;84.7613;168.2025;0.0;1017.84;61.38457;;;;;;0 / 0;85.8;45.0;3.667;5717;2014-11-17 16:55:57:635
-2.499546;-12.248734;2.987964;-0.446044;-9.788282;-0.401169;-2.053503;-2.460452;3.389133;0.90744;1.049161;0.646601;235.0;-38.94;41.7;38.82;238.7232;84.7613;168.2025;0.0;1017.84;65.7186;;;;;;0 / 0;85.8;45.0;3.667;5771;2014-11-17 16:55:57:689
4.912902;-10.879252;-2.116474;0.031382;-9.79992;-0.361868;4.881521;-1.079331;-1.754606;2.484389;-0.24679;0.701579;251.0;-35.16;45.24;31.02;277.5494;86.4928;131.968;0.0;1017.84;65.7186;;;;;;0 / 0;85.8;45.0;3.667;5837;2014-11-17 16:55:57:755
2.614468;-13.962984;-3.294421;0.270769;-9.785026;-0.591917;2.3437;-4.177958;-2.702504;2.458122;0.407753;0.785267;266.0;-29.94;48.0;22.38;209.6536;86.1943;-155.4186;0.0;1017.86;65.7186;;;;;;0 / 0;85.8;45.0;3.667;5915;2014-11-17 16:55:57:833
1.11091;-10.850522;-2.403778;0.332155;-9.775708;-0.704002;0.778755;-1.074814;-1.699777;2.517987;-0.210443;0.639271;288.0;-24.78;49.02;13.62;220.6637;85.4472;-154.7416;0.0;1017.86;65.7186;;;;;;0 / 0;85.8;45.0;3.667;5976;2014-11-17 16:55:57:894
0.814029;-8.331821;-2.164358;0.394463;-9.7595;-0.875761;0.419565;1.42768;-1.288598;2.047315;-0.322231;0.539394;307.0;-22.26;48.78;7.8;220.6637;85.4472;-154.7416;0.0;1017.86;65.7186;;;;;;0 / 0;85.8;45.0;3.667;6026;2014-11-17 16:55:57:944
1.283292;-7.5561;-1.532289;0.468011;-9.740922;-1.03238;0.815281;2.184823;-0.499909;0.910189;-0.669508;0.567799;304.0;-18.78;47.1;0.78;246.8268;84.3792;-155.7521;0.0;1017.82;65.7186;;;;;;0 / 0;85.8;45.0;3.667;6084;2014-11-17 16:55:58:002
0.852336;-6.349423;-1.005565;0.541998;-9.726148;-1.13079;0.310338;3.376726;0.125225;0.218384;-0.099266;0.39187;291.0;-17.28;46.32;-1.38;268.1427;82.6535;-154.3912;0.0;1017.82;62.09867;;;;;;0 / 0;85.8;45.0;3.667;6138;2014-11-17 16:55:58:056
0.047884;-6.952761;-0.114922;0.540842;-9.723016;-1.157933;-0.492958;2.770255;1.043012;-0.971276;-0.098044;0.036041;291.0;-16.74;45.6;-1.92;268.1427;82.6535;-154.3912;0.0;1017.82;62.09867;;;;;;0 / 0;85.8;45.0;3.667;6188;2014-11-17 16:55:58:106
-0.162806;-9.797072;4.223372;0.483777;-9.770666;-0.685901;-0.646582;-0.026407;4.909273;-1.043358;-0.156076;0.023518;271.0;-16.26;45.18;-1.98;273.5349;82.5118;-154.9639;0.0;1017.79;62.09867;;;;;;0 / 0;85.8;45.0;3.667;6257;2014-11-17 16:55:58:175
-1.666364;-11.482592;6.703765;0.268506;-9.802074;0.132704;-1.934871;-1.680516;6.571061;-0.180816;-0.405309;0.03879;260.0;-15.72;45.42;1.2;273.5349;82.5118;-154.9639;0.0;1017.79;62.09867;;;;;;0 / 0;85.8;45.0;3.667;6309;2014-11-17 16:55:58:227
-0.067038;-10.515334;2.011129;0.205065;-9.798452;0.344516;-0.272102;-0.716882;1.666614;-0.242513;-0.491746;0.205251;244.0;-14.76;45.72;4.32;138.916;88.2498;-63.7001;0.0;1017.79;62.09867;;;;;;0 / 0;85.8;45.0;3.667;6359;2014-11-17 16:55:58:277
0.909797;-10.237606;1.063026;0.291457;-9.792496;0.438725;0.61834;-0.44511;0.624301;0.046426;-0.521984;0.04948;235.0;-14.82;45.6;5.4;95.5178;87.657;-30.7622;0.0;1017.83;62.09867;;;;;;0 / 0;85.8;45.0;3.667;6415;2014-11-17 16:55:58:333
1.015142;-8.178592;-1.695095;0.357844;-9.798392;0.183901;0.657297;1.619801;-1.878996;-0.570854;-1.171639;0.267254;222.0;-14.82;44.7;7.8;119.268;87.6487;-62.8007;0.0;1017.83;62.09867;;;;;;0 / 0;85.8;45.0;3.667;6479;2014-11-17 16:55:58:397
-0.411803;-9.950302;0.890643;0.301259;-9.80084;-0.152138;-0.713062;-0.149461;1.042781;-0.669203;-0.648739;-0.217773;216.0;-14.88;44.64;9.12;119.268;87.6487;-62.8007;0.0;1017.83;57.71982;;;;;;0 / 0;85.8;45.0;3.667;6540;2014-11-17 16:55:58:458
0.076614;-10.10353;0.095768;0.411963;-9.784716;-0.509912;-0.335348;-0.318815;0.60568;-0.646906;-0.662789;0.076664;205.0;-15.42;44.04;12.66;169.7002;88.0278;-116.794;0.0;1017.75;57.71982;;;;;;0 / 0;85.8;45.0;3.667;6612;2014-11-17 16:55:58:530
-0.976834;-9.471462;-1.264138;0.353161;-9.76032;-0.884199;-1.329996;0.288858;-0.37994;-0.618501;0.152716;-0.001833;200.0;-15.9;43.68;15.12;210.9514;84.4284;-158.2275;0.0;1017.75;57.71982;;;;;;0 / 0;85.8;45.0;3.667;6671;2014-11-17 16:55:58:589
-0.459687;-9.969456;0.804452;0.384171;-9.730868;-1.15456;-0.843858;-0.238587;1.959011;-0.611171;0.082772;-0.034208;202.0;-15.9;43.38;16.38;210.9514;84.4284;-158.2275;0.0;1017.75;57.71982;;;;;;0 / 0;85.8;45.0;3.667;6723;2014-11-17 16:55:58:641
0.076614;-9.394848;-0.009577;0.413366;-9.707662;-1.326955;-0.336752;0.312814;1.317379;-0.191812;-0.48747;-0.019548;197.0;-16.32;42.78;18.96;209.742;82.8724;-161.5955;0.0;1017.81;57.71982;;;;;;0 / 0;85.8;45.0;3.667;6794;2014-11-17 16:55:58:712
0.335188;-10.266336;-1.647211;0.385134;-9.693716;-1.433163;-0.049946;-0.57262;-0.214047;-0.321926;0.270308;0.073304;197.0;-16.02;42.42;19.98;211.3541;81.2962;-164.9582;0.0;1017.81;57.71982;;;;;;0 / 0;85.8;45.0;3.667;6850;2014-11-17 16:55:58:768
0.47884;-8.015787;-2.643199;0.404534;-9.667986;-1.592722;0.074307;1.6522;-1.050477;-0.120035;-0.043371;0.010385;197.0;-16.38;42.48;21.48;211.438;80.3535;-165.7488;0.0;1017.81;46.72357;;;;;;0 / 0;85.8;45.0;3.667;6902;2014-11-17 16:55:58:820
-0.488417;-11.013328;-0.861913;0.409166;-9.647882;-1.709199;-0.897583;-1.365444;0.847286;-0.442877;-0.412639;-0.255036;197.0;-16.86;42.42;22.14;213.2332;79.676;-166.5373;0.0;1017.89;46.72357;;;;;;0 / 0;85.8;45.0;3.667;6972;2014-11-17 16:55:58:890
-0.105345;-9.768342;0.373495;0.497964;-9.610764;-1.88563;-0.603308;-0.157578;2.259125;-0.37782;0.403477;0.078191;189.0;-17.16;41.88;23.04;213.2332;79.676;-166.5373;0.0;1017.89;46.72357;;;;;;0 / 0;85.8;45.0;3.667;7033;2014-11-17 16:55:58:951
-0.23942;-9.251194;-0.603339;0.530614;-9.62523;-1.801056;-0.770034;0.374035;1.197717;0.731817;0.928821;0.312458;194.0;-17.88;41.4;23.76;208.6845;78.5289;-165.2068;0.0;1017.89;46.72357;;;;;;0 / 0;85.8;45.0;3.667;7090;2014-11-17 16:55:59:008
-0.967257;-11.798626;2.001553;0.473642;-9.72839;-1.142126;-1.4409;-2.070235;3.143679;1.102306;0.199142;0.036041;195.0;-18.0;41.22;23.58;197.439;82.7568;-157.4761;0.0;1017.9;46.72357;;;;;;0 / 0;85.8;45.0;3.667;7149;2014-11-17 16:55:59:067
3.945645;-10.352528;2.451663;0.578473;-9.78934;-0.067812;3.367172;-0.563189;2.519474;1.908954;1.029613;0.242208;195.0;-18.3;40.98;19.8;134.947;86.5951;-96.686;0.0;1017.9;46.72357;;;;;;0 / 0;85.8;45.0;3.667;7213;2014-11-17 16:55:59:131
0.871489;-10.275912;-0.766144;0.544686;-9.728964;1.104975;0.326804;-0.546948;-1.871119;1.724778;1.656361;-0.037874;211.0;-18.12;40.68;15.18;134.947;86.5951;-96.686;0.0;1017.9;62.83681;;;;;;0 / 0;85.8;45.0;3.667;7283;2014-11-17 16:55:59:201
-1.465251;-6.933608;-3.476381;0.335934;-9.658454;1.664876;-1.801186;2.724846;-5.141256;-0.071471;0.574519;-0.08094;230.0;-17.88;40.62;11.76;52.8269;80.0266;-11.4078;0.0;1017.9;62.83681;;;;;;0 / 0;85.8;45.0;3.667;7341;2014-11-17 16:55:59:259
-0.612916;-7.383718;-0.134075;0.313936;-9.682036;1.526433;-0.926851;2.298319;-1.660508;-0.769385;-0.050091;0.117286;227.0;-18.36;40.2;7.56;61.3508;80.8563;-11.6218;0.0;1017.9;62.83681;;;;;;0 / 0;85.8;45.0;3.667;7397;2014-11-17 16:55:59:315
1.312023;-6.617573;1.522712;0.316842;-9.74804;1.022596;0.99518;3.130468;0.500117;-1.380861;-0.389427;0.001527;213.0;-18.36;40.32;7.5;61.3508;80.8563;-11.6218;0.0;1017.9;62.83681;;;;;;0 / 0;85.8;45.0;3.667;7459;2014-11-17 16:55:59:377
1.043872;-18.492813;3.821146;0.356282;-9.796252;0.277336;0.68759;-8.69656;3.54381;-0.476169;-0.234878;0.150578;218.0;-18.24;40.56;9.84;69.0147;83.7328;-17.2151;0.0;1017.79;62.83681;;;;;;0 / 0;85.8;45.0;3.667;7517;2014-11-17 16:55:59:435
1.283292;-6.445191;-0.938527;0.427837;-9.795416;0.192799;0.855455;3.350225;-1.131326;0.018937;-0.22266;-0.069028;202.0;-17.52;40.62;11.22;119.6437;87.2572;-65.7419;0.0;1017.79;62.83681;;;;;;0 / 0;85.8;45.0;3.667;7571;2014-11-17 16:55:59:489
-1.235408;-10.352528;1.455675;0.25507;-9.799618;0.269802;-1.490478;-0.55291;1.185873;-0.50824;-0.161268;0.076053;204.0;-17.22;40.38;13.14;91.9271;87.8301;-43.3923;0.0;1017.79;62.32334;;;;;;0 / 0;85.8;45.0;3.667;7640;2014-11-17 16:55:59:558
-0.009577;-9.11712;-0.02873;0.224919;-9.799918;0.285275;-0.234496;0.682799;-0.314005;0.083383;-0.294132;0.135918;202.0;-17.46;40.56;14.34;91.9271;87.8301;-43.3923;0.0;1017.79;62.32334;;;;;;0 / 0;85.8;45.0;3.667;7692;2014-11-17 16:55:59:610
0.268151;-9.749188;0.038307;0.221801;-9.80113;0.242987;0.046349;0.051942;-0.20468;-0.129198;0.04215;0.13042;194.0;-17.76;40.56;15.18;84.7478;87.877;-38.2533;0.0;1017.79;62.32334;;;;;;0 / 0;85.8;45.0;3.667;7756;2014-11-17 16:55:59:674
0.258574;-9.710882;-0.325611;0.231129;-9.801944;0.197181;0.027444;0.091062;-0.522793;-0.045815;-0.070555;0.08491;193.0;-17.7;40.8;15.6;94.8822;88.2247;-49.5318;0.0;1017.79;62.32334;;;;;;0 / 0;85.8;45.0;3.667;7827;2014-11-17 16:55:59:745
0.316035;-9.62469;0.21069;0.239462;-9.801882;0.190238;0.076573;0.177191;0.020452;-0.169515;0.098655;0.066584;194.0;-17.52;40.98;15.78;96.8753;88.2127;-51.535;0.0;1017.78;62.32334;;;;;;0 / 0;85.8;45.0;3.667;7882;2014-11-17 16:55:59:800
-0.679953;-9.902418;0.507571;0.150556;-9.80297;0.222441;-0.830509;-0.099447;0.28513;-9.16E-4;0.055894;0.102015;194.0;-17.52;41.16;15.72;96.8753;88.2127;-51.535;0.0;1017.78;62.32334;;;;;;0 / 0;85.8;45.0;3.667;7944;2014-11-17 16:55:59:862
-0.574608;-9.720458;0.699107;0.072501;-9.802296;0.283091;-0.647109;0.081837;0.416016;0.047342;-0.039095;0.08491;194.0;-17.7;40.8;15.84;79.8301;88.4304;-34.0915;0.0;1017.78;58.35694;;;;;;0 / 0;85.8;45.0;3.667;7995;2014-11-17 16:55:59:913
0.258574;-9.605536;0.162806;0.088802;-9.802336;0.277039;0.169772;0.196798;-0.114233;0.075136;0.015882;0.0956;191.0;-17.58;40.68;15.84;63.5565;88.2999;-17.7727;0.0;1017.8;58.35694;;;;;;0 / 0;85.8;45.0;3.667;8055;2014-11-17 16:55:59:973
0.402226;-9.672574;-0.229843;0.124374;-9.803208;0.228073;0.277852;0.130634;-0.457916;0.075136;-0.0281;0.077274;182.0;-17.58;40.62;15.72;74.4851;88.482;-28.6048;0.0;1017.8;58.35694;;;;;;0 / 0;85.8;45.0;3.667;8109;2014-11-17 16:56:00:027
0.517148;-9.77792;0.603339;0.161126;-9.802172;0.248736;0.356022;0.024252;0.354603;-0.005192;-0.068111;0.089797;178.0;-17.82;40.74;15.78;78.4156;88.2682;-32.9343;0.0;1017.8;58.35694;;;;;;0 / 0;85.8;45.0;3.667;8183;2014-11-17 16:56:00:101