sep=;
ACCELEROMETER X (m/s²);ACCELEROMETER Y (m/s²);ACCELEROMETER Z (m/s²);GRAVITY X (m/s²);GRAVITY Y (m/s²);GRAVITY Z (m/s²);LINEAR ACCELERATION X (m/s²);LINEAR ACCELERATION Y (m/s²);LINEAR ACCELERATION Z (m/s²);GYROSCOPE X (rad/s);GYROSCOPE Y (rad/s);GYROSCOPE Z (rad/s);LIGHT (lux);MAGNETIC FIELD X (μT);MAGNETIC FIELD Y (μT);MAGNETIC FIELD Z (μT);ORIENTATION X (°);ORIENTATION Y (°);ORIENTATION Z (°);PROXIMITY (i);ATMOSPHERIC PRESSURE (hPa);SOUND LEVEL (dB);LOCATION Latitude : ;LOCATION Longitude : ;LOCATION Altitude ( m);LOCATION Speed ( Kmh);LOCATION Accuracy ( m);Satellites in range;Temperature (F);Level (%);Voltage (Volt);Time since start in ms ;YYYY-MO-DD HH-MI-SS_SSS
-0.344765;-9.883264;0.670377;0.245406;-9.777002;0.721375;-0.590171;-0.106261;-0.050998;0.001527;0.065668;0.023518;318.0;-25.62;46.86;-15.36;133.6222;85.5437;-18.7879;0.0;1017.73;65.38289;;;;;;0 / 0;85.8;45.0;3.704;25;2014-11-17 16:54:45:556
1.35033;-9.461884;0.383072;0.312354;-9.774784;0.725552;1.037976;0.312899;-0.34248;0.03146;-0.029322;0.029322;324.0;-25.2;46.62;-15.48;135.7613;85.5331;-19.9172;0.0;1017.73;43.79064;;;;;;0 / 0;85.8;45.0;3.704;118;2014-11-17 16:54:45:649
-0.47884;-9.969456;0.852336;0.349101;-9.773618;0.724513;-0.827941;-0.195838;0.127823;-0.039095;0.096822;-0.045509;318.0;-25.32;46.5;-15.6;141.2338;85.3798;-23.2922;0.0;1017.73;43.79064;;;;;;0 / 0;85.8;45.0;3.704;170;2014-11-17 16:54:45:701
0.019154;-9.720458;1.235408;0.411816;-9.770462;0.73408;-0.392663;0.050003;0.501328;-3.05E-4;0.078496;-0.047953;321.0;-25.26;46.56;-15.78;141.2338;85.3798;-23.2922;0.0;1017.73;43.79064;;;;;;0 / 0;85.8;45.0;3.704;228;2014-11-17 16:54:45:759
0.019154;-9.720458;1.235408;0.411816;-9.770462;0.73408;-0.392663;0.050003;0.501328;-0.007636;-0.007941;-0.086743;321.0;-25.68;46.62;-15.84;146.6298;85.0763;-29.2923;0.0;1017.73;43.79064;;;;;;0 / 0;85.8;45.0;3.704;278;2014-11-17 16:54:45:809
0.248997;-9.854534;1.340753;0.501249;-9.766208;0.735053;-0.252252;-0.088325;0.6057;0.069639;0.067806;-0.048564;321.0;-25.8;46.56;-15.66;146.6298;85.0763;-29.2923;0.0;1017.73;43.79064;;;;;;0 / 0;85.8;45.0;3.704;328;2014-11-17 16:54:45:859
0.545878;-9.433154;0.641646;0.573436;-9.76004;0.763671;-0.027558;0.326885;-0.122025;0.017104;0.018326;-0.045204;318.0;-26.7;45.84;-15.48;152.1341;84.7948;-34.291;0.0;1017.62;43.79064;;;;;;0 / 0;85.8;45.0;3.704;390;2014-11-17 16:54:45:921
0.584185;-10.065224;1.493982;0.670619;-9.75546;0.742749;-0.086434;-0.309763;0.751233;-0.164934;0.032376;-0.115148;321.0;-27.18;45.42;-15.48;157.7229;84.1431;-42.0785;0.0;1017.62;47.25261;;;;;;0 / 0;85.8;45.0;3.704;452;2014-11-17 16:54:45:983
0.584185;-9.959878;3.074155;0.759901;-9.750138;0.726467;-0.175715;-0.209741;2.347688;0.016188;0.208916;-0.040317;320.0;-27.6;45.6;-15.18;161.5503;83.846;-46.2886;0.0;1017.62;47.25261;;;;;;0 / 0;85.8;45.0;3.704;505;2014-11-17 16:54:46:036
-0.392649;-10.52491;4.041412;0.754129;-9.73313;0.931597;-1.146778;-0.791779;3.109815;0.791071;0.485943;0.439212;327.0;-27.48;45.42;-15.24;153.2714;82.9797;-38.9902;0.0;1017.69;47.25261;;;;;;0 / 0;85.8;45.0;3.704;573;2014-11-17 16:54:46:104
0.833182;-9.62469;0.814029;0.559815;-9.695278;1.363295;0.273367;0.070588;-0.549266;0.802372;0.398895;0.271835;371.0;-26.76;44.82;-15.6;153.2714;82.9797;-38.9902;0.0;1017.69;47.25261;;;;;;0 / 0;85.8;45.0;3.704;639;2014-11-17 16:54:46:170
-0.181959;-10.01734;1.723825;0.409079;-9.634166;1.78491;-0.591039;-0.383174;-0.061084;0.594677;0.136528;0.317039;387.0;-26.1;44.22;-16.5;120.4779;79.2381;-12.9086;0.0;1017.69;47.25261;;;;;;0 / 0;85.8;45.0;3.704;689;2014-11-17 16:54:46:220
0.316035;-8.93516;1.120486;0.243038;-9.564242;2.153282;0.072996;0.629082;-1.032796;0.613309;-0.344528;0.339641;387.0;-24.6;42.72;-17.4;112.9419;77.2341;-6.4397;0.0;1017.75;47.25261;;;;;;0 / 0;85.8;45.0;3.704;751;2014-11-17 16:54:46:282
-0.114922;-9.155426;2.049437;0.138784;-9.501368;2.423872;-0.253706;0.345941;-0.374435;0.408058;-0.425162;0.376598;357.0;-24.18;41.76;-17.82;109.9909;75.6662;-3.277;0.0;1017.75;47.25261;;;;;;0 / 0;85.8;45.0;3.704;814;2014-11-17 16:54:46:345
0.823605;-8.513782;2.509123;0.048029;-9.441056;2.652273;0.775577;0.927275;-0.143149;0.313068;-0.401033;0.293215;346.0;-24.06;41.4;-17.82;109.9909;75.6662;-3.277;0.0;1017.75;46.71749;;;;;;0 / 0;85.8;45.0;3.704;881;2014-11-17 16:54:46:412
-0.545878;-8.801084;3.045425;-0.032812;-9.38318;2.85048;-0.513066;0.582095;0.194945;0.189368;-0.196088;0.280998;346.0;-24.18;41.16;-17.1;99.5775;73.1009;0.6595;0.0;1017.75;46.71749;;;;;;0 / 0;85.8;45.0;3.704;931;2014-11-17 16:54:46:462
0.363919;-9.040504;3.562572;-0.113886;-9.350958;2.952456;0.477805;0.310453;0.610117;0.182038;-0.519541;0.303905;321.0;-23.88;40.68;-15.72;94.6717;72.4649;2.209;0.0;1017.75;46.71749;;;;;;0 / 0;85.8;45.0;3.704;990;2014-11-17 16:54:46:521
-0.248997;-8.044517;3.265691;-0.160124;-9.303472;3.096795;-0.088873;1.258955;0.168896;-0.0956;-0.426995;0.390037;291.0;-23.76;40.68;-14.16;87.9675;71.5663;2.9599;0.0;1017.75;46.71749;;;;;;0 / 0;85.8;45.0;3.704;1053;2014-11-17 16:54:46:584
0.038307;-8.389282;3.016694;-0.246773;-9.320002;3.040897;0.28508;0.930718;-0.024203;-0.544281;-0.341168;0.341474;285.0;-23.94;40.74;-12.84;87.9675;71.5663;2.9599;0.0;1017.63;46.71749;;;;;;0 / 0;85.8;45.0;3.704;1107;2014-11-17 16:54:46:638
-1.072602;-8.418014;3.524265;-0.351849;-9.394214;2.792013;-0.720753;0.9762;0.732252;-0.310014;-0.682336;0.296881;248.0;-24.18;40.62;-11.64;82.7175;73.3241;7.1825;0.0;1017.63;46.71749;;;;;;0 / 0;85.8;45.0;3.704;1162;2014-11-17 16:54:46:693
0.114922;-9.040504;2.202666;-0.323536;-9.460104;2.56362;0.438458;0.4196;-0.360954;-0.601702;-0.789238;0.163712;229.0;-24.42;40.5;-7.92;76.3073;74.7228;7.1929;0.0;1017.63;54.71526;;;;;;0 / 0;85.8;45.0;3.704;1214;2014-11-17 16:54:46:745
0.909797;-16.740257;5.832276;-0.114652;-9.555802;2.200885;1.024448;-7.184456;3.631391;-0.412639;-0.777937;-0.096211;202.0;-24.78;40.38;-6.0;76.3073;74.7228;7.1929;0.0;1017.69;54.71526;;;;;;0 / 0;85.8;45.0;3.704;1267;2014-11-17 16:54:46:798
1.158794;-5.056554;-5.506664;0.070743;-9.623438;1.885423;1.088051;4.566885;-7.392087;-0.3598;-1.028392;0.098349;205.0;-25.26;40.32;-3.48;73.7188;77.0129;2.982;0.0;1017.69;54.71526;;;;;;0 / 0;85.8;45.0;3.704;1331;2014-11-17 16:54:46:862
0.229843;-11.482592;0.143652;-0.001294;-9.738224;1.156449;0.231137;-1.744368;-1.012797;-1.459662;0.266643;-0.086743;204.0;-26.34;39.72;0.9;77.5523;83.2276;0.0641;0.0;1017.69;54.71526;;;;;;0 / 0;85.8;45.0;3.704;1393;2014-11-17 16:54:46:924
-0.488417;-9.35654;-2.020706;0.068651;-9.797638;0.414682;-0.557068;0.441098;-2.435388;-0.916298;-0.297797;6.11E-4;197.0;-26.4;39.36;3.0;77.5523;83.2276;0.0641;0.0;1017.76;54.71526;;;;;;0 / 0;85.8;45.0;3.704;1454;2014-11-17 16:54:46:985
0.268151;-10.208876;-1.35033;0.123479;-9.804108;-0.186056;0.144671;-0.404767;-1.164274;-1.040609;-0.143553;-0.025045;197.0;-26.7;39.24;7.14;85.4307;87.5435;-9.4001;0.0;1017.76;54.71526;;;;;;0 / 0;85.8;45.0;3.704;1505;2014-11-17 16:54:47:036
0.507571;-9.059658;-0.258574;0.148861;-9.770154;-0.832082;0.35871;0.710495;0.573508;-1.083675;1.001819;0.214108;191.0;-26.76;38.94;8.4;221.1205;88.6954;-146.4291;0.0;1017.76;59.1483;;;;;;0 / 0;85.8;45.0;3.704;1569;2014-11-17 16:54:47:100
-1.273715;-9.883264;-1.532289;0.13307;-9.717188;-1.314881;-1.406785;-0.166076;-0.217408;-0.810618;0.889114;0.015272;191.0;-27.06;38.76;11.34;252.1736;82.2549;-174.2212;0.0;1017.7;59.1483;;;;;;0 / 0;85.8;45.0;3.704;1632;2014-11-17 16:54:47:163
-0.536301;-9.212888;-1.484405;0.207925;-9.642216;-1.776193;-0.744226;0.429328;0.291788;-0.70219;0.352164;-0.015272;191.0;-27.12;38.28;12.48;252.7868;79.4928;-173.3232;0.0;1017.7;59.1483;;;;;;0 / 0;85.8;45.0;3.704;1700;2014-11-17 16:54:47:231
0.201113;-9.17458;-2.049437;0.309794;-9.552958;-2.194398;-0.108681;0.378379;0.144962;-0.777326;0.1799;-0.134085;193.0;-26.64;37.8;12.78;252.7868;79.4928;-173.3232;0.0;1017.7;59.1483;;;;;;0 / 0;85.8;45.0;3.704;1762;2014-11-17 16:54:47:293
0.009577;-9.337386;-1.886631;0.478368;-9.427634;-2.657306;-0.468792;0.090248;0.770675;-0.878119;0.360105;-0.273973;194.0;-26.94;36.6;14.1;252.5041;76.9392;-171.9644;0.0;1017.69;59.1483;;;;;;0 / 0;85.8;45.0;3.704;1817;2014-11-17 16:54:47:348
-0.842759;-10.01734;-2.059013;0.68843;-9.281584;-3.090094;-1.531189;-0.735756;1.031081;-0.79443;0.238237;-0.198837;191.0;-27.42;36.3;14.82;251.3533;71.166;-167.4404;0.0;1017.69;59.1483;;;;;;0 / 0;85.8;45.0;3.704;1876;2014-11-17 16:54:47:407
1.532289;-9.289502;-2.825158;0.831401;-9.141826;-3.450537;0.700888;-0.147676;0.625379;-0.606895;0.646295;0.052534;189.0;-28.32;35.46;15.48;251.3533;71.166;-167.4404;0.0;1017.69;52.54261;;;;;;0 / 0;85.8;45.0;3.704;1934;2014-11-17 16:54:47:465
-2.135628;-12.966996;0.363919;0.950782;-9.062704;-3.62406;-3.08641;-3.904291;3.987979;-0.771217;1.102612;-0.013134;197.0;-29.1;33.9;16.56;251.5291;68.7815;-166.4529;0.0;1017.69;52.54261;;;;;;0 / 0;85.8;45.0;3.704;1990;2014-11-17 16:54:47:521
-2.604891;-11.281478;3.409343;0.985829;-9.149114;-3.390028;-3.590721;-2.132365;6.799372;0.858571;0.704633;0.476169;202.0;-29.34;32.88;16.44;250.5006;67.5388;-165.2996;0.0;1017.69;52.54261;;;;;;0 / 0;85.8;45.0;3.704;2051;2014-11-17 16:54:47:582
3.533842;-11.18571;-2.126051;0.774582;-9.483434;-2.373795;2.75926;-1.702276;0.247744;2.174986;0.044288;0.698219;213.0;-29.28;31.32;15.06;237.5052;75.2489;-161.9282;0.0;1017.69;52.54261;;;;;;0 / 0;85.8;45.0;3.704;2112;2014-11-17 16:54:47:643
3.342306;-13.158532;-3.045424;0.525061;-9.729288;-1.11159;2.817245;-3.429243;-1.933835;2.35122;0.419359;0.667981;219.0;-29.1;30.3;13.26;237.5052;75.2489;-161.9282;0.0;1017.75;52.54261;;;;;;0 / 0;85.8;45.0;3.704;2171;2014-11-17 16:54:47:702
0.507571;-10.208876;-2.317587;0.187424;-9.80265;0.208115;0.320147;-0.406225;-2.525702;2.261729;-0.007941;0.668592;233.0;-28.74;28.44;10.8;227.3731;82.7985;-154.7162;0.0;1017.75;52.54261;;;;;;0 / 0;85.8;45.0;3.704;2241;2014-11-17 16:54:47:772
0.766145;-8.801084;-1.321599;-0.172674;-9.713264;1.339053;0.938819;0.912179;-2.660652;1.696067;0.041844;0.689361;242.0;-28.2;27.6;8.76;112.7409;88.3635;-42.0055;0.0;1017.75;52.54261;;;;;;0 / 0;85.8;45.0;3.704;2300;2014-11-17 16:54:47:831
0.517148;-8.015787;-1.254562;-0.418932;-9.554366;2.170017;0.93608;1.538579;-3.424579;1.317942;-0.604146;0.492357;235.0;-28.08;28.02;8.1;53.6243;76.9756;10.9268;0.0;1017.78;62.30567;;;;;;0 / 0;85.8;45.0;3.704;2358;2014-11-17 16:54:47:889
-0.727837;-7.125144;0.766145;-0.629694;-9.363448;2.846;-0.098144;2.238304;-2.079856;0.624915;-0.285274;0.590707;233.0;-28.32;29.28;7.98;49.5262;72.7087;12.476;0.0;1017.78;62.30567;;;;;;0 / 0;85.8;45.0;3.704;2420;2014-11-17 16:54:47:951
0.632069;-6.186617;0.191536;-0.811028;-9.256892;3.134101;1.443097;3.070275;-2.942565;0.176845;-0.399811;0.364076;226.0;-28.2;30.06;8.16;49.5262;72.7087;12.476;0.0;1017.78;62.30567;;;;;;0 / 0;85.8;45.0;3.704;2478;2014-11-17 16:54:48:009
-0.47884;-9.260772;6.56969;-0.689666;-9.32198;2.965706;0.210826;0.06121;3.603984;-0.642019;-0.653626;-0.16249;224.0;-27.96;31.74;10.02;44.7393;70.7242;14.5085;0.0;1017.74;62.30567;;;;;;0 / 0;85.8;45.0;3.704;2552;2014-11-17 16:54:48:083
0.488417;-10.907982;-1.37906;-0.387962;-9.38261;2.826037;0.876379;-1.525371;-4.205097;-0.154854;-0.450208;0.283441;216.0;-28.86;33.0;13.68;46.8066;72.4;7.6337;0.0;1017.74;62.30567;;;;;;0 / 0;85.8;45.0;3.704;2640;2014-11-17 16:54:48:171
-1.158794;-9.739612;-4.060566;-0.333238;-9.481644;2.481483;-0.825556;-0.257968;-6.542049;-0.25412;-0.955088;-0.13775;224.0;-28.98;33.78;15.36;43.7497;73.0895;7.8168;0.0;1017.74;60.95493;;;;;;0 / 0;85.8;45.0;3.704;2696;2014-11-17 16:54:48:227
3.667917;-7.939172;-2.202665;-0.182759;-9.59832;2.002299;3.850676;1.659148;-4.204964;-1.632843;0.486249;0.325286;227.0;-28.56;35.94;18.48;41.1278;75.2079;7.6485;0.0;1017.72;60.95493;;;;;;0 / 0;85.8;45.0;3.704;2760;2014-11-17 16:54:48:291
-0.124498;-10.477026;0.009577;-0.031721;-9.755676;0.99808;-0.092778;-0.72135;-0.988503;-1.649642;-0.279471;-0.376293;222.0;-28.32;36.66;20.4;41.1278;75.2079;7.6485;0.0;1017.72;60.95493;;;;;;0 / 0;85.8;45.0;3.704;2815;2014-11-17 16:54:48:346
0.181959;-9.481038;-1.838747;0.104341;-9.80256;0.263306;0.077619;0.321521;-2.102053;-1.216233;-0.233961;-0.037874;216.0;-28.2;36.84;25.5;44.7217;84.1556;1.8203;0.0;1017.72;60.95493;;;;;;0 / 0;85.8;45.0;3.704;2882;2014-11-17 16:54:48:413
-0.584185;-10.065224;0.134075;0.138179;-9.7938;-0.482488;-0.722364;-0.271423;0.616563;-1.294423;0.364381;-0.012217;213.0;-28.62;36.6;27.42;67.2453;88.3451;-21.617;0.0;1017.7;60.95493;;;;;;0 / 0;85.8;45.0;3.704;2938;2014-11-17 16:54:48:469
-1.312023;-9.32781;-1.570596;0.182686;-9.743156;-1.099038;-1.494709;0.415347;-0.471558;-0.856738;0.883617;0.008858;213.0;-29.16;35.64;30.66;208.3213;87.0664;-164.0189;0.0;1017.7;60.95493;;;;;;0 / 0;85.8;45.0;3.704;2990;2014-11-17 16:54:48:521
-1.312023;-9.32781;-1.570596;0.182686;-9.743156;-1.099038;-1.494709;0.415347;-0.471558;-0.84391;0.568716;-0.085827;208.0;-29.82;35.4;31.38;208.3213;87.0664;-164.0189;0.0;1017.7;58.64499;;;;;;0 / 0;85.8;45.0;3.704;3041;2014-11-17 16:54:48:572
1.283292;-9.021352;-2.27928;0.44544;-9.57125;-2.088805;0.837852;0.549899;-0.190475;-0.89339;-0.054062;-0.174402;211.0;-30.9;35.1;33.0;216.412;80.5909;-169.3799;0.0;1017.7;58.64499;;;;;;0 / 0;85.8;45.0;3.704;3116;2014-11-17 16:54:48:647
-0.785298;-9.902418;-0.459687;0.639336;-9.407838;-2.693373;-1.424634;-0.49458;2.233687;-1.197907;0.457844;-0.275195;205.0;-31.2;35.04;33.96;216.7176;77.4208;-167.9619;0.0;1017.7;58.64499;;;;;;0 / 0;85.8;45.0;3.704;3177;2014-11-17 16:54:48:708
-1.225831;-9.528922;-3.294421;0.83793;-9.251062;-3.14422;-2.063761;-0.277861;-0.150202;-0.594983;0.574824;-0.038485;202.0;-31.92;33.84;35.88;216.2749;73.6037;-166.6466;0.0;1017.7;58.64499;;;;;;0 / 0;85.8;45.0;3.704;3242;2014-11-17 16:54:48:773
0.45011;-11.252748;-1.915361;0.951627;-9.136148;-3.43447;-0.501517;-2.116598;1.519109;-0.759;0.671952;-0.003054;202.0;-32.46;33.36;36.66;216.2749;73.6037;-166.6466;0.0;1017.7;58.64499;;;;;;0 / 0;85.8;45.0;3.704;3302;2014-11-17 16:54:48:833
-2.48997;-11.999738;1.043872;1.090054;-9.083256;-3.532227;-3.580024;-2.916483;4.5761;-0.582155;0.926683;-0.037874;208.0;-34.2;33.24;37.2;216.6771;68.69;-164.5129;0.0;1017.7;58.64499;;;;;;0 / 0;85.8;45.0;3.704;3363;2014-11-17 16:54:48:894
0.919373;-10.55364;1.877054;1.101385;-9.283726;-2.961384;-0.182011;-1.269915;4.838438;1.562593;0.428522;0.583071;216.0;-34.56;33.42;36.78;217.0327;67.8552;-162.8496;0.0;1017.7;59.78899;;;;;;0 / 0;85.8;45.0;3.704;3422;2014-11-17 16:54:48:953
3.706224;-12.583924;-3.821146;0.836735;-9.615322;-1.736622;2.869489;-2.968602;-2.084524;2.32251;0.441656;0.65271;235.0;-33.12;36.9;31.2;217.2385;71.2048;-159.599;0.0;1017.75;59.78899;;;;;;0 / 0;85.8;45.0;3.704;3492;2014-11-17 16:54:49:023
1.225831;-12.631808;-2.528277;0.536687;-9.781582;-0.450555;0.689144;-2.850225;-2.077721;2.146275;0.860098;0.713491;313.0;-27.42;41.7;21.42;182.3512;85.9025;-130.0139;0.0;1017.75;59.78899;;;;;;0 / 0;85.8;45.0;3.704;3556;2014-11-17 16:54:49:087
0.670377;-9.20331;-2.049437;0.147219;-9.773418;0.793095;0.523157;0.570108;-2.842531;2.107485;-0.405004;0.707382;327.0;-23.64;43.14;15.36;182.3512;85.9025;-130.0139;0.0;1017.75;59.78899;;;;;;0 / 0;85.8;45.0;3.704;3611;2014-11-17 16:54:49:142
0.881066;-7.747637;-2.394202;-0.160521;-9.623472;1.879729;1.041587;1.875835;-4.273931;1.739133;-0.46609;0.65271;346.0;-16.74;42.12;4.68;65.7108;85.2818;-10.5159;0.0;1017.75;59.78899;;;;;;0 / 0;85.8;45.0;3.704;3677;2014-11-17 16:54:49:208
0.842759;-6.818686;-1.063026;-0.39725;-9.435924;2.6412;1.240009;2.617237;-3.704225;1.021061;-0.622166;0.677755;340.0;-14.28;40.26;0.78;54.6301;78.9085;4.881;0.0;1017.75;59.78899;;;;;;0 / 0;85.8;45.0;3.704;3732;2014-11-17 16:54:49:263
0.047884;-6.138733;0.430956;-0.623365;-9.298086;3.054077;0.671249;3.159354;-2.623121;0.112399;0.111483;0.483805;331.0;-10.86;35.82;-3.42;46.6479;71.467;11.5361;0.0;1017.74;61.43935;;;;;;0 / 0;85.8;45.0;3.704;3797;2014-11-17 16:54:49:328
-0.526724;-8.42759;3.064578;-0.809541;-9.322964;2.932134;0.282816;0.895373;0.132444;-0.835969;-0.112705;0.161574;329.0;-9.06;33.72;-4.26;46.7649;71.9299;15.4344;0.0;1017.74;61.43935;;;;;;0 / 0;85.8;45.0;3.704;3868;2014-11-17 16:54:49:399
-2.432509;-11.674128;8.341399;-0.756046;-9.394668;2.709061;-1.676463;-2.27946;5.632339;0.046426;-1.096808;0.092852;307.0;-7.86;32.22;-3.48;45.1428;73.3333;15.5934;0.0;1017.74;61.43935;;;;;;0 / 0;85.8;45.0;3.704;3938;2014-11-17 16:54:49:469
-0.201113;-9.576806;4.817134;-0.54978;-9.380106;2.807449;0.348667;-0.196701;2.009685;0.189368;-0.717156;0.223882;252.0;-7.38;31.32;-2.94;45.1428;73.3333;15.5934;0.0;1017.7;61.43935;;;;;;0 / 0;85.8;45.0;3.704;3988;2014-11-17 16:54:49:519
3.41892;-10.984596;-2.212242;-0.464403;-9.364756;2.873335;3.883323;-1.619841;-5.085577;-0.908662;-0.054367;-0.357662;252.0;-6.6;27.78;-0.36;41.8018;72.7344;9.181;0.0;1017.7;61.43935;;;;;;0 / 0;85.8;45.0;3.704;4050;2014-11-17 16:54:49:581
-2.930503;-8.312668;-5.803545;-0.317397;-9.528842;2.29582;-2.613105;1.216175;-8.099365;-0.709215;-1.622458;0.073915;230.0;-6.66;25.92;1.02;40.2161;76.3296;7.8713;0.0;1017.7;61.43935;;;;;;0 / 0;85.8;45.0;3.704;4110;2014-11-17 16:54:49:641
3.466804;-8.647856;-3.620033;-0.251008;-9.678618;1.559398;3.717812;1.030763;-5.17943;-1.652696;-0.20464;-0.424857;227.0;-6.3;23.1;4.56;28.3211;80.7315;9.1442;0.0;1017.64;62.75305;;;;;;0 / 0;85.8;45.0;3.704;4173;2014-11-17 16:54:49:704
-1.647211;-10.084376;-1.637634;-0.075684;-9.788284;0.595116;-1.571527;-0.296093;-2.232749;-1.27457;0.005192;-0.143248;219.0;-5.88;22.44;6.84;28.3211;80.7315;9.1442;0.0;1017.64;62.75305;;;;;;0 / 0;85.8;45.0;3.704;4227;2014-11-17 16:54:49:758
0.6608;-9.59596;-1.398214;0.034072;-9.80506;-0.173373;0.626727;0.2091;-1.22484;-1.199739;-0.036346;-0.016188;216.0;-5.64;21.84;8.16;206.7786;88.9675;-168.8816;0.0;1017.64;62.75305;;;;;;0 / 0;85.8;45.0;3.704;4278;2014-11-17 16:54:49:809
-0.565032;-9.701304;-0.258574;0.075667;-9.766014;-0.888615;-0.640699;0.064709;0.630041;-1.047023;0.999376;0.034819;213.0;-4.98;21.24;11.1;203.2411;84.7823;-175.1329;0.0;1017.73;62.75305;;;;;;0 / 0;85.8;45.0;3.704;4332;2014-11-17 16:54:49:863
-1.082179;-9.251194;-1.37906;0.158891;-9.69556;-1.463294;-1.24107;0.444366;0.084234;-0.912327;1.093449;-0.015272;216.0;-4.74;20.52;11.82;203.2411;84.7823;-175.1329;0.0;1017.73;62.75305;;;;;;0 / 0;85.8;45.0;3.704;4393;2014-11-17 16:54:49:924
-0.229843;-9.222464;-1.915361;0.31083;-9.603126;-1.963085;-0.540673;0.380662;0.047724;-0.821919;0.496023;-0.107207;216.0;-4.08;19.5;13.32;194.1556;81.3678;-173.8028;0.0;1017.73;62.75305;;;;;;0 / 0;85.8;45.0;3.704;4463;2014-11-17 16:54:49:994
1.369483;-8.829816;-1.599327;0.503003;-9.475734;-2.475448;0.866481;0.645919;0.876121;-1.170418;0.403171;-0.2474;212.0;-3.84;18.3;14.28;186.8749;75.0733;-168.514;0.0;1017.67;62.75305;;;;;;0 / 0;85.8;45.0;3.704;4531;2014-11-17 16:54:50:062
-1.40779;-10.01734;-1.570596;0.776064;-9.263996;-3.121933;-2.183855;-0.753344;1.551337;-0.924239;0.203418;-0.217468;212.0;-3.42;17.46;15.24;186.8749;75.0733;-168.514;0.0;1017.67;56.08809;;;;;;0 / 0;85.8;45.0;3.704;4585;2014-11-17 16:54:50:116
0.201113;-9.80665;-3.102885;0.894171;-9.103148;-3.536035;-0.693058;-0.703503;0.433149;-0.646906;0.329256;0.04215;208.0;-3.18;14.7;16.32;174.6369;70.8503;-166.0401;0.0;1017.67;56.08809;;;;;;0 / 0;85.8;45.0;3.704;4638;2014-11-17 16:54:50:169
-2.384625;-12.603078;-0.603339;0.975113;-9.006578;-3.755144;-3.359737;-3.596499;3.151806;-0.632246;1.061073;-0.016188;213.0;-3.06;13.26;17.1;172.6826;66.6955;-165.4433;0.0;1017.78;56.08809;;;;;;0 / 0;85.8;45.0;3.704;4702;2014-11-17 16:54:50:233
-1.8579;-11.87524;0.718261;1.073608;-9.038024;-3.651286;-2.931508;-2.837216;4.369547;0.938594;0.334143;0.465479;224.0;-3.24;10.38;18.42;170.2605;67.1644;-163.6148;0.0;1017.78;56.08809;;;;;;0 / 0;85.8;45.0;3.704;4767;2014-11-17 16:54:50:298
6.607997;-11.109096;-0.785298;0.951937;-9.360672;-2.764413;5.65606;-1.748423;1.979115;2.625193;-0.201586;0.789543;229.0;-3.3;8.52;19.86;170.2605;67.1644;-163.6148;0.0;1017.78;56.08809;;;;;;0 / 0;85.8;45.0;3.704;4817;2014-11-17 16:54:50:348
3.514688;-12.83292;-3.342306;0.721181;-9.689278;-1.329733;2.793507;-3.143643;-2.012573;2.352748;0.899805;0.470672;229.0;-3.78;6.84;21.24;170.4232;72.6542;-160.9987;0.0;1017.78;56.08809;;;;;;0 / 0;85.8;45.0;3.704;4867;2014-11-17 16:54:50:398
0.009577;-10.515334;-2.221819;0.470489;-9.7952;-0.055723;-0.460912;-0.720134;-2.166096;2.17468;0.586125;0.641103;299.0;-6.48;5.4;24.54;109.7216;87.2308;-96.7544;0.0;1017.78;63.09856;;;;;;0 / 0;85.8;45.0;3.704;4935;2014-11-17 16:54:50:466
-0.526724;-8.590396;-2.384625;0.155549;-9.740526;1.126202;-0.682273;1.15013;-3.510826;1.832901;-0.347277;0.535423;324.0;-11.58;8.16;26.82;31.0676;83.3427;-7.8638;0.0;1017.78;63.09856;;;;;;0 / 0;85.8;45.0;3.704;4993;2014-11-17 16:54:50:524
0.699107;-7.73806;-1.762132;-0.074644;-9.590958;2.044097;0.773751;1.852898;-3.806229;1.234864;-0.980133;0.755946;318.0;-13.44;10.56;27.66;31.0676;83.3427;-7.8638;0.0;1017.8;63.09856;;;;;;0 / 0;85.8;45.0;3.704;5058;2014-11-17 16:54:50:589
0.172383;-7.010222;0.076614;-0.299142;-9.442214;2.631633;0.471525;2.431992;-2.555019;0.755335;-0.769079;0.624915;318.0;-14.88;12.66;27.9;24.5266;77.9609;2.0913;0.0;1017.8;63.09856;;;;;;0 / 0;85.8;45.0;3.704;5108;2014-11-17 16:54:50:639
-0.756568;-6.397307;0.890643;-0.553978;-9.408386;2.710304;-0.202589;3.01108;-1.81966;-0.61453;-0.112399;0.440739;304.0;-17.28;16.2;28.62;17.2031;73.6151;11.552;0.0;1017.8;63.09856;;;;;;0 / 0;85.8;45.0;3.704;5190;2014-11-17 16:54:50:721
-2.03986;-10.122684;7.211336;-0.769984;-9.446468;2.518282;-1.269876;-0.676215;4.693054;-0.437379;-0.299324;0.287718;299.0;-19.8;18.18;30.42;15.2029;74.4233;17.0014;0.0;1017.7;63.09856;;;;;;0 / 0;85.8;45.0;3.704;5257;2014-11-17 16:54:50:788
-0.967257;-9.423578;5.286398;-0.821506;-9.42891;2.567324;-0.145751;0.005333;2.719074;0.060476;-1.046718;0.104153;255.0;-21.12;19.2;32.7;15.2029;74.4233;17.0014;0.0;1017.7;56.54224;;;;;;0 / 0;85.8;45.0;3.704;5311;2014-11-17 16:54:50:842
-0.555455;-9.20331;4.204219;-0.686798;-9.389312;2.745814;0.131344;0.186002;1.458405;0.350331;-1.315498;0.154549;235.0;-21.78;20.1;34.32;17.1355;73.2246;14.043;0.0;1017.7;56.54224;;;;;;0 / 0;85.8;45.0;3.704;5367;2014-11-17 16:54:50:898
0.909797;-15.284584;0.507571;-0.47045;-9.369596;2.856521;1.380246;-5.914986;-2.34895;-0.683864;-0.120035;-0.122478;219.0;-22.8;23.82;37.38;20.1193;72.83;9.3523;0.0;1017.74;56.54224;;;;;;0 / 0;85.8;45.0;3.704;5430;2014-11-17 16:54:50:961
-0.316035;-5.324704;-7.086837;-0.335399;-9.474606;2.507933;0.019364;4.149903;-9.594768;-0.133474;-1.682628;0.079718;219.0;-23.28;25.68;38.4;20.1193;72.83;9.3523;0.0;1017.74;56.54224;;;;;;0 / 0;85.8;45.0;3.704;5490;2014-11-17 16:54:51:021
0.392649;-10.745176;-3.428497;-0.318427;-9.653098;1.699028;0.711076;-1.092078;-5.127524;-1.841759;-0.093157;-0.411723;211.0;-24.24;28.56;40.98;21.4501;75.0477;7.6173;0.0;1017.74;56.54224;;;;;;0 / 0;85.8;45.0;3.704;5549;2014-11-17 16:54:51:080
-1.216254;-9.59596;-0.488417;-0.08971;-9.781726;0.692955;-1.126544;0.185765;-1.181372;-1.361313;-0.150884;-0.23274;205.0;-24.18;28.74;42.36;21.52;85.9141;7.3765;0.0;1017.74;56.54224;;;;;;0 / 0;85.8;45.0;3.704;5607;2014-11-17 16:54:51:138
0.871489;-9.969456;-0.641646;0.012222;-9.806634;0.012215;0.859268;-0.162822;-0.653861;-1.210124;0.433714;0.048869;200.0;-25.32;27.54;45.96;73.4876;89.8972;-45.0162;0.0;1017.74;62.40341;;;;;;0 / 0;85.8;45.0;3.704;5685;2014-11-17 16:54:51:216
-0.086191;-9.605536;-0.325611;0.035539;-9.781408;-0.702238;-0.12173;0.175872;0.376627;-1.255939;1.210429;0.013439;197.0;-27.12;25.56;48.3;207.4144;85.8883;-177.1028;0.0;1017.74;62.40341;;;;;;0 / 0;85.8;45.0;3.704;5749;2014-11-17 16:54:51:280
-1.819593;-9.471462;-0.699107;0.147771;-9.709998;-1.365468;-1.967364;0.238536;0.666361;-0.954172;0.965778;-0.11637;198.0;-28.38;24.84;48.66;207.4144;85.8883;-177.1028;0.0;1017.76;62.40341;;;;;;0 / 0;85.8;45.0;3.704;5799;2014-11-17 16:54:51:330
-0.68953;-9.691728;-0.402226;0.309588;-9.620762;-1.874961;-0.999118;-0.070966;1.472735;-0.664927;0.025656;-0.04612;197.0;-31.92;22.98;48.96;204.4365;78.8264;-170.6241;0.0;1017.76;62.40341;;;;;;0 / 0;85.8;45.0;3.704;5862;2014-11-17 16:54:51:393
-0.325611;-9.346964;-2.691083;0.595963;-9.39064;-2.762438;-0.921575;0.043677;0.071356;-0.895528;0.437685;-0.191812;194.0;-33.3;22.44;49.14;206.6686;76.3451;-169.7821;0.0;1017.76;62.40341;;;;;;0 / 0;85.8;45.0;3.704;5936;2014-11-17 16:54:51:467
0.469264;-9.605536;-2.806004;0.741138;-9.243698;-3.18985;-0.271874;-0.361838;0.383846;-0.7309;0.485638;0.033903;194.0;-36.3;21.6;50.04;207.3091;73.2515;-167.8257;0.0;1017.76;62.40341;;;;;;0 / 0;85.8;45.0;3.704;5991;2014-11-17 16:54:51:522
0.469264;-9.605536;-2.806004;0.741138;-9.243698;-3.18985;-0.271874;-0.361838;0.383846;-0.668897;0.690889;0.0956;194.0;-37.2;21.72;50.64;207.3091;73.2515;-167.8257;0.0;1017.76;57.71872;;;;;;0 / 0;85.8;45.0;3.704;6041;2014-11-17 16:54:51:572
-1.015141;-12.35408;0.086191;0.853935;-9.152978;-3.415286;-1.869077;-3.201102;3.501478;-0.622472;1.151176;0.089797;205.0;-38.64;22.02;50.7;208.3922;68.9622;-165.962;0.0;1017.76;57.71872;;;;;;0 / 0;85.8;45.0;3.704;6093;2014-11-17 16:54:51:624
-4.692635;-12.5935;2.70066;0.949127;-9.186132;-3.299165;-5.641762;-3.407369;5.999825;1.740355;0.341474;0.746172;208.0;-41.76;23.28;49.08;208.3922;68.9622;-165.962;0.0;1017.74;57.71872;;;;;;0 / 0;85.8;45.0;3.704;6154;2014-11-17 16:54:51:685
5.506664;-10.429142;-0.814029;0.832538;-9.474826;-2.388494;4.674126;-0.954316;1.574465;2.287385;-0.07758;0.570548;216.0;-43.86;28.86;43.74;212.3687;69.5086;-163.9501;0.0;1017.74;57.71872;;;;;;0 / 0;85.8;45.0;3.704;6211;2014-11-17 16:54:51:742
3.399767;-13.52245;-3.380613;0.584271;-9.724992;-1.119614;2.815496;-3.797459;-2.260999;2.160631;0.905608;0.532369;233.0;-43.62;33.12;39.66;201.8601;82.6009;-152.4422;0.0;1017.74;57.71872;;;;;;0 / 0;85.8;45.0;3.704;6263;2014-11-17 16:54:51:794
0.124498;-10.658986;-2.27928;0.324041;-9.800286;0.140717;-0.199543;-0.8587;-2.419997;2.231491;0.449597;0.551001;252.0;-41.82;37.86;34.8;201.8601;82.6009;-152.4422;0.0;1017.72;57.71872;;;;;;0 / 0;85.8;45.0;3.704;6315;2014-11-17 16:54:51:846
0.258574;-8.580818;-1.80044;0.053552;-9.721248;1.290289;0.205022;1.14043;-3.090729;1.735468;-0.168904;0.493274;271.0;-37.14;44.82;22.98;119.0339;87.9356;-66.5268;0.0;1017.72;57.71872;;;;;;0 / 0;85.8;45.0;3.704;6386;2014-11-17 16:54:51:917
0.220267;-7.575254;-1.532289;-0.143475;-9.56359;2.165073;0.363741;1.988337;-3.697362;1.130406;-0.649044;0.62125;264.0;-31.86;47.82;12.78;58.046;82.433;-2.3766;0.0;1017.72;62.99269;;;;;;0 / 0;85.8;45.0;3.704;6453;2014-11-17 16:54:51:984
0.612916;-7.029376;-0.248997;-0.33678;-9.394178;2.793986;0.949696;2.364803;-3.042983;0.529315;-0.06353;0.537561;255.0;-27.78;48.6;6.18;48.0828;73.3234;6.8731;0.0;1017.66;62.99269;;;;;;0 / 0;85.8;45.0;3.704;6525;2014-11-17 16:54:52:056
-1.80044;-9.251194;4.501099;-0.753192;-9.39502;2.708629;-1.047248;0.143826;1.79247;-0.724792;-0.465174;0.145691;244.0;-24.84;49.14;3.9;46.2309;72.224;11.5251;0.0;1017.66;62.99269;;;;;;0 / 0;85.8;45.0;3.704;6617;2014-11-17 16:54:52:148
-1.149217;-10.026916;6.512229;-0.651996;-9.442204;2.567109;-0.497221;-0.584712;3.94512;0.14508;-1.475239;0.01741;222.0;-22.68;49.68;3.9;41.3879;73.3405;15.5397;0.0;1017.71;62.99269;;;;;;0 / 0;85.8;45.0;3.704;6677;2014-11-17 16:54:52:208
0.6608;-9.078812;3.916914;-0.360204;-9.43149;2.66226;1.021004;0.352678;1.254654;-0.065668;-1.351845;-0.011301;222.0;-21.36;50.1;5.76;42.1222;74.1006;7.7053;0.0;1017.71;62.99269;;;;;;0 / 0;85.8;45.0;3.704;6727;2014-11-17 16:54:52:258
2.48997;-15.50485;2.719813;-0.063751;-9.43049;2.689273;2.55372;-6.074361;0.03054;-0.117592;-0.772439;-0.05681;211.0;-20.76;50.22;6.66;42.1222;74.1006;7.7053;0.0;1017.71;57.95684;;;;;;0 / 0;85.8;45.0;3.704;6777;2014-11-17 16:54:52:308
2.48997;-15.50485;2.719813;-0.063751;-9.43049;2.689273;2.55372;-6.074361;0.03054;-0.399811;-0.237321;0.126144;198.0;-19.98;50.16;7.2;43.492;74.0793;1.358;0.0;1017.71;57.95684;;;;;;0 / 0;85.8;45.0;3.704;6830;2014-11-17 16:54:52:361
-0.172383;-7.125144;-4.644751;-0.007549;-9.535338;2.290768;-0.164833;2.410195;-6.935518;-1.019534;-0.415999;0.376904;197.0;-19.26;49.74;8.16;43.492;74.0793;1.358;0.0;1017.65;57.95684;;;;;;0 / 0;85.8;45.0;3.704;6880;2014-11-17 16:54:52:411
-0.392649;-9.902418;-2.671929;-0.092925;-9.678104;1.579886;-0.299724;-0.224313;-4.251815;-1.315193;-0.10568;-0.255647;191.0;-18.06;49.14;10.68;41.2538;76.4912;0.1888;0.0;1017.65;57.95684;;;;;;0 / 0;85.8;45.0;3.704;6933;2014-11-17 16:54:52:464
-0.296881;-9.768342;-0.603339;0.091975;-9.774006;0.794183;-0.388856;0.005664;-1.397522;-0.901332;-0.604451;-0.160352;189.0;-17.82;48.72;12.96;52.6234;85.3237;-6.606;0.0;1017.65;57.95684;;;;;;0 / 0;85.8;45.0;3.704;6988;2014-11-17 16:54:52:519
0.68953;-9.825804;-0.296881;0.247339;-9.800406;0.247484;0.442191;-0.025397;-0.544364;-0.916603;-0.593761;-0.072082;183.0;-17.76;48.12;15.06;52.6234;85.3237;-6.606;0.0;1017.64;57.95684;;;;;;0 / 0;85.8;45.0;3.704;7041;2014-11-17 16:54:52:572
0.191536;-9.62469;-0.622492;0.311496;-9.796398;-0.322362;-0.11996;0.171708;-0.300131;-0.99907;0.233961;0.015577;183.0;-18.6;46.98;19.68;87.6557;87.9553;-44.9832;0.0;1017.64;57.95684;;;;;;0 / 0;85.8;45.0;3.704;7091;2014-11-17 16:54:52:622
-1.13964;-9.56723;-1.13964;0.377582;-9.758588;-0.893168;-1.517222;0.191359;-0.246472;-0.887893;0.52565;-0.12034;180.0;-18.9;46.5;21.36;177.963;87.38;-135.982;0.0;1017.64;58.67852;;;;;;0 / 0;85.8;45.0;3.704;7146;2014-11-17 16:54:52:677
0.086191;-9.940724;-0.957681;0.517003;-9.698164;-1.359674;-0.430812;-0.242561;0.401993;-0.783435;0.084605;-0.173791;180.0;-19.56;45.48;24.06;204.2731;81.4697;-159.1811;0.0;1017.64;58.67852;;;;;;0 / 0;85.8;45.0;3.704;7210;2014-11-17 16:54:52:741
0.92895;-9.844956;-0.756568;0.631743;-9.626676;-1.760238;0.297207;-0.218282;1.00367;-0.618806;-0.444099;-0.135612;180.0;-19.44;44.76;25.32;204.2731;81.4697;-159.1811;0.0;1017.64;58.67852;;;;;;0 / 0;85.8;45.0;3.704;7270;2014-11-17 16:54:52:801
-0.373495;-9.969456;-0.517148;0.708523;-9.537204;-2.17028;-1.082018;-0.432251;1.653133;-0.800844;0.485332;-0.071471;173.0;-19.92;43.2;28.26;202.7089;79.0061;-160.2571;0.0;1017.64;58.67852;;;;;;0 / 0;85.8;45.0;3.704;7331;2014-11-17 16:54:52:862
1.149217;-8.743624;-3.055001;0.829862;-9.4845;-2.350739;0.319355;0.740875;-0.704262;-0.396146;0.640798;0.138056;173.0;-19.98;42.78;29.22;203.6745;76.5379;-161.9199;0.0;1017.64;58.67852;;;;;;0 / 0;85.8;45.0;3.704;7392;2014-11-17 16:54:52:923
-0.775721;-10.505756;-1.474828;0.913405;-9.427526;-2.541219;-1.689126;-1.07823;1.066391;-0.220522;1.001514;0.086743;175.0;-20.16;41.52;29.94;201.4477;74.0164;-160.2298;0.0;1017.7;58.67852;;;;;;0 / 0;85.8;45.0;3.704;7469;2014-11-17 16:54:53:000
0.392649;-12.220004;-0.708684;1.004257;-9.44096;-2.455635;-0.611608;-2.779044;1.746952;0.217468;1.107804;0.186314;178.0;-20.28;41.16;29.82;201.4477;74.0164;-160.2298;0.0;1017.7;56.25101;;;;;;0 / 0;85.8;45.0;3.704;7525;2014-11-17 16:54:53:056
3.41892;-9.768342;0.632069;1.091499;-9.568732;-1.84889;2.327421;-0.19961;2.48096;1.876273;0.302684;0.354913;186.0;-20.76;39.96;28.08;200.4627;74.3038;-157.7574;0.0;1017.71;56.25101;;;;;;0 / 0;85.8;45.0;3.704;7589;2014-11-17 16:54:53:120
2.30801;-11.089942;-4.242525;1.054534;-9.717394;-0.7941;1.253476;-1.372548;-3.448426;1.676214;1.364368;0.124922;191.0;-21.24;39.18;23.46;191.6961;77.3534;-149.4444;0.0;1017.71;56.25101;;;;;;0 / 0;85.8;45.0;3.704;7653;2014-11-17 16:54:53:184
1.771709;-10.572794;-3.198653;1.004324;-9.75388;0.153475;0.767386;-0.818914;-3.352128;1.547016;1.032057;0.323148;208.0;-21.36;39.06;20.28;120.6621;84.0534;-81.3116;0.0;1017.71;56.25101;;;;;;0 / 0;85.8;45.0;3.704;7707;2014-11-17 16:54:53:238
1.838747;-8.523358;-2.451662;0.841064;-9.727106;0.920015;0.997683;1.203748;-3.371677;1.021978;0.338114;0.330478;215.0;-21.66;39.06;15.96;120.6621;84.0534;-81.3116;0.0;1017.71;56.25101;;;;;;0 / 0;85.8;45.0;3.704;7771;2014-11-17 16:54:53:302
1.37906;-6.464344;-2.451662;0.744439;-9.688724;1.320903;0.634621;3.224381;-3.772565;0.301462;-0.00733;0.075747;219.0;-21.3;39.06;13.8;87.3559;82.6974;-42.4331;0.0;1017.71;56.25101;;;;;;0 / 0;85.8;45.0;3.704;7821;2014-11-17 16:54:53:352
-1.312023;-8.552088;-0.919373;0.748461;-9.68807;1.323437;-2.060484;1.135982;-2.24281;-0.70952;-0.979828;-0.041844;213.0;-21.18;39.06;11.46;77.4078;81.0809;-29.4901;0.0;1017.71;60.71369;;;;;;0 / 0;85.8;45.0;3.704;7886;2014-11-17 16:54:53:417
1.101333;-9.165004;4.395755;0.837103;-9.712944;1.062236;0.26423;0.547941;3.333519;0.087659;-0.175624;0.490525;204.0;-21.6;39.06;11.88;87.1579;82.0731;-38.2401;0.0;1017.75;60.71369;;;;;;0 / 0;85.8;45.0;3.704;7953;2014-11-17 16:54:53:484
2.920926;-10.352528;-0.076614;0.679819;-9.727606;1.040154;2.241108;-0.624923;-1.116768;0.11301;-0.076969;0.277333;200.0;-21.48;39.0;12.72;87.1579;82.0731;-38.2401;0.0;1017.75;60.71369;;;;;;0 / 0;85.8;45.0;3.704;8004;2014-11-17 16:54:53:535
0.737414;-11.57836;2.537854;0.621789;-9.724936;1.099718;0.115625;-1.853422;1.438135;0.023213;-0.080329;0.054672;197.0;-21.24;39.36;13.5;78.4231;82.7205;-33.1676;0.0;1017.75;60.71369;;;;;;0 / 0;85.8;45.0;3.704;8063;2014-11-17 16:54:53:594
-0.679953;-7.594407;0.181959;0.690929;-9.71767;1.122447;-1.370882;2.123264;-0.940487;0.014966;-0.257174;0.415388;184.0;-21.12;39.6;14.34;76.0144;82.2758;-31.6146;0.0;1017.7;60.71369;;;;;;0 / 0;85.8;45.0;3.704;8140;2014-11-17 16:54:53:671
1.187524;-10.611102;1.685518;0.55783;-9.721978;1.158604;0.629694;-0.889124;0.526914;-0.18723;0.137139;0.076664;178.0;-20.64;39.54;14.34;70.7694;82.4654;-25.7093;0.0;1017.7;60.71369;;;;;;0 / 0;85.8;45.0;3.704;8206;2014-11-17 16:54:53:737
-0.124498;-9.77792;0.948104;0.447985;-9.739186;1.057326;-0.572483;-0.038733;-0.109222;-0.018021;0.154854;0.232434;168.0;-19.8;39.96;14.16;67.8144;83.2755;-22.9622;0.0;1017.7;55.04943;;;;;;0 / 0;85.8;45.0;3.704;8274;2014-11-17 16:54:53:805
-0.124498;-9.77792;0.948104;0.447985;-9.739186;1.057326;-0.572483;-0.038733;-0.109222;0.04215;-0.012217;0.212887;162.0;-19.68;40.08;14.4;67.8144;83.2755;-22.9622;0.0;1017.78;55.04943;;;;;;0 / 0;85.8;45.0;3.704;8328;2014-11-17 16:54:53:859
0.440533;-9.921572;0.086191;0.390846;-9.743066;1.044171;0.049687;-0.178505;-0.957979;-0.180816;-0.233961;0.10568;162.0;-19.86;40.2;15.06;64.3122;83.4719;-20.5215;0.0;1017.78;55.04943;;;;;;0 / 0;85.8;45.0;3.704;8382;2014-11-17 16:54:53:913
0.938527;-9.528922;1.11091;0.395111;-9.752002;0.955383;0.543416;0.223079;0.155526;-0.122478;-0.065057;0.045815;158.0;-19.2;40.38;15.3;64.3122;83.4719;-20.5215;0.0;1017.78;55.04943;;;;;;0 / 0;85.8;45.0;3.704;8433;2014-11-17 16:54:53:964
-0.565032;-9.883264;1.331176;0.389049;-9.75637;0.912288;-0.954081;-0.126895;0.418888;-0.011912;0.108123;0.126144;151.0;-19.26;40.2;16.08;63.7007;83.9484;-22.4682;0.0;1017.78;55.04943;;;;;;0 / 0;85.8;45.0;3.704;8486;2014-11-17 16:54:54:017
0.114922;-9.691728;0.823605;0.353079;-9.759048;0.898157;-0.238158;0.067321;-0.074551;-0.022297;0.020769;0.103236;153.0;-19.08;40.38;15.78;63.3008;84.3525;-21.4606;0.0;1017.78;55.04943;;;;;;0 / 0;85.8;45.0;3.704;8548;2014-11-17 16:54:54:079
0.383072;-9.65342;0.526724;0.339635;-9.75882;0.905785;0.043438;0.105399;-0.37906;-0.005192;0.065363;0.087354;150.0;-19.38;40.14;15.54;62.4413;84.3389;-20.5541;0.0;1017.78;55.04943;;;;;;0 / 0;85.8;45.0;3.704;8611;2014-11-17 16:54:54:142
0.727837;-9.758766;0.833182;0.340857;-9.758738;0.906229;0.38698;-2.9E-5;-0.073046;-0.08094;0.098349;0.045509;146.0;-19.32;40.14;15.6;62.4413;84.3389;-20.5541;0.0;1017.72;30.59949;;;;;;0 / 0;85.8;45.0;3.704;8665;2014-11-17 16:54:54:196
-0.248997;-9.62469;1.493982;0.349152;-9.759644;0.893197;-0.598149;0.134954;0.600785;0.010079;0.124617;0.055894;153.0;-19.56;39.78;15.6;62.489;84.334;-20.6126;0.0;1017.72;30.59949;;;;;;0 / 0;85.8;45.0;3.704;8717;2014-11-17 16:54:54:248
0.21069;-9.720458;1.034295;0.343991;-9.759122;0.900908;-0.133302;0.038663;0.133388;-0.013134;0.080329;0.069639;155.0;-19.5;40.26;15.66;62.7839;84.3566;-20.8982;0.0;1017.72;30.59949;;;;;;0 / 0;85.8;45.0;3.704;8798;2014-11-17 16:54:54:329
0.325611;-9.38527;0.622492;0.348553;-9.758944;0.901066;-0.022942;0.373673;-0.278574;0.034514;-0.008247;0.087659;155.0;-19.26;40.2;15.66;63.0018;84.3462;-21.1476;0.0;1017.72;30.59949;;;;;;0 / 0;85.8;45.0;3.704;8854;2014-11-17 16:54:54:385
-0.612916;-8.705316;-1.522712;0.321107;-9.762498;0.872296;-0.934023;1.057181;-2.395008;-0.029627;-0.036652;0.071471;150.0;-19.14;40.26;15.9;63.0018;84.3462;-21.1476;0.0;1017.72;30.59949;;;;;;0 / 0;85.8;45.0;3.704;8908;2014-11-17 16:54:54:439
1.551443;-9.634268;1.264139;0.336607;-9.765196;0.835465;1.214836;0.130929;0.428673;0.029932;-0.167377;0.105069;144.0;-18.84;39.96;15.66;62.4122;84.5611;-20.2095;0.0;1017.72;30.59949;;;;;;0 / 0;85.8;45.0;3.704;8967;2014-11-17 16:54:54:498