sep=;
ACCELEROMETER X (m/s²);ACCELEROMETER Y (m/s²);ACCELEROMETER Z (m/s²);GRAVITY X (m/s²);GRAVITY Y (m/s²);GRAVITY Z (m/s²);LINEAR ACCELERATION X (m/s²);LINEAR ACCELERATION Y (m/s²);LINEAR ACCELERATION Z (m/s²);GYROSCOPE X (rad/s);GYROSCOPE Y (rad/s);GYROSCOPE Z (rad/s);LIGHT (lux);MAGNETIC FIELD X (μT);MAGNETIC FIELD Y (μT);MAGNETIC FIELD Z (μT);ORIENTATION X (°);ORIENTATION Y (°);ORIENTATION Z (°);PROXIMITY (i);ATMOSPHERIC PRESSURE (hPa);SOUND LEVEL (dB);LOCATION Latitude : ;LOCATION Longitude : ;LOCATION Altitude ( m);LOCATION Speed ( Kmh);LOCATION Accuracy ( m);Satellites in range;Temperature (F);Level (%);Voltage (Volt);Time since start in ms ;YYYY-MO-DD HH-MI-SS_SSS
1.465252;-10.879252;4.357447;1.218999;-9.568588;1.768199;0.246252;-1.310664;2.589248;1.8216;0.413556;0.543976;321.0;-27.72;49.98;-12.9;133.7411;77.3496;-34.5824;0.0;1017.85;62.56426;;;;;;0 / 0;85.8;45.0;3.667;21;2014-11-17 16:57:13:331
0.143652;-8.66701;0.153229;0.647362;-9.21298;3.297318;-0.503709;0.54597;-3.144089;0.955088;0.182343;0.488081;357.0;-25.32;47.82;-15.48;109.8224;72.8289;-18.1302;0.0;1017.85;62.56426;;;;;;0 / 0;85.8;45.0;3.667;94;2014-11-17 16:57:13:404
0.143652;-8.66701;0.153229;0.647362;-9.21298;3.297318;-0.503709;0.54597;-3.144089;0.718378;-0.022907;0.48747;357.0;-23.7;46.5;-17.1;109.8224;72.8289;-18.1302;0.0;1017.85;62.56426;;;;;;0 / 0;85.8;45.0;3.667;152;2014-11-17 16:57:13:462
-0.402226;-7.661445;1.321599;0.421652;-9.103876;3.621052;-0.823877;1.442432;-2.299452;0.115454;0.071777;0.430965;358.0;-23.1;45.06;-17.76;96.4279;68.1771;-6.6419;0.0;1017.91;52.08257;;;;;;0 / 0;85.8;45.0;3.667;202;2014-11-17 16:57:13:512
0.277727;-8.025364;2.911349;0.240651;-9.11348;3.61344;0.037076;1.088117;-0.702091;-0.299324;-0.267254;0.259312;357.0;-21.78;43.8;-17.34;92.4023;68.3285;-3.8102;0.0;1017.91;52.08257;;;;;;0 / 0;85.8;45.0;3.667;254;2014-11-17 16:57:13:564
-0.220267;-8.101978;4.481946;0.220957;-9.164838;3.482432;-0.441223;1.06286;0.999514;-0.33903;-0.267559;0.075136;357.0;-21.96;43.62;-16.44;92.4023;68.3285;-3.8102;0.0;1017.91;52.08257;;;;;;0 / 0;85.8;45.0;3.667;316;2014-11-17 16:57:13:626
-0.794875;-8.647856;3.371036;0.223168;-9.208586;3.364897;-1.018043;0.560729;0.006139;-0.189368;-0.124617;0.238237;357.0;-21.96;43.68;-15.36;89.0068;69.1561;-3.6305;0.0;1017.85;52.08257;;;;;;0 / 0;85.8;45.0;3.667;367;2014-11-17 16:57:13:677
-0.890643;-9.730036;3.878607;0.192229;-9.244314;3.267427;-1.082872;-0.485721;0.61118;-0.214414;-0.717461;0.116981;338.0;-22.38;42.66;-12.12;87.568;70.5028;-3.3669;0.0;1017.85;52.08257;;;;;;0 / 0;85.8;45.0;3.667;452;2014-11-17 16:57:13:762
2.930503;-13.924676;2.48997;0.574797;-9.367186;2.845317;2.355706;-4.55749;-0.355347;-0.49755;-1.046412;-0.07086;302.0;-22.68;41.82;-9.3;82.0185;71.1333;-5.2897;0.0;1017.82;52.08257;;;;;;0 / 0;85.8;45.0;3.667;515;2014-11-17 16:57:13:825
2.930503;-13.924676;2.48997;0.574797;-9.367186;2.845317;2.355706;-4.55749;-0.355347;-1.274265;0.097128;-0.291688;302.0;-23.64;41.22;-7.02;82.0185;71.1333;-5.2897;0.0;1017.82;50.5434;;;;;;0 / 0;85.8;45.0;3.667;567;2014-11-17 16:57:13:877
-1.628057;-8.341399;-3.945644;0.651959;-9.497284;2.35519;-2.280016;1.155886;-6.300834;-0.816727;-0.128587;0.342085;287.0;-25.02;40.02;-2.34;82.6285;72.7823;-11.4209;0.0;1017.82;50.5434;;;;;;0 / 0;85.8;45.0;3.667;617;2014-11-17 16:57:13:927
4.434062;-8.686164;-2.413355;0.551791;-9.61989;1.823087;3.882271;0.933726;-4.236442;-1.255633;-0.216552;-0.327118;282.0;-24.96;39.9;-0.18;88.4082;78.8002;-16.8394;0.0;1017.82;50.5434;;;;;;0 / 0;85.8;45.0;3.667;671;2014-11-17 16:57:13:981
-2.049437;-10.697292;-1.905785;0.742844;-9.72164;1.05275;-2.792281;-0.975653;-2.958535;-1.059546;-0.379347;-0.321621;271.0;-25.56;39.42;3.24;88.4082;78.8002;-16.8394;0.0;1017.83;50.5434;;;;;;0 / 0;85.8;45.0;3.667;730;2014-11-17 16:57:14:040
2.164359;-9.155426;-1.312023;0.861105;-9.75935;0.428919;1.303254;0.603923;-1.740942;-0.894307;-0.30024;0.029322;260.0;-25.8;39.0;7.8;100.216;82.4504;-35.2077;0.0;1017.83;50.5434;;;;;;0 / 0;85.8;45.0;3.667;800;2014-11-17 16:57:14:110
-1.522712;-9.337386;-1.608903;0.90631;-9.743566;-0.641803;-2.429022;0.406179;-0.9671;-0.791987;0.43738;-0.114537;256.0;-26.4;38.1;11.22;166.0503;84.816;-98.8457;0.0;1017.83;50.5434;;;;;;0 / 0;85.8;45.0;3.667;892;2014-11-17 16:57:14:202
0.114922;-9.59596;-2.049437;1.00868;-9.690652;-1.115445;-0.893759;0.094691;-0.933991;-0.882395;0.02474;-0.082467;256.0;-27.12;37.32;12.66;191.2247;83.4977;-125.3042;0.0;1017.83;62.98168;;;;;;0 / 0;85.8;45.0;3.667;953;2014-11-17 16:57:14:263
0.68953;-9.23204;-1.474828;1.106183;-9.604666;-1.6423;-0.416653;0.372625;0.167471;-0.948979;0.160658;-0.145997;248.0;-27.66;36.06;14.34;218.4131;78.3511;-146.0375;0.0;1017.83;62.98168;;;;;;0 / 0;85.8;45.0;3.667;1021;2014-11-17 16:57:14:331
-1.963245;-8.829816;-2.681506;1.257551;-9.489892;-2.128594;-3.220796;0.660077;-0.552912;-0.816727;0.646295;-0.164323;245.0;-28.14;34.62;16.26;221.1251;75.3978;-149.4258;0.0;1017.83;62.98168;;;;;;0 / 0;85.8;45.0;3.667;1088;2014-11-17 16:57:14:398
1.312023;-9.528922;-2.815581;1.422014;-9.378646;-2.487826;-0.109991;-0.150277;-0.327754;-0.442877;0.419054;0.033292;252.0;-28.86;33.84;16.86;221.1251;75.3978;-149.4258;0.0;1017.83;62.98168;;;;;;0 / 0;85.8;45.0;3.667;1141;2014-11-17 16:57:14:451
-0.641646;-13.28303;-1.771709;1.49562;-9.31945;-2.661079;-2.137266;-3.963581;0.88937;-0.588874;0.779464;-0.090713;249.0;-30.3;31.86;17.82;223.2646;73.01;-150.2482;0.0;1017.83;62.98168;;;;;;0 / 0;85.8;45.0;3.667;1197;2014-11-17 16:57:14:507
-4.031835;-12.526464;3.265691;1.579327;-9.35143;-2.495379;-5.611162;-3.175033;5.761071;1.689348;0.239154;0.666454;266.0;-31.02;29.76;17.22;218.3023;72.474;-147.6703;0.0;1018.0;62.98168;;;;;;0 / 0;85.8;45.0;3.667;1283;2014-11-17 16:57:14:593
3.371036;-11.128248;-1.187524;1.327067;-9.59562;-1.527539;2.043969;-1.532629;0.340015;2.4288;-0.232434;0.904386;271.0;-31.02;28.98;16.38;206.6446;78.0922;-139.0171;0.0;1018.0;61.80341;;;;;;0 / 0;85.8;45.0;3.667;1347;2014-11-17 16:57:14:657
3.849877;-13.599066;-2.882619;0.967505;-9.757028;-0.186375;2.882371;-3.842037;-2.696244;2.433687;0.0956;0.775188;307.0;-31.14;27.84;14.28;165.3272;84.2337;-100.9036;0.0;1018.0;61.80341;;;;;;0 / 0;85.8;45.0;3.667;1409;2014-11-17 16:57:14:719
1.264139;-10.544064;-1.848324;0.572066;-9.716976;1.193105;0.692073;-0.827087;-3.041429;2.431244;-0.113926;0.858571;321.0;-31.08;27.84;13.38;165.3272;84.2337;-100.9036;0.0;1018.0;61.80341;;;;;;0 / 0;85.8;45.0;3.667;1462;2014-11-17 16:57:14:772
0.536301;-9.672574;-1.8579;0.118077;-9.495316;2.448548;0.418224;-0.177258;-4.306448;1.923004;-0.084605;0.818559;340.0;-30.96;28.86;11.58;61.4536;75.5241;-2.7609;0.0;1018.0;61.80341;;;;;;0 / 0;85.8;45.0;3.667;1519;2014-11-17 16:57:14:829
1.762132;-6.761225;-2.183512;-0.181584;-9.173442;3.461988;1.943716;2.412217;-5.6455;1.417513;-0.597121;0.623083;360.0;-30.6;29.88;10.74;53.599;69.2979;3.0025;0.0;1018.0;61.80341;;;;;;0 / 0;85.8;45.0;3.667;1577;2014-11-17 16:57:14:887
-0.134075;-5.918466;-0.153229;-0.363454;-8.840424;4.229088;0.229378;2.921957;-4.382316;0.408058;0.270919;0.539699;357.0;-29.1;32.52;8.94;48.8163;64.3523;4.912;0.0;1017.94;61.80341;;;;;;0 / 0;85.8;45.0;3.667;1636;2014-11-17 16:57:14:946
-1.503559;-4.922478;0.316035;-0.60301;-8.80487;4.275634;-0.900548;3.882391;-3.959599;-0.221744;0.069639;0.30696;360.0;-28.2;33.84;8.52;48.8163;64.3523;4.912;0.0;1017.94;60.45639;;;;;;0 / 0;85.8;45.0;3.667;1686;2014-11-17 16:57:14:996
-1.37906;-10.237606;7.393295;0.203204;-9.80367;-0.130884;-1.582264;-0.433935;7.524179;-0.983188;0.074831;0.035125;357.0;-27.18;35.76;9.42;43.5546;63.8765;8.0277;0.0;1017.94;60.45639;;;;;;0 / 0;85.8;45.0;3.667;1746;2014-11-17 16:57:15:056
-0.727837;-11.501744;7.584831;0.077779;-9.775848;0.77274;-0.805616;-1.725897;6.812091;-0.145386;-0.558331;0.139583;338.0;-27.18;36.78;10.68;68.2715;85.4577;-5.7477;0.0;1017.79;60.45639;;;;;;0 / 0;85.8;45.0;3.667;1810;2014-11-17 16:57:15:120
-2.030283;-7.747637;-3.86903;-0.119887;-9.799838;0.345219;-1.910396;2.052201;-4.214249;-0.563523;-0.920879;0.097738;313.0;-27.48;38.88;13.68;41.6411;87.8643;19.151;0.0;1017.79;60.45639;;;;;;0 / 0;85.8;45.0;3.667;1862;2014-11-17 16:57:15:172
2.365471;-14.106636;2.365471;0.184323;-9.79824;0.3618;2.181148;-4.308395;2.003671;-1.018312;0.011606;-0.287718;281.0;-27.66;40.2;15.12;41.6411;87.8643;19.151;0.0;1017.79;60.45639;;;;;;0 / 0;85.8;45.0;3.667;1917;2014-11-17 16:57:15:227
3.916914;-6.703765;-4.041412;0.477788;-9.794128;-0.130835;3.439126;3.090365;-3.910577;-1.209819;-0.178373;0.37049;269.0;-26.88;41.22;16.14;83.2703;87.627;-26.9971;0.0;1017.79;60.45639;;;;;;0 / 0;85.8;45.0;3.667;1976;2014-11-17 16:57:15:286
-2.154781;-11.319786;-1.063026;0.343257;-9.79585;-0.306376;-2.498038;-1.523936;-0.75665;-1.561372;0.003054;-0.482584;259.0;-26.34;42.66;19.2;185.9725;87.3108;-131.7507;0.0;1017.79;60.19684;;;;;;0 / 0;85.8;45.0;3.667;2050;2014-11-17 16:57:15:360
0.651223;-9.069236;-1.991976;0.311534;-9.793232;-0.407331;0.339689;0.723997;-1.584645;-1.222341;-0.162796;0.077274;255.0;-25.8;42.54;23.28;191.8736;87.0025;-142.5906;0.0;1017.79;60.19684;;;;;;0 / 0;85.8;45.0;3.667;2106;2014-11-17 16:57:15:416
0.047884;-9.80665;-0.411803;0.279558;-9.791586;-0.465901;-0.231674;-0.015064;0.054098;-1.298699;0.866512;0.007941;251.0;-26.04;42.3;25.5;191.8736;87.0025;-142.5906;0.0;1017.79;60.19684;;;;;;0 / 0;85.8;45.0;3.667;2164;2014-11-17 16:57:15:474
-2.806004;-9.59596;-0.938527;-0.017522;-9.793982;-0.498004;-2.788482;0.198021;-0.440523;-0.975552;1.47921;-0.064752;255.0;-27.18;41.7;28.2;193.8242;86.8239;-149.0346;0.0;1017.79;60.19684;;;;;;0 / 0;85.8;45.0;3.667;2236;2014-11-17 16:57:15:546
-0.746991;-9.557652;-0.804452;-0.088654;-9.793662;-0.496711;-0.658337;0.23601;-0.30774;-0.70219;0.069028;-0.143859;259.0;-28.38;41.28;28.86;236.6574;87.0509;169.8803;0.0;1017.79;60.19684;;;;;;0 / 0;85.8;45.0;3.667;2303;2014-11-17 16:57:15:613
1.005565;-8.820238;-1.37906;0.025301;-9.786768;-0.623622;0.980264;0.96653;-0.755438;-1.042747;0.472199;-0.231212;258.0;-29.1;40.98;28.74;236.6574;87.0509;169.8803;0.0;1017.76;60.19684;;;;;;0 / 0;85.8;45.0;3.667;2357;2014-11-17 16:57:15:667
-1.149217;-9.289502;-3.41892;-0.063872;-9.762194;-0.930537;-1.085345;0.472692;-2.488383;-0.780991;0.445321;-0.231518;255.0;-29.1;40.74;30.0;225.331;86.351;-177.6767;0.0;1017.76;58.08473;;;;;;0 / 0;85.8;45.0;3.667;2423;2014-11-17 16:57:15:733
1.484405;-9.20331;-2.288857;0.075878;-9.744492;-1.099771;1.408527;0.541182;-1.189086;-0.960891;0.542448;-0.137139;252.0;-29.4;40.8;30.78;224.7375;83.5456;-176.0532;0.0;1017.76;58.08473;;;;;;0 / 0;85.8;45.0;3.667;2475;2014-11-17 16:57:15:785
-0.526724;-10.984596;0.440533;0.01915;-9.763538;-0.918345;-0.545875;-1.221059;1.358878;-0.719294;1.070236;0.05681;258.0;-29.64;40.62;30.96;226.7165;84.6255;-178.8054;0.0;1017.86;58.08473;;;;;;0 / 0;85.8;45.0;3.667;2538;2014-11-17 16:57:15:848
-6.41646;-13.541604;2.422932;-0.636411;-9.774114;-0.481747;-5.780049;-3.76749;2.904679;1.089478;1.090089;0.686918;282.0;-29.28;41.04;29.34;282.4077;85.3313;127.1248;0.0;1017.86;58.08473;;;;;;0 / 0;85.8;45.0;3.667;2603;2014-11-17 16:57:15:913
4.357447;-12.124236;-0.727837;-0.272971;-9.801806;-0.142941;4.630419;-2.32243;-0.584896;2.547919;-0.209221;0.769996;291.0;-24.84;43.38;22.02;293.1422;88.1995;117.6388;0.0;1017.86;58.08473;;;;;;0 / 0;85.8;45.0;3.667;2675;2014-11-17 16:57:15:985
3.706224;-12.785036;-3.227384;0.116699;-9.800348;-0.331544;3.589526;-2.984688;-2.89584;2.34389;0.227853;0.623999;291.0;-20.76;43.8;16.26;293.1422;88.1995;117.6388;0.0;1017.93;58.08473;;;;;;0 / 0;85.8;45.0;3.667;2725;2014-11-17 16:57:16:035
-0.162806;-10.668562;-2.75812;0.092448;-9.79313;-0.506401;-0.255253;-0.875432;-2.251719;2.395203;-0.371101;0.596204;327.0;-16.8;43.32;10.56;231.8185;86.9911;-169.6541;0.0;1017.93;65.17887;;;;;;0 / 0;85.8;45.0;3.667;2776;2014-11-17 16:57:16:086
-0.6608;-9.212888;-2.384625;0.020217;-9.77999;-0.722351;-0.681017;0.567103;-1.662274;2.073582;-0.380264;0.606895;346.0;-10.74;38.52;1.02;278.1466;85.7741;-178.3968;0.0;1017.93;65.17887;;;;;;0 / 0;85.8;45.0;3.667;2830;2014-11-17 16:57:16:140
0.21069;-7.479486;-2.269703;-0.034038;-9.762498;-0.92892;0.244728;2.283012;-1.340783;1.407128;-1.146594;0.926072;343.0;-9.06;35.34;-1.38;278.1466;85.7741;-178.3968;0.0;1017.9;65.17887;;;;;;0 / 0;85.8;45.0;3.667;2882;2014-11-17 16:57:16:192
1.063026;-6.722918;-0.459687;0.085504;-9.756096;-0.990789;0.977521;3.033178;0.531102;1.008233;-0.967611;0.797485;331.0;-7.74;32.64;-2.58;309.0838;84.5609;177.9014;0.0;1017.9;65.17887;;;;;;0 / 0;85.8;45.0;3.667;2945;2014-11-17 16:57:16:255
0.842759;-5.238513;0.775721;-0.234703;-9.777968;-0.711785;1.077462;4.539456;1.487507;-0.162185;-0.158214;0.32101;318.0;-6.48;28.32;-2.52;325.2281;85.6169;161.7506;0.0;1017.9;65.17887;;;;;;0 / 0;85.8;45.0;3.667;3007;2014-11-17 16:57:16:317
-1.426944;-9.050082;6.742072;0.091695;-9.80109;-0.317225;-1.518639;0.751008;7.059298;-0.774883;-0.118508;0.186619;314.0;-5.82;25.32;-1.26;271.2968;88.0704;-163.8779;0.0;1017.89;65.17887;;;;;;0 / 0;85.8;45.0;3.667;3071;2014-11-17 16:57:16:381
-2.375048;-10.907982;7.192182;-0.149658;-9.789624;0.55792;-2.22539;-1.118359;6.634262;-0.202807;-0.813672;0.113621;293.0;-5.16;24.0;-0.36;271.2968;88.0704;-163.8779;0.0;1017.89;59.16139;;;;;;0 / 0;85.8;45.0;3.667;3130;2014-11-17 16:57:16:440
-1.608903;-9.299078;4.539407;-0.279619;-9.753222;0.983286;-1.329284;0.454144;3.556121;0.029322;-1.38361;0.171348;280.0;-4.38;20.82;2.94;52.1358;86.6232;15.0157;0.0;1017.89;59.16139;;;;;;0 / 0;85.8;45.0;3.667;3209;2014-11-17 16:57:16:519
2.011129;-3.955221;-6.483498;0.13465;-9.793468;0.490155;1.87648;5.838248;-6.973653;-0.7309;-1.404685;0.079107;264.0;-4.92;17.4;7.2;22.4678;85.6003;11.2589;0.0;1017.87;59.16139;;;;;;0 / 0;85.8;45.0;3.667;3279;2014-11-17 16:57:16:589
2.011129;-3.955221;-6.483498;0.13465;-9.793468;0.490155;1.87648;5.838248;-6.973653;-1.668273;0.964556;0.327118;264.0;-4.86;16.08;9.9;39.2708;87.0288;-15.3607;0.0;1017.87;59.16139;;;;;;0 / 0;85.8;45.0;3.667;3330;2014-11-17 16:57:16:640
-0.6608;-12.315774;-0.536301;0.128005;-9.803056;0.232522;-0.788805;-2.512717;-0.768823;-1.199434;-0.337808;-0.248011;253.0;-4.8;14.28;14.7;46.2859;88.4488;-28.8332;0.0;1017.87;59.16139;;;;;;0 / 0;85.8;45.0;3.667;3393;2014-11-17 16:57:16:703
0.047884;-8.542512;-2.585738;0.1033;-9.80609;0.016688;-0.055416;1.263578;-2.602426;-1.393078;0.153633;-0.145691;241.0;-4.32;13.86;16.62;46.2859;88.4488;-28.8332;0.0;1017.87;59.16139;;;;;;0 / 0;85.8;45.0;3.667;3447;2014-11-17 16:57:16:757
-0.181959;-9.854534;-0.47884;0.063023;-9.806104;-0.082142;-0.244982;-0.048429;-0.396699;-1.321302;0.782824;-0.065973;238.0;-4.5;13.5;17.82;154.8351;89.3951;-142.5028;0.0;1017.87;65.0801;;;;;;0 / 0;85.8;45.0;3.667;3499;2014-11-17 16:57:16:809
-0.459687;-9.20331;0.038307;-0.003643;-9.806526;-0.049035;-0.456044;0.603215;0.087342;-0.916909;0.823752;-0.186925;238.0;-4.14;12.3;19.56;195.6044;89.7126;175.7512;0.0;1017.87;65.0801;;;;;;0 / 0;85.8;45.0;3.667;3571;2014-11-17 16:57:16:881
-1.455675;-9.528922;-1.685518;-0.1101;-9.803854;-0.206636;-1.345575;0.274931;-1.478882;-0.922101;0.169821;-0.24007;241.0;-4.14;10.92;20.28;195.6044;89.7126;175.7512;0.0;1017.82;65.0801;;;;;;0 / 0;85.8;45.0;3.667;3625;2014-11-17 16:57:16:935
1.225831;-8.99262;-1.599327;0.016564;-9.799738;-0.367813;1.209268;0.807117;-1.231514;-1.127046;0.150884;-0.180205;235.0;-4.08;10.02;21.06;188.3579;87.8483;-177.4216;0.0;1017.82;65.0801;;;;;;0 / 0;85.8;45.0;3.667;3675;2014-11-17 16:57:16:985
0.316035;-9.59596;-1.359906;0.061004;-9.793694;-0.500235;0.255031;0.197734;-0.859671;-1.05924;0.493274;-0.291688;233.0;-4.14;8.82;21.78;188.3579;87.8483;-177.4216;0.0;1017.82;65.0801;;;;;;0 / 0;85.8;45.0;3.667;3725;2014-11-17 16:57:17:035
-1.244985;-10.180144;-3.744531;-0.056237;-9.77408;-0.796595;-1.188748;-0.406064;-2.947936;-0.769385;0.618501;-0.24679;233.0;-3.66;6.42;23.34;182.9691;87.0544;-173.0471;0.0;1017.85;65.0801;;;;;;0 / 0;85.8;45.0;3.667;3785;2014-11-17 16:57:17:095
0.670377;-9.844956;-1.063026;-0.027585;-9.771244;-0.832126;0.697962;-0.073713;-0.2309;-0.600786;0.977079;-0.007636;235.0;-3.84;4.08;24.24;191.562;85.1297;178.1013;0.0;1017.85;65.0801;;;;;;0 / 0;85.8;45.0;3.667;3857;2014-11-17 16:57:17:167
-5.06613;-13.9151;-0.220267;-0.486924;-9.770242;-0.689686;-4.579206;-4.144857;0.46942;0.594372;0.790765;0.506713;241.0;-5.52;0.96;25.62;228.4615;85.0613;144.7776;0.0;1017.85;59.53829;;;;;;0 / 0;85.8;45.0;3.667;3918;2014-11-17 16:57:17:228
3.303998;-11.769896;2.25055;-0.270998;-9.802198;-0.117582;3.574996;-1.967696;2.368132;2.091908;-0.032376;0.993878;258.0;-6.96;-0.42;26.88;228.4615;85.0613;144.7776;0.0;1017.88;59.53829;;;;;;0 / 0;85.8;45.0;3.667;3979;2014-11-17 16:57:17:289
4.271256;-11.9327;-3.591303;0.162903;-9.802008;-0.253986;4.108353;-2.130693;-3.337316;2.243403;0.980439;0.72357;260.0;-12.36;-1.62;30.78;263.676;88.2737;113.4553;0.0;1017.88;59.53829;;;;;;0 / 0;85.8;45.0;3.667;4038;2014-11-17 16:57:17:348
1.541866;-12.29662;-2.691083;0.286508;-9.791388;-0.465856;1.255358;-2.505233;-2.225226;2.465147;0.109039;0.783435;289.0;-15.9;-0.18;33.12;174.2654;86.803;-148.4079;0.0;1017.88;59.53829;;;;;;0 / 0;85.8;45.0;3.667;4096;2014-11-17 16:57:17:406
0.201113;-9.528922;-2.346318;0.264373;-9.785744;-0.582853;-0.06326;0.256822;-1.763465;2.153911;0.013744;0.659124;309.0;-23.22;7.14;35.28;189.0293;86.2581;-155.6017;0.0;1017.87;59.53829;;;;;;0 / 0;85.8;45.0;3.667;4168;2014-11-17 16:57:17:478
-0.124498;-8.121132;-1.695095;0.213982;-9.776226;-0.741627;-0.338481;1.655094;-0.953467;1.620626;-0.817032;0.908357;328.0;-25.86;11.76;34.5;189.0293;86.2581;-155.6017;0.0;1017.87;59.53829;;;;;;0 / 0;85.8;45.0;3.667;4222;2014-11-17 16:57:17:532
0.181959;-6.722918;-1.503559;0.184822;-9.762298;-0.913093;-0.002862;3.03938;-0.590466;1.263269;-0.802982;0.847576;327.0;-27.66;16.68;33.48;205.038;85.4856;-163.9055;0.0;1017.87;63.75032;;;;;;0 / 0;85.8;45.0;3.667;4272;2014-11-17 16:57:17:582
0.794875;-5.928043;0.641646;0.291476;-9.756282;-0.948886;0.503399;3.82824;1.590532;0.118202;-0.036957;0.588569;310.0;-28.8;25.38;31.02;207.7275;84.1905;-162.9242;0.0;1017.92;63.75032;;;;;;0 / 0;85.8;45.0;3.667;4332;2014-11-17 16:57:17:642
-0.526724;-6.856993;1.934515;0.292915;-9.767652;-0.823125;-0.819639;2.91066;2.75764;-1.044885;0.030543;0.109345;299.0;-29.16;28.74;29.88;207.7275;84.1905;-162.9242;0.0;1017.92;63.75032;;;;;;0 / 0;85.8;45.0;3.667;4384;2014-11-17 16:57:17:694
-4.098873;-12.028468;8.887278;-0.160648;-9.80421;0.14839;-3.938225;-2.224258;8.738888;-0.979828;-0.144164;0.07758;293.0;-30.36;32.88;30.0;207.2115;84.8886;-160.4115;0.0;1017.92;63.75032;;;;;;0 / 0;85.8;45.0;3.667;4447;2014-11-17 16:57:17:757
-1.551443;-9.097966;5.353435;-0.304873;-9.769978;0.790562;-1.24657;0.672011;4.562874;-0.245568;-0.985631;0.09499;269.0;-31.2;34.5;31.08;357.7678;88.7222;47.2714;0.0;1017.78;63.75032;;;;;;0 / 0;85.8;45.0;3.667;4508;2014-11-17 16:57:17:818
3.160346;-14.39394;-3.371036;0.046583;-9.799352;0.375384;3.113764;-4.594588;-3.74642;-0.846354;-0.40592;-0.555887;255.0;-31.92;37.86;33.72;49.0011;87.7895;-7.0738;0.0;1017.78;63.75032;;;;;;0 / 0;85.8;45.0;3.667;4577;2014-11-17 16:57:17:887
-3.131616;-5.659893;-8.360553;-0.256214;-9.792174;-0.466967;-2.875402;4.132282;-7.893585;-0.435547;-2.072055;0.115759;235.0;-31.62;39.6;34.56;49.0011;87.7895;-7.0738;0.0;1017.78;63.31757;;;;;;0 / 0;85.8;45.0;3.667;4631;2014-11-17 16:57:17:941
2.825158;-9.586384;-4.223372;0.025231;-9.740932;-1.13314;2.799928;0.154549;-3.090231;-1.560455;0.014355;-0.488998;231.0;-30.3;43.08;36.72;221.9639;83.3631;-178.7245;0.0;1017.8;63.31757;;;;;;0 / 0;85.8;45.0;3.667;4716;2014-11-17 16:57:18:026
-1.005565;-9.662998;-1.312023;0.187917;-9.609568;-1.947121;-1.193482;-0.053431;0.635099;-1.151175;0.046731;-0.115148;224.0;-30.36;43.5;37.86;221.9639;83.3631;-178.7245;0.0;1017.8;63.31757;;;;;;0 / 0;85.8;45.0;3.667;4766;2014-11-17 16:57:18:076
0.641646;-9.337386;-1.426944;0.28386;-9.46619;-2.545794;0.357786;0.128803;1.11885;-1.25655;0.523817;-0.07025;224.0;-31.92;42.42;40.74;219.9375;78.4938;-174.4874;0.0;1017.8;63.31757;;;;;;0 / 0;85.8;45.0;3.667;4823;2014-11-17 16:57:18:133
-0.756568;-9.988608;-0.191536;0.43443;-9.292954;-3.102036;-1.190997;-0.695655;2.9105;-1.045801;1.106582;-0.058643;222.0;-32.88;41.58;42.18;221.5167;71.373;-172.0278;0.0;1017.86;63.31757;;;;;;0 / 0;85.8;45.0;3.667;4895;2014-11-17 16:57:18:205
-1.436521;-9.528922;-1.647211;0.631685;-9.116812;-3.557397;-2.068206;-0.412111;1.910187;-0.871094;0.743423;-0.177151;226.0;-35.1;39.96;42.72;221.6333;68.3813;-169.931;0.0;1017.86;63.31757;;;;;;0 / 0;85.8;45.0;3.667;4946;2014-11-17 16:57:18:256
0.21069;-9.17458;-1.781286;0.855767;-8.959742;-3.893723;-0.645077;-0.214838;2.112437;-0.950201;0.255647;-0.118202;226.0;-35.82;39.42;43.38;221.6333;68.3813;-169.931;0.0;1017.86;61.21907;;;;;;0 / 0;85.8;45.0;3.667;4996;2014-11-17 16:57:18:306
0.746991;-8.96389;-1.16837;1.04125;-8.775748;-4.251165;-0.294259;-0.188142;3.082795;-0.945314;0.555277;-0.151495;224.0;-36.54;39.06;43.56;221.0382;66.0132;-167.6045;0.0;1017.84;61.21907;;;;;;0 / 0;85.8;45.0;3.667;5055;2014-11-17 16:57:18:365
-1.197101;-9.710882;-3.667917;1.259751;-8.550858;-4.633174;-2.456851;-1.160025;0.965257;-0.82253;0.669508;-0.22602;226.0;-38.64;38.04;44.52;222.5051;60.6854;-164.7891;0.0;1017.84;61.21907;;;;;;0 / 0;85.8;45.0;3.667;5105;2014-11-17 16:57:18:415
0.095768;-9.940724;-1.359906;1.474524;-8.39442;-4.850762;-1.378756;-1.546305;3.490856;-0.7309;0.567799;0.006414;230.0;-39.78;37.74;44.46;222.5051;60.6854;-164.7891;0.0;1017.84;61.21907;;;;;;0 / 0;85.8;45.0;3.667;5174;2014-11-17 16:57:18:484
-1.599327;-12.74673;-0.92895;1.575691;-8.382742;-4.839136;-3.175018;-4.363988;3.910186;-0.463952;1.078788;0.099876;233.0;-41.64;37.98;44.04;224.8203;58.8696;-163.0919;0.0;1017.86;61.21907;;;;;;0 / 0;85.8;45.0;3.667;5228;2014-11-17 16:57:18:538
-3.840299;-12.373234;2.116475;1.63035;-8.613296;-4.395847;-5.470649;-3.759937;6.512322;2.101071;-0.047342;1.075734;252.0;-41.4;40.14;39.72;226.528;58.7378;-161.964;0.0;1017.86;61.21907;;;;;;0 / 0;85.8;45.0;3.667;5306;2014-11-17 16:57:18:616
6.722919;-12.220004;-2.269703;1.483061;-9.114672;-3.300561;5.239858;-3.105333;1.030858;2.679255;-0.398284;0.918436;259.0;-39.54;42.0;36.0;215.683;68.3473;-155.8039;0.0;1017.86;63.7667;;;;;;0 / 0;85.8;45.0;3.667;5377;2014-11-17 16:57:18:687
3.246538;-12.98615;-2.461239;1.153304;-9.57937;-1.753843;2.093233;-3.40678;-0.707396;2.397952;0.851852;0.800234;277.0;-31.68;47.4;24.6;205.2884;77.6405;-146.6716;0.0;1017.97;63.7667;;;;;;0 / 0;85.8;45.0;3.667;5432;2014-11-17 16:57:18:742
0.191536;-10.266336;-2.576161;0.763444;-9.77048;-0.353894;-0.571908;-0.495855;-2.222267;2.341447;-0.251982;0.675006;302.0;-27.54;48.78;18.78;205.2884;77.6405;-146.6716;0.0;1017.97;63.7667;;;;;;0 / 0;85.8;45.0;3.667;5496;2014-11-17 16:57:18:806
0.679953;-7.603985;-0.794875;0.142694;-9.597794;2.008075;0.53726;1.993809;-2.80295;1.585195;-0.859793;0.654542;310.0;-21.18;48.66;7.44;73.2102;83.9441;-22.0651;0.0;1017.85;63.7667;;;;;;0 / 0;85.8;45.0;3.667;5567;2014-11-17 16:57:18:877
-0.019154;-6.607996;0.076614;-0.148971;-9.448066;2.623402;0.129817;2.840069;-2.546788;1.16156;-0.610254;0.699135;299.0;-17.52;46.38;0.42;57.1077;78.1539;-4.0646;0.0;1017.85;63.7667;;;;;;0 / 0;85.8;45.0;3.667;5623;2014-11-17 16:57:18:933
-0.019154;-6.607996;0.076614;-0.148971;-9.448066;2.623402;0.129817;2.840069;-2.546788;0.005192;0.329562;0.517403;299.0;-16.32;45.48;-1.26;53.2532;74.4581;3.2501;0.0;1017.85;63.7667;;;;;;0 / 0;85.8;45.0;3.667;5675;2014-11-17 16:57:18:985
-0.095768;-5.72693;1.043872;-0.482279;-9.403336;2.741361;0.386511;3.676407;-1.697488;-0.605978;-0.069639;0.087965;310.0;-14.52;44.7;-1.86;53.2532;74.4581;3.2501;0.0;1017.85;60.15619;;;;;;0 / 0;85.8;45.0;3.667;5728;2014-11-17 16:57:19:038
-1.16837;-8.073248;4.213795;0.181272;-9.783722;-0.645199;-1.349642;1.710475;4.858994;-0.634689;-0.541837;-0.136528;307.0;-13.5;44.4;-1.08;272.0576;86.0814;-164.307;0.0;1017.85;60.15619;;;;;;0 / 0;85.8;45.0;3.667;5791;2014-11-17 16:57:19:101
-2.394202;-12.038046;8.18817;-0.056771;-9.800186;0.35148;-2.337431;-2.23786;7.83669;-0.277944;-1.407128;-0.112399;280.0;-12.66;44.04;1.86;65.7325;87.9195;9.1752;0.0;1017.85;60.15619;;;;;;0 / 0;85.8;45.0;3.667;5841;2014-11-17 16:57:19:151
-0.354342;-9.011774;5.257667;-0.094104;-9.76531;0.894556;-0.260238;0.753535;4.363111;0.09163;-1.149648;0.175929;252.0;-12.66;43.86;4.08;65.7325;87.9195;9.1752;0.0;1017.85;60.15619;;;;;;0 / 0;85.8;45.0;3.667;5900;2014-11-17 16:57:19:210
3.256114;-18.100164;7.52737;-0.038572;-9.77231;0.819064;3.294686;-8.327854;6.708306;-0.146608;0.024435;-0.113315;224.0;-13.2;43.38;6.12;51.3005;85.2037;2.6962;0.0;1017.83;60.15619;;;;;;0 / 0;85.8;45.0;3.667;5957;2014-11-17 16:57:19:267
1.580173;-6.157887;-6.83784;0.362895;-9.783012;0.575649;1.217278;3.625126;-7.413489;-1.154841;0.245262;0.448681;224.0;-14.58;42.18;10.86;77.1953;86.0209;-32.2278;0.0;1017.83;60.15619;;;;;;0 / 0;85.8;45.0;3.667;6016;2014-11-17 16:57:19:326
-0.296881;-10.76433;-1.426944;0.347082;-9.796774;0.270411;-0.643962;-0.967557;-1.697355;-1.414458;0.462425;-0.042455;209.0;-14.88;42.06;11.88;75.1502;86.0209;-32.2278;0.0;1017.93;61.85611;;;;;;0 / 0;85.8;45.0;3.667;6158;2014-11-17 16:57:19:468
-1.130063;-9.873688;0.517148;0.14042;-9.805408;0.067653;-1.270483;-0.068278;0.449494;-1.078177;0.686613;-0.126449;200.0;-17.4;39.72;23.7;111.4618;88.4087;-78.1731;0.0;1017.93;61.85611;;;;;;0 / 0;85.8;45.0;3.667;6221;2014-11-17 16:57:19:531
-1.130063;-9.873688;0.517148;0.14042;-9.805408;0.067653;-1.270483;-0.068278;0.449494;-0.717767;0.558331;-0.109345;200.0;-18.0;39.06;25.5;111.4618;88.4087;-78.1731;0.0;1017.93;61.85611;;;;;;0 / 0;85.8;45.0;3.667;6272;2014-11-17 16:57:19:582
-1.11091;-9.62469;-1.312023;0.012481;-9.806616;-0.022703;-1.123391;0.181926;-1.28932;-0.523817;-0.4554;-0.083689;200.0;-18.48;37.8;27.72;184.9049;89.8493;-151.1992;0.0;1017.93;61.85611;;;;;;0 / 0;85.8;45.0;3.667;6332;2014-11-17 16:57:19:642
1.685518;-9.289502;-1.312023;0.187589;-9.803726;-0.148784;1.497929;0.514225;-1.163239;-0.650266;-0.348804;-0.161574;198.0;-19.2;36.84;29.52;160.2692;88.601;-128.4192;0.0;1017.93;61.85611;;;;;;0 / 0;85.8;45.0;3.667;6382;2014-11-17 16:57:19:692
-0.172383;-9.662998;-1.331176;0.165899;-9.799766;-0.327743;-0.338281;0.136769;-1.003433;-0.939511;0.178984;-0.187536;195.0;-19.44;36.24;31.08;160.2692;88.601;-128.4192;0.0;1017.93;61.85611;;;;;;0 / 0;85.8;45.0;3.667;6432;2014-11-17 16:57:19:742
-0.775721;-9.720458;-0.105345;0.08714;-9.79948;-0.364657;-0.862861;0.079021;0.259312;-1.14018;0.651793;-0.210749;197.0;-20.34;35.4;32.94;184.5274;87.8532;-153.1522;0.0;1017.85;57.46605;;;;;;0 / 0;85.8;45.0;3.667;6482;2014-11-17 16:57:19:792
0.469264;-9.040504;-2.920926;0.098396;-9.793542;-0.497212;0.370867;0.753037;-2.423714;-0.312458;0.265421;-0.036957;197.0;-22.8;32.76;36.42;201.0952;87.0373;-168.806;0.0;1017.85;57.46605;;;;;;0 / 0;85.8;45.0;3.667;6566;2014-11-17 16:57:19:876
-0.6608;-11.712434;-4.453215;0.04496;-9.76504;-0.901324;-0.70576;-1.947394;-3.551891;-0.222355;0.605978;0.069028;200.0;-24.54;30.78;38.52;211.4921;84.7199;-177.1443;0.0;1017.85;57.46605;;;;;;0 / 0;85.8;45.0;3.667;6632;2014-11-17 16:57:19:942
1.426944;-11.329362;-0.459687;0.134734;-9.773674;-0.792154;1.29221;-1.555689;0.332467;0.538172;0.324675;0.299935;205.0;-25.5;30.12;39.18;204.334;85.3;-170.3471;0.0;1017.95;57.46605;;;;;;0 / 0;85.8;45.0;3.667;6687;2014-11-17 16:57:19:997
2.27928;-8.312668;-0.555455;0.337879;-9.782054;-0.606353;1.941401;1.469387;0.050898;1.405601;0.346361;0.163712;202.0;-26.22;30.12;39.54;204.334;85.3;-170.3471;0.0;1017.95;57.46605;;;;;;0 / 0;85.8;45.0;3.667;6740;2014-11-17 16:57:20:050
2.585738;-10.860098;-2.557007;0.566883;-9.763818;-0.718958;2.018855;-1.096281;-1.838049;1.640784;0.37446;0.160047;200.0;-28.08;31.32;38.94;185.1296;85.9411;-150.872;0.0;1017.95;57.46605;;;;;;0 / 0;85.8;45.0;3.667;6799;2014-11-17 16:57:20:109
1.810017;-10.457872;-4.022259;0.667509;-9.735994;-0.967066;1.142508;-0.721879;-3.055193;1.402852;0.46945;0.348499;201.0;-29.28;32.76;37.92;183.0043;83.1181;-145.385;0.0;1017.86;58.01752;;;;;;0 / 0;85.8;45.0;3.667;6850;2014-11-17 16:57:20:160
1.359907;-9.56723;-2.126051;0.695351;-9.71723;-1.123535;0.664556;0.150001;-1.002516;1.109026;0.297186;0.496939;208.0;-31.68;36.12;34.68;192.0093;82.2567;-148.2468;0.0;1017.86;58.01752;;;;;;0 / 0;85.8;45.0;3.667;6917;2014-11-17 16:57:20:227
0.909797;-7.958326;-2.5187;0.714888;-9.691516;-1.316753;0.194908;1.733191;-1.201947;0.660345;-0.206167;0.514654;211.0;-32.22;37.98;33.18;192.0093;82.2567;-148.2468;0.0;1017.86;58.01752;;;;;;0 / 0;85.8;45.0;3.667;6979;2014-11-17 16:57:20:289
1.340753;-5.612008;-4.252102;0.790751;-9.619332;-1.735962;0.550002;4.007324;-2.51614;-0.166461;-0.385456;0.334754;208.0;-31.98;41.1;30.42;199.269;81.2117;-151.5017;0.0;1017.86;58.01752;;;;;;0 / 0;85.8;45.0;3.667;7038;2014-11-17 16:57:20:348
0.354342;-10.649408;3.476381;0.797695;-9.680362;-1.350807;-0.443353;-0.969048;4.827188;-0.171959;-0.401338;0.066584;205.0;-31.14;41.82;30.42;198.4222;80.7949;-149.4368;0.0;1017.86;58.01752;;;;;;0 / 0;85.8;45.0;3.667;7091;2014-11-17 16:57:20:401
0.517148;-10.582372;-5.046977;0.679458;-9.678412;-1.427253;-0.16231;-0.903958;-3.619724;1.343293;-1.041831;0.505186;201.0;-30.84;42.36;31.26;198.4222;80.7949;-149.4368;0.0;1017.86;58.01752;;;;;;0 / 0;85.8;45.0;3.667;7142;2014-11-17 16:57:20:452
5.075708;-10.52491;-0.095768;1.187027;-9.617976;-1.501967;3.88868;-0.906935;1.4062;-0.696997;1.289842;0.036041;200.0;-29.34;43.74;32.7;201.2352;80.724;-154.5428;0.0;1017.77;58.01752;;;;;;0 / 0;85.8;45.0;3.667;7214;2014-11-17 16:57:20:524
-0.23942;-9.65342;-0.47884;1.049644;-9.658382;-1.335788;-1.289064;0.004961;0.856947;0.268475;-1.135598;0.10965;198.0;-28.14;44.82;32.88;183.8269;78.7427;-141.6802;0.0;1017.77;58.02182;;;;;;0 / 0;85.8;45.0;3.667;7276;2014-11-17 16:57:20:586
0.02873;-9.500192;0.718261;0.960305;-9.694934;-1.120916;-0.931575;0.194742;1.839177;0.345139;-0.683558;0.065973;195.0;-28.02;44.82;33.06;179.6719;81.3434;-139.4129;0.0;1017.77;58.02182;;;;;;0 / 0;85.8;45.0;3.667;7338;2014-11-17 16:57:20:648
1.254562;-10.333374;1.838747;0.935813;-9.729546;-0.794106;0.318749;-0.603829;2.632853;0.403171;-0.449597;0.257785;191.0;-27.18;44.58;33.36;167.9312;82.8104;-130.3171;0.0;1017.8;58.02182;;;;;;0 / 0;85.8;45.0;3.667;7401;2014-11-17 16:57:20:711
-1.474828;-8.7532;1.819593;0.793997;-9.760226;-0.527197;-2.268825;1.007026;2.34679;0.238848;-0.092852;0.06689;194.0;-26.88;44.76;32.88;167.9312;82.8104;-130.3171;0.0;1017.8;58.02182;;;;;;0 / 0;85.8;45.0;3.667;7453;2014-11-17 16:57:20:763
0.440533;-9.088388;1.072602;0.591076;-9.78774;-0.145497;-0.150543;0.69935;1.2181;-0.080634;0.496939;-0.073915;194.0;-25.56;45.24;31.62;159.6531;84.4228;-123.5833;0.0;1017.8;58.02182;;;;;;0 / 0;85.8;45.0;3.667;7515;2014-11-17 16:57:20:825
-0.861913;-9.576806;3.495535;0.619494;-9.786708;-0.083536;-1.481406;0.209901;3.579071;-0.261145;0.439823;0.041844;191.0;-25.62;45.24;30.84;134.7178;86.3453;-97.6798;0.0;1017.88;58.02182;;;;;;0 / 0;85.8;45.0;3.667;7574;2014-11-17 16:57:20:884
-0.766144;-9.605536;2.193089;0.601132;-9.78764;-0.105625;-1.367276;0.182103;2.298714;-0.276416;0.192728;9.16E-4;189.0;-25.74;45.18;30.36;134.7178;86.3453;-97.6798;0.0;1017.88;53.41757;;;;;;0 / 0;85.8;45.0;3.667;7624;2014-11-17 16:57:20:934
0.019154;-9.65342;1.714248;0.615354;-9.786626;-0.117136;-0.5962;0.133204;1.831384;-0.200364;0.291688;0.029932;186.0;-25.92;44.7;30.12;138.1233;86.4317;-99.9657;0.0;1017.88;53.41757;;;;;;0 / 0;85.8;45.0;3.667;7693;2014-11-17 16:57:21:003
0.47884;-9.854534;0.976834;0.652844;-9.783746;-0.150056;-0.174003;-0.070787;1.12689;-0.048869;0.073915;0.081856;190.0;-26.16;44.22;30.54;138.9036;86.3377;-100.7776;0.0;1017.77;53.41757;;;;;;0 / 0;85.8;45.0;3.667;7768;2014-11-17 16:57:21:078
0.258574;-9.490616;1.101333;0.6415;-9.785196;-0.093767;-0.382926;0.29458;1.1951;-0.103847;0.205862;0.042761;183.0;-26.52;43.8;30.84;135.3403;86.2094;-98.3159;0.0;1017.77;53.41757;;;;;;0 / 0;85.8;45.0;3.667;7839;2014-11-17 16:57:21:149
-0.076614;-9.519346;0.507571;0.626243;-9.786222;-0.089892;-0.702857;0.266876;0.597462;-0.179289;0.057421;0.045204;183.0;-26.94;43.68;30.84;136.4333;86.3011;-98.1685;0.0;1017.77;53.41757;;;;;;0 / 0;85.8;45.0;3.667;7894;2014-11-17 16:57:21:204
0.248997;-9.701304;0.852336;0.628562;-9.785888;-0.108073;-0.379565;0.084583;0.960409;-0.136528;0.008858;0.01405;172.0;-26.88;43.68;30.9;136.4333;86.3011;-98.1685;0.0;1017.88;53.41757;;;;;;0 / 0;85.8;45.0;3.667;7944;2014-11-17 16:57:21:254
-0.162806;-10.036492;1.771709;0.63139;-9.785892;-0.089845;-0.794195;-0.250601;1.861554;-0.133779;0.03543;0.037263;172.0;-27.12;43.38;31.38;138.0824;86.2711;-99.7558;0.0;1017.88;46.439;;;;;;0 / 0;85.8;45.0;3.667;7994;2014-11-17 16:57:21:304
0.248997;-9.557652;0.268151;0.608659;-9.787626;-0.047915;-0.359662;0.229973;0.316066;-0.098044;0.015882;0.081245;172.0;-27.36;43.08;31.62;132.7571;86.4306;-94.5012;0.0;1017.88;46.439;;;;;;0 / 0;85.8;45.0;3.667;8071;2014-11-17 16:57:21:381
0.68953;-9.586384;0.373495;0.601151;-9.788172;-0.026893;0.088379;0.201789;0.400388;0.003054;-0.043982;0.070555;166.0;-27.3;43.14;32.04;129.8896;86.482;-92.5614;0.0;1017.79;46.439;;;;;;0 / 0;85.8;45.0;3.667;8121;2014-11-17 16:57:21:431
-0.162806;-9.481038;0.47884;0.578616;-9.789562;0.006721;-0.741422;0.308524;0.47212;-0.083078;0.04612;0.062614;168.0;-27.24;43.2;31.98;129.8896;86.482;-92.5614;0.0;1017.79;46.439;;;;;;0 / 0;85.8;45.0;3.667;8173;2014-11-17 16:57:21:483
0.172383;-9.481038;0.651223;0.562562;-9.790454;0.030953;-0.390179;0.309415;0.62027;-0.018326;0.026573;0.082161;166.0;-27.66;43.14;32.1;127.7654;86.6172;-89.3345;0.0;1017.79;46.439;;;;;;0 / 0;85.8;45.0;3.667;8225;2014-11-17 16:57:21:535
0.229843;-9.988608;0.804452;0.543277;-9.791172;0.090704;-0.313434;-0.197437;0.713748;-0.019853;-0.041539;0.062919;168.0;-27.48;43.38;32.1;117.7093;86.7802;-80.5215;0.0;1017.79;46.439;;;;;;0 / 0;85.8;45.0;3.667;8298;2014-11-17 16:57:21:608
0.794875;-9.471462;0.555455;0.542599;-9.790644;0.138809;0.252276;0.319181;0.416645;-6.11E-4;-0.047342;0.085216;169.0;-27.48;43.44;32.04;117.7093;86.7802;-80.5215;0.0;1017.79;43.64562;;;;;;0 / 0;85.8;45.0;3.667;8357;2014-11-17 16:57:21:667
0.143652;-9.950302;0.545878;0.525635;-9.790954;0.176943;-0.381983;-0.159348;0.368935;-0.04215;-0.034819;0.058948;165.0;-27.48;43.26;32.34;112.6659;86.726;-75.6502;0.0;1017.79;43.64562;;;;;;0 / 0;85.8;45.0;3.667;8416;2014-11-17 16:57:21:726
0.258574;-9.586384;0.727837;0.51612;-9.790892;0.20604;-0.257546;0.204508;0.521798;-0.011606;0.004581;0.053451;166.0;-28.08;42.96;32.4;106.2401;86.7514;-68.2377;0.0;1017.87;43.64562;;;;;;0 / 0;85.8;45.0;3.667;8471;2014-11-17 16:57:21:781
0.134075;-9.873688;1.13964;0.503144;-9.790296;0.259536;-0.369068;-0.083392;0.880104;0.043371;0.010996;0.087048;172.0;-27.96;42.84;32.7;99.7663;86.6904;-62.714;0.0;1017.87;43.64562;;;;;;0 / 0;85.8;45.0;3.667;8537;2014-11-17 16:57:21:847
0.574608;-10.10353;1.637634;0.496163;-9.788978;0.316429;0.078446;-0.314552;1.321205;-0.336892;-0.186314;0.051007;164.0;-27.36;43.02;32.64;92.1305;86.5871;-56.2905;0.0;1017.78;43.64562;;;;;;0 / 0;85.8;45.0;3.667;8635;2014-11-17 16:57:21:945
0.383072;-9.643844;0.881066;0.476915;-9.784808;0.447764;-0.093843;0.140964;0.433302;0.042455;0.058948;0.080329;161.0;-27.18;43.2;32.64;93.2857;86.5597;-57.4722;0.0;1017.78;43.64562;;;;;;0 / 0;83.8;44.0;3.687;8704;2014-11-17 16:57:22:014