sep=;
ACCELEROMETER X (m/s²);ACCELEROMETER Y (m/s²);ACCELEROMETER Z (m/s²);GRAVITY X (m/s²);GRAVITY Y (m/s²);GRAVITY Z (m/s²);LINEAR ACCELERATION X (m/s²);LINEAR ACCELERATION Y (m/s²);LINEAR ACCELERATION Z (m/s²);GYROSCOPE X (rad/s);GYROSCOPE Y (rad/s);GYROSCOPE Z (rad/s);LIGHT (lux);MAGNETIC FIELD X (μT);MAGNETIC FIELD Y (μT);MAGNETIC FIELD Z (μT);ORIENTATION X (°);ORIENTATION Y (°);ORIENTATION Z (°);PROXIMITY (i);ATMOSPHERIC PRESSURE (hPa);SOUND LEVEL (dB);LOCATION Latitude : ;LOCATION Longitude : ;LOCATION Altitude ( m);LOCATION Speed ( Kmh);LOCATION Accuracy ( m);Satellites in range;Temperature (F);Level (%);Voltage (Volt);Time since start in ms ;YYYY-MO-DD HH-MI-SS_SSS
-1.905785;-10.94629;4.194642;0.455541;-9.777856;0.596992;-2.361326;-1.168434;3.59765;0.00336;0.116981;-0.032681;318.0;-26.94;49.08;-13.68;155.8699;86.2171;-41.0004;0.0;1017.82;63.56932;;;;;;0 / 0;85.8;45.0;3.667;18;2014-11-17 16:56:49:249
1.82917;-10.055646;1.924938;0.294125;-9.750012;1.010521;1.535045;-0.305634;0.914417;0.842994;0.205251;0.475864;318.0;-27.36;48.48;-13.14;123.5114;83.8391;-16.2283;0.0;1017.82;63.56932;;;;;;0 / 0;85.8;45.0;3.667;84;2014-11-17 16:56:49:315
0.009577;-10.840944;1.465252;0.079524;-9.636488;1.817183;-0.069947;-1.204456;-0.351931;0.751059;-0.302073;0.351248;329.0;-26.34;47.1;-14.4;103.6159;79.311;-2.5058;0.0;1017.83;61.02848;;;;;;0 / 0;85.8;45.0;3.667;166;2014-11-17 16:56:49:397
0.632069;-8.571242;0.45011;-0.109181;-9.559256;2.186116;0.74125;0.988013;-1.736006;0.701273;0.003665;0.445932;327.0;-25.68;46.56;-15.12;103.6159;79.311;-2.5058;0.0;1017.83;61.02848;;;;;;0 / 0;85.8;45.0;3.667;216;2014-11-17 16:56:49:447
-0.392649;-9.643844;1.905785;-0.233782;-9.521852;2.334531;-0.158867;-0.121991;-0.428746;0.284358;0.026878;0.356134;335.0;-24.78;45.66;-15.66;99.0285;77.103;2.8591;0.0;1017.82;61.02848;;;;;;0 / 0;85.8;45.0;3.667;272;2014-11-17 16:56:49:503
0.220267;-7.996633;1.570596;-0.337624;-9.489198;2.451839;0.557891;1.492564;-0.881242;0.406531;-0.216857;0.308792;335.0;-23.82;44.52;-15.3;89.6756;75.3818;7.8405;0.0;1017.82;61.02848;;;;;;0 / 0;85.8;45.0;3.667;326;2014-11-17 16:56:49:557
0.248997;-7.699753;2.413355;-0.430527;-9.439962;2.621476;0.679524;1.74021;-0.20812;-0.228464;-0.033903;0.191201;329.0;-23.1;44.04;-14.64;89.6756;75.3818;7.8405;0.0;1017.82;61.02848;;;;;;0 / 0;85.8;45.0;3.667;390;2014-11-17 16:56:49:621
-0.881066;-7.536947;2.27928;-0.472504;-9.459314;2.54332;-0.408562;1.922369;-0.26404;-0.217163;-0.068417;0.093768;329.0;-22.8;43.32;-13.02;84.9431;74.2823;9.3265;0.0;1017.82;61.02848;;;;;;0 / 0;85.8;45.0;3.667;443;2014-11-17 16:56:49:674
-0.708684;-9.672574;2.873042;-0.44349;-9.497012;2.404255;-0.265194;-0.175562;0.468787;-0.3598;-0.430965;0.065668;318.0;-23.22;43.02;-12.36;80.9737;75.08;11.0522;0.0;1017.85;60.89492;;;;;;0 / 0;85.8;45.0;3.667;512;2014-11-17 16:56:49:743
0.229843;-9.471462;2.863465;-0.397779;-9.525492;2.297203;0.627623;0.05403;0.566263;-0.369268;-0.54031;0.143553;318.0;-23.52;42.36;-10.44;80.1736;76.2471;9.8238;0.0;1017.85;60.89492;;;;;;0 / 0;85.8;45.0;3.667;563;2014-11-17 16:56:49:794
-0.105345;-9.165004;2.049437;-0.327959;-9.589678;2.02506;0.222614;0.424675;0.024377;-0.538783;-0.383623;0.086132;285.0;-23.34;42.18;-8.88;80.1736;76.2471;9.8238;0.0;1017.86;60.89492;;;;;;0 / 0;85.8;45.0;3.667;632;2014-11-17 16:56:49:863
1.177947;-12.430696;-1.608903;-0.260377;-9.652926;1.709862;1.438324;-2.777769;-3.318765;-1.335962;-0.667065;-0.276111;285.0;-24.36;41.34;-5.04;76.8842;77.9251;9.1992;0.0;1017.86;60.89492;;;;;;0 / 0;85.8;45.0;3.667;687;2014-11-17 16:56:49:918
-1.628057;-7.948749;-2.480393;0.140808;-9.755462;0.990721;-1.768865;1.806713;-3.471114;-0.406836;-1.086424;-0.280387;277.0;-25.08;40.92;-2.64;84.3044;82.5796;0.4049;0.0;1017.86;60.89492;;;;;;0 / 0;85.8;45.0;3.667;745;2014-11-17 16:56:49:976
1.61848;-7.479486;-3.20823;0.186138;-9.780694;0.688312;1.432342;2.301208;-3.896542;-0.75564;0.364076;0.450208;255.0;-26.16;40.14;-0.12;84.3044;82.5796;0.4049;0.0;1017.86;60.89492;;;;;;0 / 0;85.8;45.0;3.667;803;2014-11-17 16:56:50:034
-2.03986;-9.32781;-4.510676;0.024648;-9.806556;0.035008;-2.064508;0.478746;-4.545684;-0.521984;0.222355;0.14111;253.0;-26.58;39.06;4.68;92.1522;85.8304;-15.1324;0.0;1017.83;58.1341;;;;;;0 / 0;85.8;45.0;3.667;861;2014-11-17 16:56:50:092
0.162806;-8.810662;-3.552995;-0.020146;-9.801774;-0.308513;0.182952;0.991113;-3.244482;-0.438907;-0.72021;-0.077274;248.0;-26.34;38.46;8.4;111.8142;89.7498;-35.1484;0.0;1017.83;58.1341;;;;;;0 / 0;85.8;45.0;3.667;926;2014-11-17 16:56:50:157
1.532289;-9.078812;-1.934515;0.061313;-9.762334;-0.929204;1.470977;0.683522;-1.005311;-0.945008;-0.00672;0.110261;233.0;-26.82;37.8;10.86;250.5864;86.5119;-177.0937;0.0;1017.82;58.1341;;;;;;0 / 0;85.8;45.0;3.667;995;2014-11-17 16:56:50:226
-1.455675;-9.394848;-1.292869;0.077862;-9.663416;-1.668147;-1.533537;0.268569;0.375278;-0.905913;0.627969;0.079718;227.0;-26.88;37.5;12.36;252.8265;82.3525;-177.1549;0.0;1017.82;58.1341;;;;;;0 / 0;85.8;45.0;3.667;1058;2014-11-17 16:56:50:289
-1.149217;-9.308656;-1.723825;0.116828;-9.606208;-1.969151;-1.266045;0.297552;0.245326;-0.842994;0.266337;-0.083383;227.0;-27.42;36.6;14.88;251.3608;78.3958;-176.6047;0.0;1017.82;58.1341;;;;;;0 / 0;85.8;45.0;3.667;1115;2014-11-17 16:56:50:346
-0.162806;-9.11712;-2.432509;0.264109;-9.439774;-2.644109;-0.426914;0.322655;0.2116;-0.922406;-0.033903;-0.071777;224.0;-27.78;36.42;15.66;251.3608;78.3958;-176.6047;0.0;1017.75;58.1341;;;;;;0 / 0;85.8;45.0;3.667;1179;2014-11-17 16:56:50:410
0.114922;-9.854534;-1.264138;0.394112;-9.324926;-3.010115;-0.27919;-0.529607;1.745976;-1.201572;0.747699;-0.198837;219.0;-28.8;35.4;17.88;250.6184;74.2783;-174.2959;0.0;1017.75;61.86054;;;;;;0 / 0;85.8;45.0;3.667;1235;2014-11-17 16:56:50:466
-1.283292;-9.758766;-1.867477;0.551908;-9.197178;-3.358229;-1.8352;-0.561587;1.490752;-0.560774;0.626442;-0.086132;219.0;-28.8;34.44;19.08;248.236;69.6938;-170.6672;0.0;1017.75;61.86054;;;;;;0 / 0;85.8;45.0;3.667;1285;2014-11-17 16:56:50:516
1.359907;-11.022904;-3.256114;0.778071;-9.04127;-3.717584;0.581836;-1.981634;0.46147;-0.565661;0.798401;0.171653;220.0;-28.92;33.12;19.98;248.236;69.6938;-170.6672;0.0;1017.75;61.86054;;;;;;0 / 0;85.8;45.0;3.667;1341;2014-11-17 16:56:50:572
-0.612916;-13.196838;-2.135628;0.852095;-9.004528;-3.789824;-1.46501;-4.19231;1.654196;-0.326813;1.324661;0.078802;227.0;-30.06;30.6;19.86;245.8659;67.2133;-168.1789;0.0;1017.86;61.86054;;;;;;0 / 0;85.8;45.0;3.667;1400;2014-11-17 16:56:50:631
-3.89776;-12.382812;1.867477;1.026769;-8.996204;-3.766222;-4.924529;-3.386607;5.6337;1.182635;0.71288;0.732427;245.0;-31.08;29.58;18.84;243.6218;66.5428;-164.7503;0.0;1017.86;61.86054;;;;;;0 / 0;85.8;45.0;3.667;1458;2014-11-17 16:56:50:689
4.654328;-11.36767;0.009577;0.797044;-9.336172;-2.893263;3.857284;-2.031498;2.902841;2.519819;0.074526;0.806037;258.0;-30.72;28.98;17.22;240.1382;72.1804;-164.598;0.0;1017.86;61.86054;;;;;;0 / 0;85.8;45.0;3.667;1518;2014-11-17 16:56:50:749
3.246538;-13.168108;-2.54743;0.431944;-9.686136;-1.47057;2.814593;-3.481972;-1.076861;2.310903;0.788932;0.671952;291.0;-30.6;28.56;15.84;240.1382;72.1804;-164.598;0.0;1017.86;64.52793;;;;;;0 / 0;85.8;45.0;3.667;1577;2014-11-17 16:56:50:808
0.670377;-10.860098;-2.834735;0.116123;-9.805702;-0.071394;0.554253;-1.054396;-2.763341;2.558915;-0.075442;0.890336;313.0;-31.32;27.84;12.6;235.8181;81.0083;-163.6311;0.0;1017.86;64.52793;;;;;;0 / 0;85.8;45.0;3.667;1643;2014-11-17 16:56:50:874
0.440533;-9.088388;-1.742979;-0.337694;-9.704402;1.371471;0.778227;0.616013;-3.114449;1.93461;-0.02138;0.897361;332.0;-31.2;28.68;10.68;51.2081;81.719;13.8327;0.0;1017.86;64.52793;;;;;;0 / 0;85.8;45.0;3.667;1697;2014-11-17 16:56:50:928
-0.181959;-7.508216;-1.934515;-0.767523;-9.45823;2.474509;0.585563;1.950015;-4.409024;1.349401;-0.728151;0.724792;347.0;-30.66;29.82;10.08;51.2081;81.719;13.8327;0.0;1017.92;64.52793;;;;;;0 / 0;85.8;45.0;3.667;1756;2014-11-17 16:56:50:987
0.316035;-5.468356;-0.258574;-1.013181;-9.190062;3.269039;1.329215;3.721706;-3.527613;0.470977;-0.352469;0.592845;340.0;-28.56;33.06;9.06;45.3056;74.6813;17.2324;0.0;1017.92;64.52793;;;;;;0 / 0;85.8;45.0;3.667;1811;2014-11-17 16:56:51:042
-0.134075;-6.157887;0.536301;0.363727;-9.678282;-1.539133;-0.497802;3.520395;2.075434;-0.647823;-0.473421;0.239154;335.0;-27.9;34.26;8.82;249.2968;80.7194;-166.7038;0.0;1017.92;64.52793;;;;;;0 / 0;85.8;45.0;3.667;1872;2014-11-17 16:56:51:103
-0.842759;-9.423578;6.818687;0.276255;-9.767288;-0.83315;-1.119014;0.343711;7.651837;-0.94226;-0.290161;-0.057727;318.0;-27.6;35.52;9.06;249.2968;80.7194;-166.7038;0.0;1017.92;64.52793;;;;;;0 / 0;85.8;45.0;3.667;1928;2014-11-17 16:56:51:159
-1.972822;-10.91756;6.617574;0.048253;-9.806436;0.04288;-2.021076;-1.111122;6.574693;-0.230296;-0.884533;0.168293;288.0;-27.96;37.56;11.4;237.5129;84.8648;-161.6556;0.0;1017.92;60.08214;;;;;;0 / 0;85.8;45.0;3.667;1980;2014-11-17 16:56:51:211
-0.651223;-8.341399;5.382166;-0.021949;-9.785366;0.645393;-0.629274;1.443968;4.736773;0.075747;-1.075734;0.18326;266.0;-27.9;38.7;13.02;113.0305;89.6226;-48.3742;0.0;1017.92;60.08214;;;;;;0 / 0;85.8;45.0;3.667;2041;2014-11-17 16:56:51:272
5.612009;-18.780119;13.455414;0.055904;-9.797662;0.415985;5.556104;-8.982456;13.03943;-1.793195;0.514043;-0.760833;238.0;-27.24;40.44;15.66;64.2068;87.5469;-7.6541;0.0;1017.79;60.08214;;;;;;0 / 0;85.8;45.0;3.667;2097;2014-11-17 16:56:51:328
-1.264138;-5.00867;-9.23204;0.413545;-9.77444;0.677995;-1.677683;4.765771;-9.910036;-0.555887;-2.674063;-0.053145;230.0;-26.94;41.34;17.28;64.2068;87.5469;-7.6541;0.0;1017.79;60.08214;;;;;;0 / 0;85.8;45.0;3.667;2160;2014-11-17 16:56:51:391
1.656788;-9.83538;-4.118027;0.465888;-9.794968;0.109211;1.1909;-0.040413;-4.227237;-1.292896;-0.249233;-0.633162;224.0;-26.04;42.66;20.7;79.2817;85.355;-31.3812;0.0;1017.79;60.08214;;;;;;0 / 0;85.8;45.0;3.667;2218;2014-11-17 16:56:51:449
-0.612916;-9.643844;-2.681506;0.430644;-9.795624;-0.175129;-1.04356;0.15178;-2.506377;-1.06993;-0.159741;-0.225409;224.0;-25.8;43.2;23.16;122.3505;87.2031;-76.8072;0.0;1017.88;60.08214;;;;;;0 / 0;85.8;45.0;3.667;2278;2014-11-17 16:56:51:509
0.114922;-9.710882;0.603339;0.363807;-9.798592;-0.160181;-0.248886;0.087709;0.763519;-1.420262;0.701884;-0.083078;222.0;-25.98;43.2;26.88;156.6073;87.677;-113.7634;0.0;1017.88;63.48445;;;;;;0 / 0;85.8;45.0;3.667;2339;2014-11-17 16:56:51:570
-2.75812;-10.515334;-0.306458;0.066422;-9.80517;-0.156794;-2.824543;-0.710163;-0.149664;-1.188438;1.165531;-0.062919;219.0;-26.28;42.72;28.62;156.6073;87.677;-113.7634;0.0;1017.88;63.48445;;;;;;0 / 0;85.8;45.0;3.667;2397;2014-11-17 16:56:51:628
-0.143652;-8.686164;-2.317587;0.032151;-9.801436;-0.318107;-0.175803;1.115273;-1.99948;-0.65668;0.983493;0.062003;222.0;-27.0;41.52;29.34;200.3655;89.0052;-157.0411;0.0;1017.8;63.48445;;;;;;0 / 0;85.8;45.0;3.667;2465;2014-11-17 16:56:51:696
0.574608;-8.868122;-1.848324;0.106737;-9.793068;-0.504789;0.467872;0.924945;-1.343535;-1.087645;0.656069;-0.1518;224.0;-28.44;41.1;29.82;212.7522;86.9841;-168.0608;0.0;1017.8;63.48445;;;;;;0 / 0;85.8;45.0;3.667;2546;2014-11-17 16:56:51:777
-1.417367;-9.89284;-2.413355;-0.022806;-9.776408;-0.769227;-1.394562;-0.116432;-1.644128;-0.959669;0.407142;-0.348499;224.0;-29.34;41.22;31.08;215.4729;86.5321;-170.3883;0.0;1017.72;63.48445;;;;;;0 / 0;85.8;45.0;3.667;2619;2014-11-17 16:56:51:850
1.455675;-10.419566;-1.388637;0.053074;-9.77465;-0.789814;1.4026;-0.644916;-0.598823;-0.75167;0.394314;-9.16E-4;224.0;-30.12;40.62;31.62;228.0722;85.4992;178.3018;0.0;1017.72;63.48445;;;;;;0 / 0;85.8;45.0;3.667;2682;2014-11-17 16:56:51:913
1.455675;-10.419566;-1.388637;0.053074;-9.77465;-0.789814;1.4026;-0.644916;-0.598823;-0.496633;0.481973;0.186008;224.0;-30.06;40.8;31.74;228.0722;85.4992;178.3018;0.0;1017.72;63.50653;;;;;;0 / 0;85.8;45.0;3.667;2732;2014-11-17 16:56:51:963
-2.873042;-13.302184;-0.02873;-0.216316;-9.781188;-0.672269;-2.656726;-3.520997;0.643539;0.192423;1.386359;0.194561;235.0;-29.28;41.4;29.4;245.533;85.8703;162.1634;0.0;1017.72;63.50653;;;;;;0 / 0;85.8;45.0;3.667;2789;2014-11-17 16:56:52:020
4.721366;-11.913548;-3.294421;0.072725;-9.805164;-0.154429;4.648641;-2.108382;-3.139993;2.318539;-0.046731;0.98105;247.0;-25.5;43.38;23.04;295.8183;87.9242;112.2754;0.0;1017.78;63.50653;;;;;;0 / 0;85.8;45.0;3.667;2858;2014-11-17 16:56:52:089
2.585738;-13.579912;-2.346318;0.326148;-9.795272;-0.341534;2.25959;-3.784639;-2.004784;2.473088;0.492968;0.762971;260.0;-22.14;44.22;17.7;206.178;89.0026;-154.7829;0.0;1017.78;63.50653;;;;;;0 / 0;85.8;45.0;3.667;2919;2014-11-17 16:56:52:150
2.585738;-13.579912;-2.346318;0.326148;-9.795272;-0.341534;2.25959;-3.784639;-2.004784;2.475837;0.386372;0.800234;260.0;-18.0;44.22;11.76;206.178;89.0026;-154.7829;0.0;1017.78;63.50653;;;;;;0 / 0;85.8;45.0;3.667;2969;2014-11-17 16:56:52:200
-0.488417;-9.758766;-2.221819;0.220806;-9.794148;-0.443061;-0.709223;0.035382;-1.778758;2.233018;-0.195782;0.797179;264.0;-10.26;39.96;0.6;230.3521;87.1065;-153.5099;0.0;1017.79;63.50653;;;;;;0 / 0;85.8;45.0;3.667;3028;2014-11-17 16:56:52:259
0.306458;-8.025364;-2.154781;0.220981;-9.781702;-0.663192;0.085477;1.756339;-1.491589;1.515557;-1.194547;0.693332;269.0;-7.86;36.3;-2.7;288.6552;85.9123;-161.5715;0.0;1017.79;63.51734;;;;;;0 / 0;85.8;45.0;3.667;3084;2014-11-17 16:56:52:315
1.608904;-6.828263;-1.848324;0.365848;-9.759872;-0.883958;1.243055;2.93161;-0.964365;1.083064;-1.054659;0.54367;258.0;-6.18;30.06;-5.04;305.1041;84.4017;-157.5165;0.0;1017.79;63.51734;;;;;;0 / 0;85.8;45.0;3.667;3145;2014-11-17 16:56:52:376
0.814029;-5.535394;0.086191;0.05446;-9.798236;-0.402481;0.759569;4.262843;0.488673;-0.431882;0.390343;0.290161;269.0;-5.82;27.66;-4.68;305.1041;84.4017;-157.5165;0.0;1017.9;63.51734;;;;;;0 / 0;85.8;45.0;3.667;3206;2014-11-17 16:56:52:437
-0.555455;-6.732495;0.545878;0.41944;-9.74696;-0.995628;-0.974895;3.014465;1.541506;-1.430952;0.263283;0.096517;278.0;-5.16;24.84;-3.3;300.7463;83.675;-157.1552;0.0;1017.9;63.51734;;;;;;0 / 0;85.8;45.0;3.667;3267;2014-11-17 16:56:52:498
-5.133168;-13.618218;10.093954;-0.130978;-9.805502;0.073265;-5.00219;-3.812716;10.02069;-0.10965;-0.858571;0.044593;288.0;-4.32;24.0;-2.28;52.0747;89.1226;60.7789;0.0;1017.9;63.51734;;;;;;0 / 0;85.8;45.0;3.667;3325;2014-11-17 16:56:52:556
-1.714248;-9.002198;3.955221;-0.290938;-9.78295;0.616135;-1.42331;0.780753;3.339087;-0.156381;-1.263575;0.150884;288.0;-4.08;23.04;-1.26;52.0747;89.1226;60.7789;0.0;1017.78;63.51734;;;;;;0 / 0;85.8;45.0;3.667;3377;2014-11-17 16:56:52:608
3.897761;-9.423578;-6.732495;0.102686;-9.805348;-0.122364;3.795075;0.381771;-6.610131;-1.134682;-0.928515;-0.172264;287.0;-4.02;19.92;2.52;48.8318;86.0159;25.2766;0.0;1017.78;60.13774;;;;;;0 / 0;85.8;45.0;3.667;3440;2014-11-17 16:56:52:671
5.774815;-5.382165;-3.074155;0.357461;-9.754906;-0.940424;5.417354;4.372741;-2.133731;-1.215316;-0.075136;0.464563;252.0;-4.74;16.98;7.56;230.4583;86.8422;165.9842;0.0;1017.72;60.13774;;;;;;0 / 0;85.8;45.0;3.667;3523;2014-11-17 16:56:52:754
-2.509123;-11.204864;-0.009577;0.197866;-9.766584;-0.863163;-2.706989;-1.438279;0.853587;-1.373836;-0.307265;-0.556804;248.0;-4.86;15.06;12.18;190.8792;84.8191;-167.089;0.0;1017.72;60.13774;;;;;;0 / 0;85.8;45.0;3.667;3616;2014-11-17 16:56:52:847
1.570596;-9.11712;-1.58975;0.257983;-9.76247;-0.893315;1.312613;0.645351;-0.696435;-1.085202;0.249844;-0.043066;248.0;-5.1;13.56;14.76;182.5523;84.5593;-163.8916;0.0;1017.72;60.13774;;;;;;0 / 0;85.8;45.0;3.667;3693;2014-11-17 16:56:52:924
-0.708684;-9.758766;-0.593762;0.184924;-9.762822;-0.907461;-0.893608;0.004057;0.313699;-1.034195;0.660651;-0.056505;238.0;-5.16;12.84;15.66;182.5523;84.5593;-163.8916;0.0;1017.72;60.13774;;;;;;0 / 0;85.8;45.0;3.667;3746;2014-11-17 16:56:52:977
-1.781286;-9.021352;-1.685518;-0.01009;-9.757058;-0.984929;-1.771196;0.735707;-0.700589;-0.922101;0.313068;-0.164323;238.0;-4.38;10.86;17.46;194.9179;84.2355;179.413;0.0;1017.72;60.11177;;;;;;0 / 0;85.8;45.0;3.667;3808;2014-11-17 16:56:53:039
0.009577;-9.548076;-0.363919;6.34E-4;-9.762384;-0.930722;0.008943;0.214308;0.566804;-0.68814;-0.186008;-0.122784;235.0;-4.44;10.08;18.24;193.2221;84.554;-179.961;0.0;1017.72;60.11177;;;;;;0 / 0;85.8;45.0;3.667;3874;2014-11-17 16:56:53:105
2.011129;-8.791508;-2.853888;0.209871;-9.73744;-1.143941;1.801259;0.945931;-1.709948;-1.010676;0.256869;-0.200364;235.0;-5.22;7.92;20.1;183.844;83.1889;-169.604;0.0;1017.78;60.11177;;;;;;0 / 0;85.8;45.0;3.667;3933;2014-11-17 16:56:53:164
-2.719813;-9.519346;-1.359906;-0.044333;-9.729716;-1.225167;-2.67548;0.21037;-0.134739;-0.782824;0.427911;-0.25748;230.0;-4.74;6.9;20.58;183.844;83.1889;-169.604;0.0;1017.78;60.11177;;;;;;0 / 0;85.8;45.0;3.667;3990;2014-11-17 16:56:53:221
1.503559;-10.036492;-3.39019;0.0428;-9.713286;-1.349309;1.460759;-0.323207;-2.040881;-0.640187;0.521679;0.114537;227.0;-4.68;5.46;21.48;192.0694;82.0875;-178.1832;0.0;1017.78;60.11177;;;;;;0 / 0;85.8;45.0;3.667;4041;2014-11-17 16:56:53:272
-0.670376;-12.277466;0.124498;-0.011631;-9.731332;-1.213026;-0.658745;-2.546135;1.337525;-0.235489;1.559844;-0.117286;227.0;-4.92;2.22;22.68;193.047;82.8943;179.4506;0.0;1017.83;60.11177;;;;;;0 / 0;85.8;45.0;3.667;4099;2014-11-17 16:56:53:330
-5.784391;-11.884816;4.347871;-0.596163;-9.774972;-0.514651;-5.188228;-2.109844;4.862521;1.114829;0.836885;0.498771;247.0;-6.18;0.36;23.28;193.047;82.8943;179.4506;0.0;1017.83;60.11177;;;;;;0 / 0;85.8;45.0;3.667;4149;2014-11-17 16:56:53:380
5.420473;-12.076352;-2.882619;-0.158989;-9.797884;-0.382884;5.579462;-2.278469;-2.499735;2.60473;-0.237321;1.119716;258.0;-10.26;-2.1;26.58;247.5289;85.3936;130.8031;0.0;1017.83;64.63407;;;;;;0 / 0;85.8;45.0;3.667;4206;2014-11-17 16:56:53:437
3.907337;-13.22557;-3.007117;0.24216;-9.786862;-0.573651;3.665177;-3.438707;-2.433466;2.303268;0.360716;0.895528;274.0;-16.5;-0.96;31.98;181.2566;86.3596;-157.1135;0.0;1017.96;64.63407;;;;;;0 / 0;85.8;45.0;3.667;4287;2014-11-17 16:56:53:518
0.517148;-10.70687;-1.80044;0.250665;-9.780858;-0.665095;0.266482;-0.926011;-1.135345;2.299297;-0.233656;0.730289;285.0;-20.16;1.92;34.02;189.8764;85.8437;-159.3492;0.0;1017.96;64.63407;;;;;;0 / 0;85.8;45.0;3.667;4338;2014-11-17 16:56:53:569
0.651223;-8.264784;-2.087744;0.322963;-9.765566;-0.836521;0.32826;1.500782;-1.251223;2.028683;-0.254731;0.593456;313.0;-23.34;6.06;34.98;189.8764;85.8437;-159.3492;0.0;1017.96;64.63407;;;;;;0 / 0;85.8;45.0;3.667;4388;2014-11-17 16:56:53:619
0.545878;-6.981492;-1.561019;0.32633;-9.751034;-0.990578;0.219548;2.769542;-0.570442;1.232421;-0.729678;0.643852;311.0;-27.12;15.6;34.44;195.9226;84.7537;-158.8895;0.0;1017.91;64.63407;;;;;;0 / 0;85.8;45.0;3.667;4448;2014-11-17 16:56:53:679
-0.517148;-6.100425;0.095768;0.276385;-9.747168;-1.042446;-0.793533;3.646744;1.138214;-0.165239;0.178678;0.534813;296.0;-27.9;19.56;33.78;206.0169;83.6863;-165.1507;0.0;1017.91;64.63407;;;;;;0 / 0;85.8;45.0;3.667;4522;2014-11-17 16:56:53:753
-0.23942;-5.72693;0.718261;0.022997;-9.742158;-1.12259;-0.262417;4.015227;1.84085;-1.083675;0.079107;0.03879;299.0;-28.86;25.14;32.1;223.8394;83.4254;-178.8264;0.0;1017.91;58.73516;;;;;;0 / 0;85.8;45.0;3.667;4586;2014-11-17 16:56:53:817
-1.321599;-11.683704;10.927136;0.146063;-9.805038;0.101432;-1.467662;-1.878666;10.825706;-0.528398;-0.430049;-0.192423;295.0;-30.78;28.38;33.42;97.7945;88.9609;-55.2223;0.0;1017.79;58.73516;;;;;;0 / 0;85.8;45.0;3.667;4646;2014-11-17 16:56:53:877
-2.700659;-10.400412;5.755661;-0.137092;-9.771852;0.813919;-2.563568;-0.628559;4.941742;-0.050091;-1.102306;0.124006;269.0;-31.44;29.88;34.92;97.7945;88.9609;-55.2223;0.0;1017.79;58.73516;;;;;;0 / 0;85.8;45.0;3.667;4704;2014-11-17 16:56:53:935
1.455675;-10.333374;-1.35033;-0.023499;-9.787384;0.613958;1.479174;-0.545991;-1.964288;-0.47281;-0.31765;-0.186925;258.0;-32.16;31.38;36.72;37.337;86.4079;2.1919;0.0;1017.79;58.73516;;;;;;0 / 0;85.8;45.0;3.667;4755;2014-11-17 16:56:53:986
-0.488417;-13.034034;-1.541866;0.001794;-9.801782;0.309005;-0.490212;-3.232252;-1.850871;-0.459371;-1.237918;-0.155465;244.0;-32.28;34.68;37.98;37.337;86.4079;2.1919;0.0;1017.87;58.73516;;;;;;0 / 0;85.8;45.0;3.667;4821;2014-11-17 16:56:54:052
5.353435;-6.378153;-3.122039;0.440422;-9.795084;-0.180903;4.913014;3.416931;-2.941136;-1.726305;-0.058338;-0.399811;235.0;-32.28;38.46;38.94;39.5905;88.1944;-0.3327;0.0;1017.87;58.73516;;;;;;0 / 0;85.8;45.0;3.667;4889;2014-11-17 16:56:54:120
-1.359906;-11.377246;0.143652;0.40271;-9.796388;-0.197435;-1.762616;-1.580858;0.341087;-1.14751;-0.061392;-0.210749;230.0;-31.92;39.42;40.62;153.8745;87.3786;-116.1171;0.0;1017.87;61.89495;;;;;;0 / 0;85.8;45.0;3.667;4950;2014-11-17 16:56:54:181
0.229843;-9.088388;-2.126051;0.306938;-9.795958;-0.339678;-0.077095;0.70757;-1.786374;-1.171334;0.90683;0.046426;227.0;-32.58;38.82;42.72;175.2377;87.3243;-137.8985;0.0;1017.82;61.89495;;;;;;0 / 0;85.8;45.0;3.667;5010;2014-11-17 16:56:54:241
-0.095768;-9.38527;-1.781286;0.279055;-9.788472;-0.527546;-0.374823;0.403202;-1.25374;-1.335657;1.216844;-0.051924;227.0;-33.24;37.98;43.68;175.2377;87.3243;-137.8985;0.0;1017.82;61.89495;;;;;;0 / 0;85.8;45.0;3.667;5061;2014-11-17 16:56:54:292
-1.082179;-9.816226;-0.871489;0.172739;-9.787728;-0.5839;-1.254918;-0.028499;-0.28759;-0.992656;0.617585;-0.175013;233.0;-36.0;36.96;44.58;191.097;86.511;-152.1226;0.0;1017.82;61.89495;;;;;;0 / 0;85.8;45.0;3.667;5128;2014-11-17 16:56:54:359
0.861913;-9.126696;-2.671929;0.181462;-9.761416;-0.923144;0.680451;0.634721;-1.748785;-0.838718;0.41661;-0.065057;233.0;-38.94;35.52;44.82;212.7895;85.7766;-171.8775;0.0;1017.82;61.89495;;;;;;0 / 0;85.8;45.0;3.667;5203;2014-11-17 16:56:54:434
-1.11091;-9.634268;-1.675941;0.083519;-9.7515;-1.035189;-1.194429;0.117232;-0.640752;-0.986853;0.684475;-0.235794;235.0;-40.74;34.86;44.76;213.064;84.4948;-168.8792;0.0;1017.82;61.89495;;;;;;0 / 0;85.8;45.0;3.667;5258;2014-11-17 16:56:54:489
-1.11091;-9.634268;-1.675941;0.083519;-9.7515;-1.035189;-1.194429;0.117232;-0.640752;-0.896445;0.480751;-0.372933;235.0;-41.58;34.26;44.94;213.064;84.4948;-168.8792;0.0;1017.82;61.91788;;;;;;0 / 0;85.8;45.0;3.667;5308;2014-11-17 16:56:54:539
-0.277727;-9.375694;-2.394202;0.034505;-9.740912;-1.133057;-0.312233;0.365218;-1.261145;-0.521984;0.535423;-0.019853;237.0;-43.5;33.72;45.06;224.0248;83.3622;-178.2557;0.0;1017.76;61.91788;;;;;;0 / 0;85.8;45.0;3.667;5370;2014-11-17 16:56:54:601
-0.047884;-10.055646;-0.632069;0.00867;-9.74297;-1.11571;-0.056554;-0.312675;0.483641;-0.736703;0.926683;0.013134;241.0;-44.22;33.66;44.76;226.6687;83.467;-179.5548;0.0;1017.76;61.91788;;;;;;0 / 0;85.8;45.0;3.667;5425;2014-11-17 16:56:54:656
-3.859453;-13.599066;1.101333;-0.379823;-9.769158;-0.767905;-3.47963;-3.829906;1.869238;1.165226;0.666759;0.7309;258.0;-44.7;34.44;43.2;226.6687;83.467;-179.5548;0.0;1017.76;61.91788;;;;;;0 / 0;85.8;45.0;3.667;5477;2014-11-17 16:56:54:708
3.572149;-11.492168;0.086191;-0.142504;-9.798994;-0.360223;3.714653;-1.693173;0.446414;2.751643;-0.083689;1.252274;269.0;-43.08;38.46;38.1;256.9245;84.9883;153.682;0.0;1017.86;61.91788;;;;;;0 / 0;85.8;45.0;3.667;5532;2014-11-17 16:56:54:763
4.367024;-12.737152;-4.280833;0.263957;-9.787034;-0.56096;4.103067;-2.950118;-3.719872;2.580295;0.913549;0.954782;282.0;-40.38;41.82;33.36;206.6403;86.3755;-154.8009;0.0;1017.86;61.91788;;;;;;0 / 0;85.8;45.0;3.667;5592;2014-11-17 16:56:54:823
0.047884;-12.583924;-2.011129;0.248743;-9.77975;-0.681923;-0.200859;-2.804173;-1.329206;2.631608;-0.577573;0.75167;306.0;-31.68;48.06;20.76;220.2013;85.7551;-159.9597;0.0;1017.86;61.91788;;;;;;0 / 0;85.8;45.0;3.667;5655;2014-11-17 16:56:54:886
0.191536;-8.916006;-2.422932;0.247463;-9.770358;-0.805756;-0.055926;0.854351;-1.617176;2.215303;-1.010371;0.519846;311.0;-27.66;49.08;14.34;220.2013;85.7551;-159.9597;0.0;1017.9;64.20024;;;;;;0 / 0;85.8;45.0;3.667;5716;2014-11-17 16:56:54:947
0.861913;-7.575254;-2.145205;0.300039;-9.744906;-1.056953;0.561873;2.169654;-1.088251;1.271516;-1.252274;0.692416;299.0;-24.12;49.2;9.18;240.7258;85.0692;-162.9273;0.0;1017.9;64.20024;;;;;;0 / 0;85.8;45.0;3.667;5770;2014-11-17 16:56:55:001
-0.421379;-6.971915;-0.622492;0.212121;-9.738682;-1.13291;-0.6335;2.766768;0.510418;0.864374;-0.641103;0.796568;278.0;-20.04;47.46;2.76;266.8259;83.2503;-169.395;0.0;1017.9;64.20024;;;;;;0 / 0;85.8;45.0;3.667;5830;2014-11-17 16:56:55:061
0.095768;-5.813122;0.565032;-0.234836;-9.762876;-0.895267;0.330604;3.949755;1.460299;-0.212887;0.002749;0.634994;266.0;-16.86;46.14;0.0;297.7066;84.5844;165.302;0.0;1017.79;64.20024;;;;;;0 / 0;85.8;45.0;3.667;5904;2014-11-17 16:56:55:135
-0.852336;-7.651869;3.620033;0.157077;-9.773568;-0.789338;-1.009413;2.121699;4.409372;-1.092532;0.057727;0.323453;263.0;-14.82;45.84;0.0;297.7066;84.5844;165.302;0.0;1017.79;64.20024;;;;;;0 / 0;85.8;45.0;3.667;5955;2014-11-17 16:56:55:186
-1.714248;-10.409988;6.291962;-0.024714;-9.8066;-0.019776;-1.689535;-0.60339;6.311739;-0.33567;-0.885449;0.195477;244.0;-12.18;45.42;2.28;271.2275;85.2925;-168.7453;0.0;1017.79;64.20024;;;;;;0 / 0;85.8;45.0;3.667;6012;2014-11-17 16:56:55:243
-2.135628;-9.77792;5.45878;-0.19725;-9.78626;0.600496;-1.938378;0.008341;4.858284;0.047342;-1.78617;-0.04215;241.0;-11.28;45.0;4.98;307.8278;89.8155;128.6672;0.0;1017.77;57.25901;;;;;;0 / 0;85.8;45.0;3.667;6083;2014-11-17 16:56:55:314
2.547431;-9.289502;-5.832275;0.087532;-9.806134;-0.049673;2.459898;0.516632;-5.782602;-0.298408;-1.21776;-0.191812;219.0;-11.04;44.34;6.96;176.9988;89.4122;-119.5741;0.0;1017.77;57.25901;;;;;;0 / 0;85.8;45.0;3.667;6133;2014-11-17 16:56:55:364
-3.112462;-12.77546;-3.955221;-0.181643;-9.793358;-0.477036;-2.93082;-2.982102;-3.478185;-0.29627;0.051618;-0.400728;213.0;-11.4;43.26;9.36;176.9988;89.4122;-119.5741;0.0;1017.77;57.25901;;;;;;0 / 0;85.8;45.0;3.667;6185;2014-11-17 16:56:55:416
6.234502;-5.046977;-3.035848;0.36794;-9.752748;-0.958608;5.866562;4.705771;-2.077239;-1.71195;1.325578;0.008247;208.0;-12.36;41.88;14.4;253.1268;87.0163;159.1545;0.0;1017.77;57.25901;;;;;;0 / 0;85.8;45.0;3.667;6251;2014-11-17 16:56:55:482
-2.030283;-11.741164;-0.632069;0.286067;-9.756964;-0.943505;-2.31635;-1.9842;0.311436;-1.086729;0.138056;-0.205251;205.0;-13.32;41.22;17.4;200.5515;83.9899;-159.0019;0.0;1017.77;57.25901;;;;;;0 / 0;85.8;45.0;3.667;6307;2014-11-17 16:56:55:538
0.45011;-8.954314;-1.704672;0.199985;-9.757386;-0.96117;0.250125;0.803072;-0.743502;-0.948979;-0.209527;0.049786;205.0;-15.54;39.54;22.56;206.8984;84.2544;-168.2465;0.0;1017.77;57.25901;;;;;;0 / 0;85.8;45.0;3.667;6372;2014-11-17 16:56:55:603
0.45011;-9.921572;-0.679953;0.213174;-9.762274;-0.907166;0.236936;-0.159297;0.227213;-0.701273;0.230907;0.121257;200.0;-15.96;38.7;24.6;206.8984;84.2544;-168.2465;0.0;1017.79;62.06743;;;;;;0 / 0;85.8;45.0;3.667;6428;2014-11-17 16:56:55:659
-0.814029;-9.270348;-0.440533;0.11888;-9.76495;-0.895566;-0.932909;0.494601;0.455033;-0.824363;1.197296;0.048258;198.0;-16.2;37.68;27.48;200.8884;84.5472;-166.7761;0.0;1017.79;62.06743;;;;;;0 / 0;85.8;45.0;3.667;6491;2014-11-17 16:56:55:722
-1.484405;-9.844956;-2.020706;-0.021528;-9.75962;-0.959034;-1.462877;-0.085338;-1.061672;-0.223882;0.338725;0.017104;201.0;-16.14;37.44;28.02;204.8213;84.7142;-172.4386;0.0;1017.79;62.06743;;;;;;0 / 0;85.8;45.0;3.667;6544;2014-11-17 16:56:55:775
0.641646;-8.810662;-1.11091;0.037395;-9.755468;-0.9999;0.604251;0.944807;-0.111009;-0.488081;0.133169;-0.036652;200.0;-17.1;36.24;30.36;210.6451;84.1438;-177.8582;0.0;1017.82;62.06743;;;;;;0 / 0;85.8;45.0;3.667;6597;2014-11-17 16:56:55:828
-0.507571;-9.662998;-1.570596;0.006102;-9.74508;-1.097182;-0.513672;0.082082;-0.473414;-0.681115;0.234572;-0.167072;200.0;-17.82;35.58;31.86;210.6451;84.1438;-177.8582;0.0;1017.82;62.06743;;;;;;0 / 0;85.8;45.0;3.667;6655;2014-11-17 16:56:55:886
0.23942;-9.165004;-1.819593;0.014064;-9.737092;-1.165862;0.225356;0.572088;-0.653732;-0.39523;0.206167;-0.005192;200.0;-19.26;34.02;34.32;211.8331;83.1718;-179.3089;0.0;1017.82;62.06743;;;;;;0 / 0;85.8;45.0;3.667;6742;2014-11-17 16:56:55:973
-0.737414;-9.911994;2.346318;-0.081364;-9.775348;-0.778649;-0.65605;-0.136646;3.124967;0.38118;0.575741;0.276417;201.0;-20.82;32.82;35.82;211.8331;83.1718;-179.3089;0.0;1017.85;57.78447;;;;;;0 / 0;85.8;45.0;3.667;6801;2014-11-17 16:56:56:032
-0.306458;-12.50731;-0.086191;-0.134616;-9.792914;-0.501081;-0.171842;-2.714394;0.41489;1.266629;0.332311;0.304211;202.0;-22.5;32.1;36.66;219.7047;85.4211;174.0346;0.0;1017.85;57.78447;;;;;;0 / 0;85.8;45.0;3.667;6855;2014-11-17 16:56:56:086
4.29041;-11.999738;-2.327164;0.305572;-9.790586;-0.470593;3.984838;-2.209153;-1.85657;2.244014;0.324675;0.317345;204.0;-23.88;32.7;36.72;179.9711;86.7199;-147.003;0.0;1017.85;57.78447;;;;;;0 / 0;85.8;45.0;3.667;6923;2014-11-17 16:56:56:154
2.30801;-12.038046;-4.443638;0.477739;-9.763658;-0.78304;1.830271;-2.274386;-3.660598;1.926974;1.25319;0.401033;208.0;-26.7;36.18;33.72;187.6944;84.633;-148.6123;0.0;1017.97;57.78447;;;;;;0 / 0;85.8;45.0;3.667;6991;2014-11-17 16:56:56:222
1.177947;-7.536947;-3.294421;0.554606;-9.700602;-1.327073;0.623341;2.163656;-1.967348;1.615128;-0.223271;0.355218;224.0;-29.04;39.9;29.34;201.3767;83.4979;-153.9423;0.0;1017.97;57.78447;;;;;;0 / 0;85.8;45.0;3.667;7058;2014-11-17 16:56:56:289
1.177947;-7.536947;-3.294421;0.554606;-9.700602;-1.327073;0.623341;2.163656;-1.967348;0.514959;-0.13775;0.34575;224.0;-29.58;42.96;24.66;201.3767;83.4979;-153.9423;0.0;1017.97;57.78447;;;;;;0 / 0;85.8;45.0;3.667;7112;2014-11-17 16:56:56:343
0.823605;-5.928043;-2.001553;0.616096;-9.654526;-1.606521;0.20751;3.726483;-0.395031;-0.152411;-0.748921;0.05284;227.0;-29.22;44.28;22.98;218.5498;79.895;-159.0183;0.0;1017.89;59.75702;;;;;;0 / 0;85.8;45.0;3.667;7169;2014-11-17 16:56:56:400
0.277727;-7.192182;-1.742979;0.631603;-9.615186;-1.822;-0.353876;2.423005;0.079021;-1.04122;-0.173791;0.029627;216.0;-29.04;44.64;23.58;220.724;78.6595;-160.8809;0.0;1017.89;59.75702;;;;;;0 / 0;85.8;45.0;3.667;7235;2014-11-17 16:56:56:466
-1.206678;-11.60709;1.015142;0.317901;-9.786668;-0.538917;-1.524579;-1.820421;1.554058;0.347582;-1.118189;0.013439;202.0;-28.74;43.98;28.14;196.6444;86.3419;-149.4641;0.0;1017.81;59.75702;;;;;;0 / 0;85.8;45.0;3.667;7309;2014-11-17 16:56:56:540
4.003105;-9.902418;1.072602;0.541552;-9.786356;-0.323103;3.461553;-0.116062;1.395705;-0.360105;-0.400422;0.251066;201.0;-27.48;43.86;31.32;160.5236;86.3131;-120.8213;0.0;1017.81;59.75702;;;;;;0 / 0;85.8;45.0;3.667;7377;2014-11-17 16:56:56:608
-0.172383;-7.843405;-1.723825;0.479915;-9.785028;-0.439667;-0.652297;1.941624;-1.284158;0.305433;-1.329243;-0.093157;195.0;-25.62;44.04;33.96;169.1392;86.1945;-132.4939;0.0;1017.81;59.75702;;;;;;0 / 0;85.8;45.0;3.667;7441;2014-11-17 16:56:56:672
-1.254562;-10.860098;2.25055;0.4016;-9.795182;-0.252062;-1.656162;-1.064917;2.502611;-0.131947;0.225104;0.131031;194.0;-24.96;43.98;34.8;169.1392;86.1945;-132.4939;0.0;1017.81;59.75702;;;;;;0 / 0;85.8;45.0;3.667;7499;2014-11-17 16:56:56:730
2.403779;-10.199298;2.145205;0.525524;-9.790294;-0.21058;1.878255;-0.409004;2.355785;-0.212276;0.082467;0.239459;191.0;-24.24;43.38;35.7;156.4969;87.2286;-122.1142;0.0;1017.81;57.3028;;;;;;0 / 0;85.8;45.0;3.667;7570;2014-11-17 16:56:56:801
-0.421379;-9.5385;0.90022;0.425107;-9.79482;-0.226155;-0.846486;0.256321;1.126375;-0.089186;0.054367;0.04948;183.0;-24.72;42.78;36.18;146.971;87.1862;-113.7295;0.0;1017.81;57.3028;;;;;;0 / 0;85.8;45.0;3.667;7665;2014-11-17 16:56:56:896
0.938527;-10.342952;0.354342;0.426862;-9.794754;-0.225773;0.511665;-0.548198;0.580115;-0.092241;-0.117286;0.138666;180.0;-24.42;42.78;36.36;150.2867;87.1855;-118.0128;0.0;1017.81;57.3028;;;;;;0 / 0;85.8;45.0;3.667;7722;2014-11-17 16:56:56:953
0.114922;-9.528922;0.258574;0.374573;-9.797616;-0.191873;-0.259651;0.268693;0.450447;0.060476;-0.05681;0.149662;176.0;-24.06;43.08;36.48;150.2867;87.1855;-118.0128;0.0;1017.81;57.3028;;;;;;0 / 0;85.8;45.0;3.667;7784;2014-11-17 16:56:57:015
0.114922;-9.528922;0.258574;0.374573;-9.797616;-0.191873;-0.259651;0.268693;0.450447;-0.25076;0.099266;-0.014355;176.0;-24.06;43.14;36.9;148.8283;87.5404;-117.1235;0.0;1017.81;57.3028;;;;;;0 / 0;85.8;45.0;3.667;7834;2014-11-17 16:56:57:065
-0.201113;-9.911994;1.034295;0.397517;-9.79595;-0.227472;-0.59863;-0.116045;1.261767;0.043066;0.008858;0.13042;172.0;-24.36;43.38;37.26;151.4765;87.3232;-119.7796;0.0;1017.82;42.69829;;;;;;0 / 0;85.8;45.0;3.667;7889;2014-11-17 16:56:57:120
0.306458;-9.768342;-0.076614;0.366509;-9.797866;-0.194683;-0.060051;0.029523;0.118069;-0.022907;0.003054;0.085827;169.0;-24.36;43.32;37.26;151.4765;87.3232;-119.7796;0.0;1017.82;42.69829;;;;;;0 / 0;85.8;45.0;3.667;7939;2014-11-17 16:56:57:170
0.497994;-9.768342;0.488417;0.37857;-9.797674;-0.180649;0.119424;0.029332;0.669066;-0.014661;0.055894;0.061087;172.0;-24.12;43.26;37.26;147.1591;87.5485;-115.5099;0.0;1017.82;42.69829;;;;;;0 / 0;85.8;45.0;3.667;8008;2014-11-17 16:56:57:239
0.02873;-9.730036;0.440533;0.375362;-9.798118;-0.162546;-0.346631;0.068082;0.603079;-0.05284;0.06689;0.033292;172.0;-24.3;43.02;37.74;144.3327;87.6094;-113.4144;0.0;1017.8;42.69829;;;;;;0 / 0;85.8;45.0;3.667;8064;2014-11-17 16:56:57:295
0.23942;-9.720458;0.565032;0.391525;-9.797686;-0.149928;-0.152105;0.077227;0.71496;-0.004276;0.011301;0.060781;169.0;-24.42;43.08;37.8;144.3327;87.6094;-113.4144;0.0;1017.8;42.69829;;;;;;0 / 0;85.8;45.0;3.667;8118;2014-11-17 16:56:57:349
0.469264;-9.509768;0.076614;0.400685;-9.797564;-0.132585;0.068579;0.287796;0.2092;0.001833;0.01741;0.07422;169.0;-24.48;43.2;37.74;139.0103;87.5335;-108.3092;0.0;1017.8;42.69829;;;;;;0 / 0;85.8;45.0;3.667;8181;2014-11-17 16:56:57:412
0.6608;-10.25676;1.273715;0.422504;-9.794574;-0.241279;0.238296;-0.462185;1.514994;-0.43066;-0.248622;0.041844;169.0;-24.54;42.84;37.8;145.3282;87.5804;-114.3935;0.0;1017.82;42.69829;;;;;;0 / 0;85.8;45.0;3.667;8268;2014-11-17 16:56:57:499
-0.02873;-9.548076;0.383072;0.425769;-9.79628;-0.148371;-0.454499;0.248203;0.531443;0.107207;0.243735;0.086743;164.0;-24.66;42.66;37.8;151.7691;87.1561;-119.7294;0.0;1017.82;66.1081;;;;;;0 / 0;85.8;45.0;3.667;8322;2014-11-17 16:56:57:553