ACCELEROMETER X (m/s²),ACCELEROMETER Y (m/s²),ACCELEROMETER Z (m/s²),GRAVITY X (m/s²),GRAVITY Y (m/s²),GRAVITY Z (m/s²),LINEAR ACCELERATION X (m/s²),LINEAR ACCELERATION Y (m/s²),LINEAR ACCELERATION Z (m/s²),MAGNETIC FIELD X (μT),MAGNETIC FIELD Y (μT),MAGNETIC FIELD Z (μT),ORIENTATION X (°),ORIENTATION Y (°),ORIENTATION Z (°),PROXIMITY (i),SOUND LEVEL (dB),LOCATION Latitude : ,LOCATION Longitude : ,LOCATION Altitude ( m),LOCATION Altitude-google ( m),LOCATION Speed ( Kmh),LOCATION Accuracy ( m),LOCATION ORIENTATION (°),Satellites in range,Time since start in ms ,YYYY-MO-DD HH-MI-SS_SSS
0.6304,-9.3675,0.305,0.5693,-9.7885,0.1788,0.0011,0.1642,0.0841,9.74,52.59,-31.49,275.21,86.34,-72.45,0.0,70.251,35.177998,126.90892,,155.13151040640358,,79.34838,,0 / 22,16,2014-12-14 14:30:49:702
1.914,-9.9806,0.7648,0.5693,-9.7885,0.1788,0.0011,0.1642,0.0841,9.74,52.96,-29.55,276.81,86.51,-72.56,0.0,70.251,35.177998,126.90892,,155.13151040640358,,79.34838,,0 / 22,66,2014-12-14 14:30:49:752
1.9524,-9.4058,0.669,0.9073,-9.7593,0.3214,1.0726,0.1403,0.2955,10.87,51.46,-27.8,281.32,84.37,-70.49,0.0,52.301,35.177998,126.90892,,155.13151040640358,,79.34838,,0 / 22,116,2014-12-14 14:30:49:802
1.6267,-9.5208,0.4966,1.0285,-9.7461,0.3544,0.7011,0.0448,0.1751,12.68,52.59,-28.92,281.32,84.37,-70.49,0.0,52.301,35.177998,126.90892,,155.13151040640358,,79.34838,,0 / 22,166,2014-12-14 14:30:49:852
0.7071,-9.4441,0.0368,1.0184,-9.7473,0.3511,-0.242,0.0542,-0.1081,12.37,51.09,-29.24,283.54,83.63,-70.99,0.0,52.301,35.177998,126.90892,,155.13151040640358,,79.34838,,0 / 22,216,2014-12-14 14:30:49:902
3.0252,-10.7277,1.3204,1.2385,-9.7194,0.4126,1.8773,-1.0199,1.0101,15.3,52.21,-25.61,292.6,83.58,-72.39,0.0,52.301,35.177998,126.90892,,155.13151040640358,,79.34838,,0 / 22,266,2014-12-14 14:30:49:952
2.6421,-9.9422,0.8606,1.3492,-9.701,0.4897,0.0516,-0.4014,0.3239,16.05,51.46,-27.05,292.6,83.58,-72.39,0.0,52.301,35.177998,126.90892,,155.13151040640358,,79.34838,,0 / 22,316,2014-12-14 14:30:50:002
3.3701,-11.973,5.2095,1.3106,-9.6999,0.6043,0.7601,-2.1872,3.6062,16.37,53.71,-27.24,293.9,81.58,-70.05,0.0,52.301,35.177998,126.90892,,155.13151040640358,,79.34838,,0 / 22,366,2014-12-14 14:30:50:052
2.5271,-11.4941,5.1904,1.4308,-9.6393,1.0983,1.6851,-1.8634,4.0058,17.12,52.96,-27.8,289.42,81.54,-65.25,0.0,52.301,35.177998,126.90892,,155.13151040640358,,79.34838,,0 / 22,416,2014-12-14 14:30:50:102
1.8374,-10.3063,2.8339,1.512,-9.4848,1.9805,0.2642,0.0726,1.1412,14.93,49.65,-38.86,257.79,76.57,-40.22,0.0,67.174,35.177998,126.90892,,155.13151040640358,,79.34838,,0 / 22,466,2014-12-14 14:30:50:152
4.0981,-11.3025,1.8568,1.6943,-9.4649,1.9275,2.0649,-1.0364,-0.2751,10.87,46.34,-40.11,257.79,76.57,-40.22,0.0,67.174,35.177998,126.90892,,155.13151040640358,,79.34838,,0 / 22,516,2014-12-14 14:30:50:202
3.964,-9.6166,2.8914,1.9419,-9.4001,2.0096,1.5878,0.962,0.9124,9.74,44.46,-40.8,251.11,74.83,-41.32,0.0,67.174,35.177998,126.90892,,155.13151040640358,,79.34838,,0 / 22,568,2014-12-14 14:30:50:254
4.5387,-7.4134,7.4319,2.2579,-9.1263,2.7897,1.8673,2.2956,4.4696,9.74,41.15,-43.55,251.11,74.83,-41.32,0.0,67.174,35.177998,126.90892,,155.13151040640358,,79.34838,,0 / 22,616,2014-12-14 14:30:50:302
4.6728,-2.7579,5.018,2.7789,-8.6574,3.6738,1.4539,6.2212,1.7642,8.99,36.34,-48.61,247.08,68.53,-38.99,0.0,67.174,35.177998,126.90892,,155.13151040640358,,79.34838,,0 / 22,666,2014-12-14 14:30:50:352
1.2244,-3.9457,-0.3272,3.034,-8.5376,3.7515,-0.1769,4.8704,-2.4656,11.99,37.46,-47.92,255.41,61.98,-37.1,0.0,67.174,35.177998,126.90892,,155.13151040640358,,79.34838,,0 / 22,716,2014-12-14 14:30:50:402
-0.1742,-4.8461,-0.5762,2.856,-8.7801,3.3051,-2.8279,2.4276,-3.3936,16.05,39.65,-44.49,267.82,62.16,-40.75,0.0,67.174,35.177998,126.90892,,155.13151040640358,,79.34838,,0 / 22,766,2014-12-14 14:30:50:452
-1.7835,-3.8499,-0.1739,2.4161,-8.9907,3.0824,-4.0842,3.9901,-2.7201,15.3,42.28,-43.55,267.82,62.16,-40.75,0.0,69.678,35.177998,126.90892,,155.13151040640358,,79.34838,,0 / 22,816,2014-12-14 14:30:50:502
-7.1287,-10.0764,19.9614,1.645,-9.4957,1.8156,-6.4184,7.3885,-9.9751,14.93,46.65,-40.11,267.48,66.46,-38.09,0.0,69.678,35.177998,126.90892,,155.13151040640358,,79.34838,,0 / 22,866,2014-12-14 14:30:50:552
-5.5002,13.814,0.5732,0.1678,-9.7215,1.2788,-10.2269,18.0956,-14.1666,11.62,47.4,-40.05,241.73,68.15,-20.23,0.0,69.678,35.177998,126.90892,,155.13151040640358,,79.34838,,0 / 22,922,2014-12-14 14:30:50:608
-2.3966,-25.5179,-0.787,0.0864,-9.8061,-0.0547,4.5152,-5.7469,-7.2899,10.87,50.03,-38.3,241.73,68.15,-20.23,0.0,69.678,35.177998,126.90892,,155.13151040640358,,79.34838,,0 / 22,966,2014-12-14 14:30:50:652
-5.0021,-8.582,-2.7028,-0.2628,-9.792,-0.468,-3.6191,-3.6784,-3.1291,13.05,52.96,-31.36,0.94,88.83,-158.22,0.0,69.678,35.177998,126.90892,,155.13151040640358,,79.34838,,0 / 22,1016,2014-12-14 14:30:50:702
-6.2091,-9.4825,-6.3812,-1.8196,-9.564,-1.1786,-4.1211,-2.283,-5.5583,13.43,53.71,-31.8,0.94,88.83,-158.22,0.0,69.678,35.177998,126.90892,,155.13151040640358,,79.34838,,0 / 22,1066,2014-12-14 14:30:50:752
13.2366,-36.3424,-10.9601,-0.3936,-9.4064,-2.745,11.5885,-21.7129,-9.123,20.8,56.28,-22.61,66.39,77.23,122.93,0.0,69.678,35.177998,126.90892,,155.13151040640358,,79.34838,,0 / 22,1120,2014-12-14 14:30:50:806
8.6003,-25.8436,7.7576,0.6753,-9.6351,-1.697,8.3943,-14.9992,7.8789,24.49,55.53,-18.55,40.84,73.57,171.84,0.0,70.347,35.177998,126.90892,,155.13151040640358,,79.34838,,0 / 22,1166,2014-12-14 14:30:50:852
18.4093,-3.6966,3.2363,1.7462,-9.6477,0.2091,12.0002,9.0687,6.337,29.68,51.84,-16.99,12.57,83.29,-134.23,0.0,70.347,35.177998,126.90892,,155.13151040640358,,79.34838,,0 / 22,1216,2014-12-14 14:30:50:902
12.2212,-4.2906,5.267,3.2154,-9.2403,0.6701,9.8376,7.0448,4.6953,28.55,50.4,-20.05,12.57,83.29,-134.23,0.0,70.347,35.177998,126.90892,,155.13151040640358,,79.34838,,0 / 22,1266,2014-12-14 14:30:50:952
11.2825,-8.3904,4.8839,4.2423,-8.7356,1.3646,3.0993,7.607,3.8202,26.74,46.71,-21.74,323.24,68.31,-76.59,0.0,70.347,35.177998,126.90892,,155.13151040640358,,79.34838,,0 / 22,1316,2014-12-14 14:30:51:002
21.8578,-27.6253,-7.9139,4.9284,-8.4481,0.7151,13.8054,-11.8158,-9.2373,24.12,46.34,-25.8,323.24,68.31,-76.59,0.0,70.347,35.177998,126.90892,,155.13151040640358,,79.34838,,0 / 22,1366,2014-12-14 14:30:51:052
-2.6456,-39.2928,-5.3083,3.2783,-9.2379,0.2912,-6.8459,-23.7965,-2.1279,20.12,46.34,-29.8,317.02,61.39,-80.88,0.0,70.347,35.177998,126.90892,,155.13151040640358,,79.34838,,0 / 22,1416,2014-12-14 14:30:51:102
-2.1667,-29.158,-9.5423,2.4292,-9.4956,-0.3212,-7.4398,-20.4688,-6.9496,11.99,43.34,-37.74,300.06,70.39,-84.92,0.0,70.347,35.177998,126.90892,,155.13151040640358,,79.34838,,0 / 22,1466,2014-12-14 14:30:51:152
-11.1519,2.434,-10.5386,1.2781,-9.6273,-1.3608,-13.0049,18.0649,-7.9083,10.87,31.59,-40.24,309.57,77.19,-107.22,0.0,72.713,35.177998,126.90892,,155.13151040640358,,79.34838,,0 / 22,1516,2014-12-14 14:30:51:202
-13.5659,6.2848,-12.5885,0.1607,-9.4779,-2.5128,-14.0358,20.4058,-9.2474,13.05,30.84,-39.55,309.57,77.19,-107.22,0.0,72.713,35.177998,126.90892,,155.13151040640358,,79.34838,,0 / 22,1566,2014-12-14 14:30:51:252
-0.3849,-1.1294,-2.7986,-1.2228,-8.7607,-4.2339,1.2484,9.7141,0.4986,11.62,33.03,-37.86,24.91,69.52,167.51,0.0,72.713,35.177998,126.90892,,155.13151040640358,,79.34838,,0 / 22,1616,2014-12-14 14:30:51:302
-0.2125,-9.8273,3.8302,-0.8785,-9.1328,-3.4626,4.9358,0.3073,10.5777,12.37,35.28,-34.74,26.4,63.3,163.89,0.0,72.713,35.177998,126.90892,,155.13151040640358,,79.34838,,0 / 22,1666,2014-12-14 14:30:51:352
-14.3322,-12.0305,-2.358,-0.5225,-9.6375,-1.7364,5.3589,-13.7456,17.7678,11.62,39.28,-30.49,24.75,72.65,169.31,0.0,72.713,35.177998,126.90892,,155.13151040640358,,79.34838,,0 / 22,1716,2014-12-14 14:30:51:402
-23.145,22.8951,-34.2757,-0.7543,-9.4482,-2.5165,-12.9203,22.1382,-16.8409,10.87,38.59,-32.86,24.75,72.65,169.31,0.0,72.713,35.177998,126.90892,,155.13151040640358,,79.34838,,0 / 22,1766,2014-12-14 14:30:51:452
-14.3513,-18.9466,-22.1102,-4.4965,-7.3609,-4.6657,-18.2303,2.1629,-12.2942,8.99,39.65,-29.43,35.41,48.64,136.06,0.0,70.975,35.177998,126.90892,,155.13151040640358,,79.34838,,0 / 22,1816,2014-12-14 14:30:51:502
4.9794,-18.1228,-16.2669,-2.671,-8.44,-4.2193,9.4439,-16.3345,-2.912,10.12,41.9,-24.3,35.41,48.64,136.06,0.0,70.975,35.177998,126.90892,,155.13151040640358,,79.34838,,0 / 22,1866,2014-12-14 14:30:51:552
13.9263,-18.0845,10.0183,-0.157,-9.414,-2.7428,12.3449,-1.7854,17.6414,16.05,42.28,-19.42,37.33,59.39,147.66,0.0,70.975,35.177998,126.90892,,155.13151040640358,,79.34838,,0 / 22,1916,2014-12-14 14:30:51:602
3.5425,-4.7887,14.6738,0.0368,-9.6337,-1.8334,4.1345,6.7403,21.7935,17.12,40.78,-21.24,30.07,79.22,-178.85,0.0,70.975,35.177998,126.90892,,155.13151040640358,,79.34838,,0 / 22,1966,2014-12-14 14:30:51:652
6.2821,-2.4897,2.3358,1.8834,-9.6049,-0.6084,3.7528,9.1429,3.257,16.37,37.09,-26.49,326.73,78.36,-107.9,0.0,70.975,35.177998,126.90892,,155.13151040640358,,79.34838,,0 / 22,2016,2014-12-14 14:30:51:702
8.3704,-2.8728,5.6119,2.6959,-9.4288,-0.0223,5.5114,7.6835,5.2575,13.8,35.28,-26.92,326.73,78.36,-107.9,0.0,70.975,35.177998,126.90892,,155.13151040640358,,79.34838,,0 / 22,2066,2014-12-14 14:30:51:752
14.8076,-7.1643,0.2092,3.2104,-9.262,0.2803,6.7114,6.6285,4.6433,12.37,33.03,-28.99,305.8,74.04,-90.47,0.0,70.975,35.177998,126.90892,,155.13151040640358,,79.34838,,0 / 22,2116,2014-12-14 14:30:51:802
2.2589,-39.2928,-2.7795,3.8549,-9.0064,-0.441,-1.7281,-26.1409,-1.7454,14.93,30.46,-29.55,305.8,74.04,-90.47,0.0,73.633,35.177998,126.90892,,155.13151040640358,,79.34838,,0 / 22,2166,2014-12-14 14:30:51:852
0.1323,-22.74,-9.4274,1.648,-9.5805,-1.2916,-4.3667,-2.3158,-7.0209,13.43,30.84,-33.8,317.96,66.69,-96.53,0.0,73.633,35.177998,126.90892,,155.13151040640358,,79.34838,,0 / 22,2216,2014-12-14 14:30:51:902
-5.6726,-11.7623,-10.4811,0.8754,-9.5632,-1.9872,-13.0773,12.4205,-6.6774,13.05,28.96,-32.99,333.54,77.67,-128.09,0.0,73.633,35.177998,126.90892,,155.13151040640358,,79.34838,,0 / 22,2266,2014-12-14 14:30:51:952
-16.2672,10.0398,-12.7418,-0.3383,-9.3505,-2.9365,-13.4369,20.311,-6.2886,16.05,24.15,-32.92,16.65,75.66,-172.96,0.0,73.633,35.177998,126.90892,,155.13151040640358,,79.34838,,0 / 22,2317,2014-12-14 14:30:52:003
-1.7643,3.162,-7.9522,-2.1322,-8.2095,-4.9222,-0.9694,13.8067,-3.514,11.24,25.28,-32.92,16.65,75.66,-172.96,0.0,73.633,35.177998,126.90892,,155.13151040640358,,79.34838,,0 / 22,2366,2014-12-14 14:30:52:052
0.0748,-6.4363,5.8035,-2.1769,-8.1194,-5.0504,1.3563,9.2741,2.7468,11.24,30.46,-30.3,31.6,56.84,156.58,0.0,73.633,35.177998,126.90892,,155.13151040640358,,79.34838,,0 / 22,2416,2014-12-14 14:30:52:102
2.0673,-8.5629,1.5503,-1.2494,-9.1494,-3.3013,3.6409,0.7124,5.0343,11.24,31.59,-28.55,31.6,56.84,156.58,0.0,73.633,35.177998,126.90892,,155.13151040640358,,79.34838,,0 / 22,2466,2014-12-14 14:30:52:152
10.7843,-10.0572,7.7193,-1.2116,-8.6969,-4.3665,-17.3996,27.3608,-17.7114,8.3,33.78,-25.11,28.97,68.9,159.27,0.0,71.621,35.177998,126.90892,,155.13151040640358,,79.34838,,0 / 22,2516,2014-12-14 14:30:52:202
-37.5137,10.2506,-5.8065,-3.4034,-7.5972,-5.1836,-2.9924,-8.8204,-18.941,1.99,35.28,-25.11,13.08,62.48,164.49,0.0,71.621,35.177998,126.90892,,155.13151040640358,,79.34838,,0 / 22,2566,2014-12-14 14:30:52:252
0.0557,-39.1778,-26.0185,-2.5328,-7.479,-5.8154,3.4007,-24.433,-17.0837,6.43,37.09,-21.36,13.08,62.48,164.49,0.0,71.621,35.177998,126.90892,,155.13151040640358,,79.34838,,0 / 22,2616,2014-12-14 14:30:52:302
17.7963,-31.4187,-9.2933,-0.4846,-8.5693,-4.7436,19.026,-17.8931,0.6493,12.3,38.96,-14.36,27.88,49.7,156.47,0.0,71.621,35.177998,126.90892,,155.13151040640358,,79.34838,,0 / 22,2666,2014-12-14 14:30:52:352
8.6386,-5.1527,7.2786,0.4493,-9.6588,-1.6358,2.8528,9.2779,17.4085,17.12,38.59,-10.86,32.44,69.56,-175.24,0.0,71.621,35.177998,126.90892,,155.13151040640358,,79.34838,,0 / 22,2716,2014-12-14 14:30:52:402
9.3666,-3.7733,2.4508,2.0255,-9.5679,-0.7228,6.957,8.0593,3.6032,17.12,39.65,-12.86,32.44,69.56,-175.24,0.0,71.621,35.177998,126.90892,,155.13151040640358,,79.34838,,0 / 22,2766,2014-12-14 14:30:52:452
7.0868,-3.1794,4.9605,2.4519,-9.4813,-0.5142,5.6769,7.8173,3.9213,15.68,39.34,-14.36,344.34,77.33,-109.64,0.0,73.362,35.177998,126.90892,,155.13151040640358,,79.34838,,0 / 22,2816,2014-12-14 14:30:52:502
9.8839,-4.2139,5.746,3.2485,-9.2517,0.1521,5.0502,7.0049,5.6625,14.93,40.78,-14.17,344.34,77.33,-109.64,0.0,73.362,35.177998,126.90892,,155.13151040640358,,79.34838,,0 / 22,2866,2014-12-14 14:30:52:552
-11.0561,-37.2428,-10.2704,2.8307,-9.2857,-1.3901,-14.9374,-22.3128,-9.3626,3.49,40.4,-25.11,320.72,70.63,-87.32,0.0,73.362,35.177998,126.90892,,155.13151040640358,,79.34838,,0 / 22,2916,2014-12-14 14:30:52:602
-6.6114,-27.3188,-7.9905,1.8958,-9.446,-1.8303,-8.8179,-0.2765,-6.5978,3.12,36.34,-28.99,316.71,71.24,-116.16,0.0,73.362,35.177998,126.90892,,155.13151040640358,,79.34838,,0 / 22,2966,2014-12-14 14:30:52:652
-10.5963,-2.2981,-10.3853,1.6328,-9.4336,-2.124,-7.882,8.1697,-5.5123,3.49,33.4,-33.3,316.71,71.24,-116.16,0.0,73.362,35.177998,126.90892,,155.13151040640358,,79.34838,,0 / 22,3016,2014-12-14 14:30:52:702
-14.3897,6.9554,-8.4695,-0.9929,-8.9036,-3.9888,-16.8014,14.9088,-6.1982,6.43,32.34,-33.55,337.31,74.15,-142.45,0.0,73.362,35.177998,126.90892,,155.13151040640358,,79.34838,,0 / 22,3066,2014-12-14 14:30:52:752
-4.6381,2.0125,-2.6645,-1.7505,-8.4615,-4.6377,-11.3073,19.434,-5.4355,7.18,35.28,-32.17,23.33,59.64,159.32,0.0,73.362,35.177998,126.90892,,155.13151040640358,,79.34838,,0 / 22,3116,2014-12-14 14:30:52:802
13.7539,-17.9504,10.3823,-1.4769,-8.8225,-4.0191,11.8122,-6.5462,11.8685,8.3,40.78,-29.36,24.48,54.93,155.47,0.0,71.508,35.177998,126.90892,,155.13151040640358,,79.34838,,0 / 22,3166,2014-12-14 14:30:52:852
4.2705,-6.398,-3.3542,-0.6141,-9.326,-2.9697,11.7822,-8.4182,13.977,6.43,41.9,-28.8,24.48,54.93,155.47,0.0,71.508,35.177998,126.90892,,155.13151040640358,,79.34838,,0 / 22,3216,2014-12-14 14:30:52:902
17.1449,-34.12,15.7274,0.1634,-8.6961,-4.5301,17.1154,-27.2123,2.1206,6.8,47.09,-24.92,7.7,59.37,171.43,0.0,71.508,35.177998,126.90892,,155.13151040640358,,79.34838,,0 / 22,3266,2014-12-14 14:30:52:952
-39.5828,39.1604,-18.7958,-0.0663,-8.5133,-4.8672,-3.4764,15.5312,2.0046,4.93,44.84,-29.36,4.84,62.47,-177.93,0.0,71.508,35.177998,126.90892,,155.13151040640358,,79.34838,,0 / 22,3316,2014-12-14 14:30:53:002
-12.6271,-25.8053,-32.5514,-4.3131,-5.4577,-6.9124,-4.5433,-20.4897,-21.3362,2.74,47.09,-25.17,4.84,62.47,-177.93,0.0,71.508,35.177998,126.90892,,155.13151040640358,,79.34838,,0 / 22,3366,2014-12-14 14:30:53:052
5.171,-27.4721,-5.3658,-1.2417,-8.0346,-5.484,23.5366,-21.8007,7.4817,13.05,48.9,-17.67,22.0,33.82,148.04,0.0,71.508,35.177998,126.90892,,155.13151040640358,,79.34838,,0 / 22,3416,2014-12-14 14:30:53:102
6.4162,-16.7626,11.1486,0.0296,-9.1973,-3.4028,1.4127,8.3381,13.067,14.93,48.53,-14.55,24.64,62.12,175.59,0.0,71.508,35.177998,126.90892,,155.13151040640358,,79.34838,,0 / 22,3466,2014-12-14 14:30:53:152
11.6081,-5.9765,8.045,0.3922,-9.3559,-2.9128,6.0623,6.6632,11.6836,17.12,45.21,-16.3,25.55,72.56,-172.33,0.0,71.508,35.177998,126.90892,,155.13151040640358,,79.34838,,0 / 22,3516,2014-12-14 14:30:53:202
8.3512,-3.5051,6.6656,2.289,-9.4433,-1.325,4.2264,6.9097,7.0263,16.37,43.4,-17.67,25.55,72.56,-172.33,0.0,72.797,35.177998,126.90892,,155.13151040640358,,79.34838,,0 / 22,3566,2014-12-14 14:30:53:252
8.198,-2.6621,4.2133,3.1451,-9.2643,-0.6725,4.7801,7.1096,3.5937,12.3,41.53,-21.99,337.81,74.35,-120.06,0.0,72.797,35.177998,126.90892,,155.13151040640358,,79.34838,,0 / 22,3616,2014-12-14 14:30:53:302
12.0679,-39.2544,-2.607,4.2108,-8.8214,-0.7885,11.1754,-26.2923,-5.0985,6.05,35.28,-23.11,309.24,66.52,-88.53,0.0,72.797,35.177998,126.90892,,155.13151040640358,,79.34838,,0 / 22,3667,2014-12-14 14:30:53:353
-9.2552,-37.3769,-9.5423,3.33,-9.1627,-1.0612,-8.1131,-25.994,-7.0856,4.24,30.84,-23.36,309.24,66.52,-88.53,0.0,72.797,35.177998,126.90892,,155.13151040640358,,79.34838,,0 / 22,3716,2014-12-14 14:30:53:402
-7.0329,-10.0764,-6.956,1.0367,-9.5867,-1.7865,-7.357,4.0669,-4.2418,0.49,27.9,-24.99,317.92,77.07,-128.87,0.0,72.797,35.177998,126.90892,,155.13151040640358,,79.34838,,0 / 22,3766,2014-12-14 14:30:53:452
-11.5925,-6.2447,-5.6532,0.5459,-9.589,-1.9806,-11.9194,8.5526,-2.7431,1.24,27.53,-23.67,317.92,77.07,-128.87,0.0,72.797,35.177998,126.90892,,155.13151040640358,,79.34838,,0 / 22,3816,2014-12-14 14:30:53:502
-9.5426,7.2811,-5.7107,-1.4926,-9.3036,-2.7178,-8.9129,18.4444,-1.1258,1.62,28.59,-24.05,351.28,77.91,-164.59,0.0,71.619,35.177998,126.90892,,155.13151040640358,,79.34838,,0 / 22,3866,2014-12-14 14:30:53:552
-6.2091,5.4419,-9.8872,-2.4805,-8.6947,-3.7973,-4.1217,15.1502,-5.5085,0.49,29.34,-22.74,21.37,71.57,151.22,0.0,71.619,35.177998,126.90892,,155.13151040640358,,79.34838,,0 / 22,3916,2014-12-14 14:30:53:602
2.2014,-9.2334,11.7808,-2.959,-8.36,-4.1862,2.1881,2.3979,9.4414,1.62,31.59,-15.99,22.01,58.48,144.75,0.0,71.619,35.177998,126.90892,,155.13151040640358,,79.34838,,0 / 22,3966,2014-12-14 14:30:53:652
7.7382,-17.5864,15.9957,-0.5382,-9.7831,-0.4155,10.898,-9.4504,19.8412,1.62,31.59,-15.99,22.01,58.48,144.75,0.0,71.619,35.177998,126.90892,,155.13151040640358,,79.34838,,0 / 22,4016,2014-12-14 14:30:53:702
-6.439,-25.5946,-39.7933,-1.5083,-8.4562,-4.7316,-14.6114,2.8056,-35.4239,-4.63,33.78,-17.42,37.99,86.02,127.67,0.0,71.619,35.177998,126.90892,,155.13151040640358,,79.34838,,0 / 22,4066,2014-12-14 14:30:53:752
-27.5514,0.9397,-10.7685,-2.4658,-8.6385,-3.9328,-20.6255,2.4904,-0.2383,-3.51,35.28,-15.8,1.88,59.57,162.32,0.0,71.619,35.177998,126.90892,,155.13151040640358,,79.34838,,0 / 22,4116,2014-12-14 14:30:53:802
14.0604,-27.8361,-10.7876,-3.2706,-7.0848,-5.9397,20.539,-22.3295,4.157,-5.38,33.03,-9.99,6.04,35.52,135.22,0.0,71.619,35.177998,126.90892,,155.13151040640358,,79.34838,,0 / 22,4166,2014-12-14 14:30:53:852
6.5887,-11.9539,-5.5191,-2.3593,-7.7493,-5.5275,14.6348,-11.354,6.2981,-4.63,34.53,-9.05,6.04,35.52,135.22,0.0,70.356,35.177998,126.90892,,155.13151040640358,,79.34838,,0 / 22,4216,2014-12-14 14:30:53:902
0.3431,-12.6436,0.1326,-1.3379,-8.4226,-4.8415,3.2716,-3.9697,5.3436,-2.45,34.9,-9.3,2.09,54.2,161.13,0.0,70.356,35.177998,126.90892,,155.13151040640358,,79.34838,,0 / 22,4266,2014-12-14 14:30:53:952
-7.1478,-5.7849,3.1979,-1.7611,-8.514,-4.5365,-5.6413,3.3319,7.3132,-1.32,34.15,-9.3,3.27,59.19,164.55,0.0,70.356,35.177998,126.90892,,155.13151040640358,,79.34838,,0 / 22,4316,2014-12-14 14:30:54:002
5.5541,-7.5283,1.991,-1.6505,-9.162,-3.083,6.174,1.3876,4.2973,3.12,33.4,-1.49,12.56,64.0,149.19,0.0,70.356,35.177998,126.90892,,155.13151040640358,,79.34838,,0 / 22,4366,2014-12-14 14:30:54:052
6.7419,-7.9498,-10.8834,-1.0804,-9.3856,-2.6293,7.9422,0.6441,6.9988,4.24,31.96,-2.61,12.56,64.0,149.19,0.0,70.356,35.177998,126.90892,,155.13151040640358,,79.34838,,0 / 22,4416,2014-12-14 14:30:54:102
11.6656,-19.713,2.1825,1.6518,-9.3092,-2.6041,-4.8857,-6.1036,3.5342,1.62,29.71,-2.67,29.69,73.15,157.66,0.0,70.356,35.177998,126.90892,,155.13151040640358,,79.34838,,0 / 22,4466,2014-12-14 14:30:54:152
-0.0593,-28.5833,-5.2892,1.2688,-9.4417,-2.3271,-5.2796,-7.1116,3.0658,2.37,28.28,-8.11,350.91,71.67,-147.61,0.0,70.356,35.177998,126.90892,,155.13151040640358,,79.34838,,0 / 22,4516,2014-12-14 14:30:54:202
0.8987,-39.2928,-7.5499,0.8892,-9.5208,-2.176,-0.7474,-23.3891,-4.9522,1.99,26.03,-9.18,350.91,71.67,-147.61,0.0,72.564,35.177998,126.90892,,155.13151040640358,,79.34838,,0 / 22,4567,2014-12-14 14:30:54:253
-19.3708,-32.2617,-12.4927,-0.0629,-9.5325,-2.3016,-15.6577,-18.9163,-7.8626,1.99,27.15,-11.74,351.5,76.13,-157.77,0.0,72.564,35.177998,126.90892,,155.13151040640358,,79.34838,,0 / 22,4616,2014-12-14 14:30:54:302
-16.0181,3.9667,-7.5499,-2.8407,-8.5705,-3.8272,-9.8235,17.0473,-1.0058,-2.07,29.71,-21.86,11.45,71.61,159.04,0.0,72.564,35.177998,126.90892,,155.13151040640358,,79.34838,,0 / 22,4667,2014-12-14 14:30:54:353
-6.7647,0.0775,-0.5188,-3.2394,-8.3561,-3.9815,-4.8672,13.6536,1.0972,-1.7,29.34,-20.55,21.22,58.44,140.87,0.0,72.564,35.177998,126.90892,,155.13151040640358,,79.34838,,0 / 22,4716,2014-12-14 14:30:54:402
-3.8143,-2.9112,2.5849,-3.9865,-8.2047,-3.6002,0.8378,7.0522,6.8519,0.87,30.46,-18.3,21.22,58.44,140.87,0.0,72.564,35.177998,126.90892,,155.13151040640358,,79.34838,,0 / 22,4766,2014-12-14 14:30:54:452
-1.8218,-6.5512,-0.3464,-3.9972,-8.3403,-3.2607,2.5562,3.0199,3.9402,1.24,30.84,-18.3,27.94,56.79,132.08,0.0,72.564,35.177998,126.90892,,155.13151040640358,,79.34838,,0 / 22,4816,2014-12-14 14:30:54:502
7.6807,-16.9159,5.0371,-1.7324,-9.3529,-2.386,9.4554,-5.2446,7.1501,3.87,31.96,-14.36,27.94,56.79,132.08,0.0,72.564,35.177998,126.90892,,155.13151040640358,,79.34838,,0 / 22,4866,2014-12-14 14:30:54:552
0.0557,-8.6586,0.7648,-1.5167,-9.4375,-2.1918,3.7082,0.7199,3.5176,3.49,32.71,-12.92,28.85,72.5,144.02,0.0,70.031,35.177998,126.90892,,155.13151040640358,,79.34838,,0 / 22,4916,2014-12-14 14:30:54:602
-1.5345,-9.4633,0.6882,-1.5682,-9.4675,-2.0194,-0.5603,0.9566,2.9661,3.49,32.28,-11.3,28.85,72.5,144.02,0.0,70.031,35.177998,126.90892,,155.13151040640358,,79.34838,,0 / 22,4966,2014-12-14 14:30:54:652
2.2014,-9.6932,1.2438,-0.5226,-9.7424,-0.9917,2.224,0.5283,1.8582,5.68,33.78,-8.3,48.09,81.37,146.64,0.0,70.031,35.177998,126.90892,,155.13151040640358,,79.34838,,0 / 22,5135,2014-12-14 14:30:54:821
2.2014,-9.6932,1.2438,-0.5226,-9.7424,-0.9917,2.224,0.5283,1.8582,5.68,33.78,-8.3,48.09,81.37,146.64,0.0,70.031,35.177998,126.90892,,155.13151040640358,,79.34838,,0 / 22,5136,2014-12-14 14:30:54:822
2.2014,-9.6932,1.2438,-0.5226,-9.7424,-0.9917,2.224,0.5283,1.8582,5.68,33.78,-8.3,48.09,81.37,146.64,0.0,70.031,35.177998,126.90892,,155.13151040640358,,79.34838,,0 / 22,5138,2014-12-14 14:30:54:824
2.5654,-9.8273,0.5732,0.0539,-9.7858,-0.637,2.7361,0.3598,1.3863,4.93,35.28,-9.42,48.09,81.37,146.64,0.0,70.031,35.177998,126.90892,,155.13151040640358,,79.34838,,0 / 22,5166,2014-12-14 14:30:54:852
0.4005,-9.3483,-0.308,0.2276,-9.7885,-0.5508,0.6632,0.6578,0.33,4.55,35.65,-8.74,19.82,86.26,-175.16,0.0,67.346,35.177998,126.90892,,155.13151040640358,,79.34838,,0 / 22,5216,2014-12-14 14:30:54:902
0.6688,-9.8081,0.669,0.3313,-9.7934,-0.3864,0.2983,-0.0436,1.012,5.68,33.78,-9.42,4.49,86.62,-151.62,0.0,67.346,35.177998,126.90892,,155.13151040640358,,79.34838,,0 / 22,5266,2014-12-14 14:30:54:952
1.5309,-9.425,0.5158,0.3726,-9.7945,-0.3151,0.5716,0.3228,1.0183,4.55,33.4,-9.61,4.49,86.62,-151.62,0.0,67.346,35.177998,126.90892,,155.13151040640358,,79.34838,,0 / 22,5316,2014-12-14 14:30:55:002
2.7762,-9.1568,0.669,0.5694,-9.7877,-0.2184,1.521,0.3169,0.6713,5.3,33.03,-8.55,342.07,87.15,-130.22,0.0,67.346,35.177998,126.90892,,155.13151040640358,,79.34838,,0 / 22,5366,2014-12-14 14:30:55:052
1.3968,-9.6357,1.3204,1.0595,-9.749,0.0637,1.2552,0.2169,1.5756,6.43,35.65,-10.42,311.82,83.79,-86.56,0.0,67.346,35.177998,126.90892,,155.13151040640358,,79.34838,,0 / 22,5417,2014-12-14 14:30:55:103
-0.0401,-9.5016,1.1863,0.9943,-9.7537,0.2178,-0.9569,0.1661,0.991,2.74,32.34,-9.18,311.82,83.79,-86.56,0.0,67.346,35.177998,126.90892,,155.13151040640358,,79.34838,,0 / 22,5466,2014-12-14 14:30:55:152
0.6496,-9.7315,0.4008,0.8634,-9.7647,0.2753,-0.8804,0.0648,0.2492,4.55,33.03,-8.11,306.53,84.04,-77.64,0.0,67.346,35.177998,126.90892,,155.13151040640358,,79.34838,,0 / 22,5516,2014-12-14 14:30:55:202
0.9944,-9.5399,0.669,0.8417,-9.7656,0.3077,0.0737,0.103,0.3272,3.87,32.28,-7.86,293.86,84.76,-69.92,0.0,63.233,35.177998,126.90892,,155.13151040640358,,79.34838,,0 / 22,5566,2014-12-14 14:30:55:252
1.0711,-9.2717,0.9756,0.8875,-9.7565,0.4407,0.1999,0.3045,0.4842,3.49,32.34,-9.3,293.86,84.76,-69.92,0.0,63.233,35.177998,126.90892,,155.13151040640358,,79.34838,,0 / 22,5616,2014-12-14 14:30:55:302
0.8603,-9.5591,1.1863,0.8803,-9.7511,0.5577,-0.0813,-0.0801,0.6608,3.12,31.96,-10.42,284.92,84.2,-63.59,0.0,63.233,35.177998,126.90892,,155.13151040640358,,79.34838,,0 / 22,5666,2014-12-14 14:30:55:352
1.2435,-9.3483,1.1288,0.9157,-9.7434,0.6307,0.2918,0.3203,0.4281,3.12,31.59,-8.55,277.0,83.9,-57.65,0.0,63.233,35.177998,126.90892,,155.13151040640358,,79.34838,,0 / 22,5716,2014-12-14 14:30:55:402
1.3201,-9.2909,1.2821,0.9512,-9.7337,0.7212,0.1952,0.0075,0.6785,3.49,30.09,-9.3,277.0,83.9,-57.65,0.0,63.233,35.177998,126.90892,,155.13151040640358,,79.34838,,0 / 22,5766,2014-12-14 14:30:55:452
1.3585,-9.4441,0.6882,1.0351,-9.7199,0.7887,0.4159,0.203,0.034,3.12,31.96,-8.74,276.4,82.53,-51.96,0.0,63.233,35.177998,126.90892,,155.13151040640358,,79.34838,,0 / 22,5816,2014-12-14 14:30:55:502
0.7645,-9.7507,1.2821,1.0392,-9.7176,0.8113,-0.158,-0.1544,0.3307,4.93,30.84,-8.74,284.26,82.27,-52.02,0.0,54.919,35.177998,126.90892,,155.13151040640358,,79.34838,,0 / 22,5867,2014-12-14 14:30:55:553
0.6304,-9.5399,1.2055,0.9904,-9.7174,0.8723,-0.3575,-0.0157,0.3987,4.93,32.65,-10.36,284.26,82.27,-52.02,0.0,54.919,35.177998,126.90892,,155.13151040640358,,79.34838,,0 / 22,5916,2014-12-14 14:30:55:602
1.0519,-9.5208,1.0905,0.9724,-9.7151,0.9178,0.0582,0.0327,0.1776,4.55,32.71,-10.17,278.47,82.27,-48.63,0.0,54.919,35.177998,126.90892,,155.13151040640358,,79.34838,,0 / 22,5966,2014-12-14 14:30:55:652
1.0136,-9.5399,1.148,0.9945,-9.71,0.9471,0.0138,0.116,0.0731,4.18,32.34,-10.17,272.54,82.16,-46.65,0.0,54.919,35.177998,126.90892,,155.13151040640358,,79.34838,,0 / 22,6016,2014-12-14 14:30:55:702
0.8412,-9.4441,1.033,0.9911,-9.7081,0.97,-0.074,0.0762,0.1036,4.55,31.21,-9.61,275.35,81.87,-45.62,0.0,54.919,35.177998,126.90892,,155.13151040640358,,79.34838,,0 / 22,6066,2014-12-14 14:30:55:752
0.8029,-9.674,0.5732,0.9589,-9.713,0.9529,-0.0348,-0.1568,-0.195,4.93,31.96,-9.99,275.35,81.87,-45.62,0.0,54.919,35.177998,126.90892,,155.13151040640358,,79.34838,,0 / 22,6116,2014-12-14 14:30:55:802
1.6458,-9.5208,0.1518,0.9542,-9.7227,0.8539,0.1386,0.5265,-0.5519,4.93,31.96,-8.99,274.33,82.08,-45.18,0.0,54.919,35.177998,126.90892,,155.13151040640358,,79.34838,,0 / 22,6166,2014-12-14 14:30:55:852
0.7071,-10.1721,0.5732,0.9463,-9.7279,0.8016,-0.3835,-0.6172,-0.0957,4.55,33.03,-8.11,286.27,82.5,-48.17,0.0,53.349,35.177998,126.90892,,155.13151040640358,,79.34838,,0 / 22,6216,2014-12-14 14:30:55:902
1.301,-9.8848,1.148,1.0265,-9.7183,0.8194,0.5702,-0.3809,0.4742,2.37,32.34,-8.3,286.27,82.5,-48.17,0.0,53.349,35.177998,126.90892,,155.13151040640358,,79.34838,,0 / 22,6266,2014-12-14 14:30:55:952
0.6688,-9.7315,1.2821,0.95,-9.7155,0.9361,-0.4887,-0.1505,0.504,3.87,31.96,-8.11,280.81,82.3,-51.4,0.0,53.349,35.177998,126.90892,,155.13151040640358,,79.34838,,0 / 22,6316,2014-12-14 14:30:56:002
1.3585,-9.5591,0.8989,0.9696,-9.7131,0.9414,0.3749,-0.0247,-0.0415,3.87,31.21,-9.99,270.49,82.18,-45.42,0.0,53.349,35.177998,126.90892,,155.13151040640358,,79.34838,,0 / 22,6366,2014-12-14 14:30:56:052
0.6113,-10.1338,-0.1165,0.9189,-9.7233,0.8846,-0.2427,0.2034,-1.1032,4.93,31.59,-8.74,278.25,82.14,-44.15,0.0,53.349,35.177998,126.90892,,155.13151040640358,,79.34838,,0 / 22,6416,2014-12-14 14:30:56:102