ACCELEROMETER X (m/s²),ACCELEROMETER Y (m/s²),ACCELEROMETER Z (m/s²),GRAVITY X (m/s²),GRAVITY Y (m/s²),GRAVITY Z (m/s²),LINEAR ACCELERATION X (m/s²),LINEAR ACCELERATION Y (m/s²),LINEAR ACCELERATION Z (m/s²),MAGNETIC FIELD X (μT),MAGNETIC FIELD Y (μT),MAGNETIC FIELD Z (μT),ORIENTATION X (°),ORIENTATION Y (°),ORIENTATION Z (°),PROXIMITY (i),SOUND LEVEL (dB),LOCATION Latitude : ,LOCATION Longitude : ,LOCATION Altitude ( m),LOCATION Altitude-google ( m),LOCATION Speed ( Kmh),LOCATION Accuracy ( m),LOCATION ORIENTATION (°),Satellites in range,Time since start in ms ,YYYY-MO-DD HH-MI-SS_SSS
1.8183,-9.6357,1.5312,1.1695,-9.7176,0.609,0.6578,-0.1416,0.7819,15.99,48.21,-29.99,282.91,82.96,-65.16,0.0,71.232,35.178123,126.90903,,153.32503599420892,,192.03548,,0 / 22,3,2014-12-14 14:33:21:382
4.0023,-10.8427,3.2171,1.3274,-9.6797,0.8439,1.7212,-1.0517,2.0386,15.3,47.53,-29.24,282.91,82.96,-65.16,0.0,71.232,35.178123,126.90903,,153.32503599420892,,192.03548,,0 / 22,53,2014-12-14 14:33:21:432
1.1286,-9.5208,2.6806,1.4768,-9.6287,1.1303,-0.0066,-0.6828,1.6121,16.37,45.28,-29.67,277.82,80.77,-57.55,0.0,71.232,35.178123,126.90903,,153.32503599420892,,192.03548,,0 / 22,103,2014-12-14 14:33:21:482
2.9103,-12.9118,6.5698,1.4048,-9.5379,1.7958,-0.7803,-1.5541,3.8458,14.55,43.09,-31.24,261.25,76.56,-38.04,0.0,63.862,35.178123,126.90903,,153.32503599420892,,192.03548,,0 / 22,153,2014-12-14 14:33:21:532
2.9869,-13.2566,6.2249,1.5149,-9.3368,2.5885,0.9939,-2.46,3.116,14.93,41.59,-35.11,261.25,76.56,-38.04,0.0,63.862,35.178123,126.90903,,153.32503599420892,,192.03548,,0 / 22,206,2014-12-14 14:33:21:585
2.872,-12.5286,4.7114,1.5454,-9.3081,2.6724,0.8551,-1.7891,1.9739,14.55,40.46,-37.55,249.87,72.19,-30.34,0.0,63.862,35.178123,126.90903,,153.32503599420892,,192.03548,,0 / 22,254,2014-12-14 14:33:21:633
1.3201,-5.5358,0.1518,1.6148,-9.3151,2.6062,0.0805,1.8562,-1.0346,14.55,36.78,-36.49,251.91,71.45,-30.85,0.0,63.862,35.178123,126.90903,,153.32503599420892,,192.03548,,0 / 22,303,2014-12-14 14:33:21:682
0.8603,-4.2714,-0.0781,1.6657,-9.355,2.4249,-0.5911,5.0466,-2.8336,16.74,35.34,-37.61,251.91,71.45,-30.85,0.0,63.862,35.178123,126.90903,,153.32503599420892,,192.03548,,0 / 22,354,2014-12-14 14:33:21:733
2.2397,-2.5471,4.3666,1.7475,-9.3131,2.5262,0.0614,5.8267,0.5796,17.49,35.28,-35.99,255.92,72.54,-34.49,0.0,63.862,35.178123,126.90903,,153.32503599420892,,192.03548,,0 / 22,403,2014-12-14 14:33:21:782
-9.0445,-0.9187,1.991,1.6414,-9.0714,3.3447,-3.7949,8.3692,-0.203,18.24,38.65,-39.11,256.63,68.31,-30.4,0.0,63.862,35.178123,126.90903,,153.32503599420892,,192.03548,,0 / 22,453,2014-12-14 14:33:21:832
-14.9261,-16.7818,-11.4007,1.6658,-9.1731,3.0413,8.9113,-12.9149,2.8373,17.12,38.96,-37.86,256.63,68.31,-30.4,0.0,67.753,35.178123,126.90903,,153.32503599420892,,192.03548,,0 / 22,503,2014-12-14 14:33:21:882
-6.6689,-14.8851,-3.5266,0.3772,-9.7367,1.1067,-2.3397,2.2633,-6.8089,15.68,40.09,-37.8,253.05,69.29,-28.71,0.0,67.753,35.178123,126.90903,,153.32503599420892,,192.03548,,0 / 22,553,2014-12-14 14:33:21:932
-3.4886,-9.2334,-4.5995,-0.4271,-9.7854,0.4841,-2.759,-0.9438,-4.4774,16.74,42.34,-34.11,163.96,86.23,41.42,0.0,67.753,35.178123,126.90903,,153.32503599420892,,192.03548,,0 / 22,603,2014-12-14 14:33:21:982
-0.3083,-12.6819,-6.8602,-0.7405,-9.7567,-0.6542,-0.0191,-2.6073,-5.3603,17.87,46.03,-31.67,95.91,85.36,107.62,0.0,67.753,35.178123,126.90903,,153.32503599420892,,192.03548,,0 / 22,653,2014-12-14 14:33:22:032
4.328,-31.4378,-1.2085,-0.2777,-9.6473,-1.7388,3.8752,-16.9683,-4.9705,21.55,46.4,-28.17,95.91,85.36,107.62,0.0,67.753,35.178123,126.90903,,153.32503599420892,,192.03548,,0 / 22,704,2014-12-14 14:33:22:083
2.4505,-17.9121,5.7843,0.1915,-9.7384,-1.1388,3.47,-12.3241,5.2804,25.62,44.9,-19.17,46.56,79.66,170.93,0.0,67.753,35.178123,126.90903,,153.32503599420892,,192.03548,,0 / 22,753,2014-12-14 14:33:22:132
11.4549,-6.8386,15.0569,1.1088,-9.7437,0.0363,8.5853,6.4245,9.0472,29.3,43.09,-16.3,45.49,83.24,-170.46,0.0,67.753,35.178123,126.90903,,153.32503599420892,,192.03548,,0 / 22,803,2014-12-14 14:33:22:182
15.7463,-6.1872,10.3823,2.3529,-9.4327,1.2875,12.0176,5.8519,9.2397,30.05,41.21,-18.05,45.49,83.24,-170.46,0.0,72.49,35.178123,126.90903,,153.32503599420892,,192.03548,,0 / 22,853,2014-12-14 14:33:22:232
8.2554,-12.1454,-4.9827,3.3419,-8.985,2.0669,5.5209,6.1747,5.6058,27.12,42.34,-21.11,308.06,74.13,-61.31,0.0,72.49,35.178123,126.90903,,153.32503599420892,,192.03548,,0 / 22,903,2014-12-14 14:33:22:282
-3.6993,-34.2158,-4.6761,3.7956,-8.9428,1.3381,5.4058,-9.9202,-4.9827,23.43,40.09,-22.86,308.06,74.13,-61.31,0.0,72.49,35.178123,126.90903,,153.32503599420892,,192.03548,,0 / 22,953,2014-12-14 14:33:22:332
-8.1824,-32.6065,-6.113,2.7907,-9.3622,0.8549,-8.684,-20.5387,-6.0839,14.55,37.9,-31.92,304.72,65.77,-70.58,0.0,72.49,35.178123,126.90903,,153.32503599420892,,192.03548,,0 / 22,1003,2014-12-14 14:33:22:382
-6.2665,-19.0424,-9.2166,1.2477,-9.7259,-0.1456,-6.4458,-8.5717,-8.1525,12.3,31.59,-36.42,288.8,80.83,-83.2,0.0,72.49,35.178123,126.90903,,153.32503599420892,,192.03548,,0 / 22,1053,2014-12-14 14:33:22:432
-10.1365,3.3919,-10.4236,0.5539,-9.7586,-0.796,-9.8262,6.6483,-7.5008,13.8,27.21,-36.74,288.8,80.83,-83.2,0.0,72.49,35.178123,126.90903,,153.32503599420892,,192.03548,,0 / 22,1103,2014-12-14 14:33:22:482
-13.6233,9.8674,-10.0788,-0.8622,-9.5108,-2.2298,-9.741,20.8521,-8.5083,17.12,26.09,-37.17,31.25,80.2,168.62,0.0,72.474,35.178123,126.90903,,153.32503599420892,,192.03548,,0 / 22,1153,2014-12-14 14:33:22:532
2.8336,-1.2635,5.1521,-2.1616,-8.9669,-3.3306,-7.4139,16.9439,-3.3036,16.74,27.9,-36.42,40.77,75.89,158.86,0.0,72.474,35.178123,126.90903,,153.32503599420892,,192.03548,,0 / 22,1208,2014-12-14 14:33:22:587
9.654,-10.7277,10.229,-0.6111,-9.6431,-1.6756,11.6298,-0.8729,11.8153,18.62,28.65,-30.3,40.77,75.89,158.86,0.0,72.474,35.178123,126.90903,,153.32503599420892,,192.03548,,0 / 22,1253,2014-12-14 14:33:22:632
-6.2474,-18.2569,21.36,-0.6556,-9.5903,-1.9408,-2.9826,10.4755,-9.9765,15.3,31.21,-31.61,39.73,79.52,159.96,0.0,72.474,35.178123,126.90903,,153.32503599420892,,192.03548,,0 / 22,1303,2014-12-14 14:33:22:682
-16.9377,5.5951,-0.5379,-0.4826,-9.7555,-0.8759,-4.2228,-10.7223,1.7857,18.24,36.03,-31.05,54.66,69.13,139.57,0.0,72.474,35.178123,126.90903,,153.32503599420892,,192.03548,,0 / 22,1353,2014-12-14 14:33:22:732
-32.8774,8.9478,-10.1362,-2.6036,-9.1927,-2.2105,-31.7391,28.4342,-13.4827,15.3,35.65,-31.05,54.66,69.13,139.57,0.0,72.474,35.178123,126.90903,,153.32503599420892,,192.03548,,0 / 22,1404,2014-12-14 14:33:22:783
8.5237,-22.7591,-11.2091,-2.4513,-8.7943,-3.5808,10.7053,-17.2638,-0.0558,19.37,40.09,-25.05,58.69,69.62,130.33,0.0,72.474,35.178123,126.90903,,153.32503599420892,,192.03548,,0 / 22,1453,2014-12-14 14:33:22:832
4.4621,-28.8323,1.4737,-1.7988,-8.9674,-3.5385,9.2751,-12.5874,-3.0685,20.8,39.78,-22.17,51.89,63.74,145.61,0.0,72.474,35.178123,126.90903,,153.32503599420892,,192.03548,,0 / 22,1503,2014-12-14 14:33:22:882
15.6314,-5.1718,10.1332,-0.6621,-9.4905,-2.3797,7.4655,2.0049,6.7074,22.3,39.03,-22.74,51.89,63.74,145.61,0.0,70.403,35.178123,126.90903,,153.32503599420892,,192.03548,,0 / 22,1553,2014-12-14 14:33:22:932
12.9684,-6.034,12.0299,1.4647,-9.6544,-0.904,13.7679,5.0334,12.7617,24.87,40.46,-20.11,52.61,75.41,164.45,0.0,70.403,35.178123,126.90903,,153.32503599420892,,192.03548,,0 / 22,1603,2014-12-14 14:33:22:982
4.328,-6.3788,5.1521,2.4152,-9.4929,0.471,5.2841,5.8422,9.9321,23.05,39.4,-20.42,319.29,75.47,-78.96,0.0,70.403,35.178123,126.90903,,153.32503599420892,,192.03548,,0 / 22,1653,2014-12-14 14:33:23:032
9.4433,-26.3226,-9.6956,3.0313,-9.3205,0.3324,5.7808,-5.9619,-11.2403,14.18,38.65,-23.18,313.28,71.88,-83.74,0.0,70.403,35.178123,126.90903,,153.32503599420892,,192.03548,,0 / 22,1703,2014-12-14 14:33:23:082
-8.4123,-31.3037,-9.5615,1.4827,-9.6791,-0.5359,-12.453,-21.5539,-8.3081,11.24,38.65,-24.36,313.28,71.88,-83.74,0.0,70.403,35.178123,126.90903,,153.32503599420892,,192.03548,,0 / 22,1753,2014-12-14 14:33:23:132
-3.4694,-15.1916,-10.4428,0.7245,-9.7089,-1.176,-4.9258,-4.9684,-8.2962,6.8,34.59,-27.99,310.94,80.75,-109.87,0.0,70.403,35.178123,126.90903,,153.32503599420892,,192.03548,,0 / 22,1803,2014-12-14 14:33:23:182
-12.5696,-0.5547,-8.9484,0.1411,-9.6386,-1.8024,-9.4269,9.751,-5.4746,6.8,33.46,-28.3,8.01,79.38,-175.52,0.0,72.156,35.178123,126.90903,,153.32503599420892,,192.03548,,0 / 22,1853,2014-12-14 14:33:23:232
-12.9336,11.1702,-5.8065,-1.7444,-9.1156,-3.1676,-10.3256,22.2893,-5.1034,6.43,33.84,-25.8,29.85,68.36,151.16,0.0,72.156,35.178123,126.90903,,153.32503599420892,,192.03548,,0 / 22,1903,2014-12-14 14:33:23:282
15.823,-12.6819,14.827,-2.7957,-8.6831,-3.5997,-1.4165,12.4127,4.7577,8.62,34.21,-27.05,29.85,68.36,151.16,0.0,72.156,35.178123,126.90903,,153.32503599420892,,192.03548,,0 / 22,1953,2014-12-14 14:33:23:332
2.144,-8.9652,7.1062,-0.8088,-9.7107,-1.1038,-0.3446,5.4896,-1.9717,4.93,37.15,-23.61,35.8,62.3,142.17,0.0,72.156,35.178123,126.90903,,153.32503599420892,,192.03548,,0 / 22,2003,2014-12-14 14:33:23:382
-20.8652,-37.0896,18.5437,-0.6573,-9.446,-2.5519,20.6456,-17.4644,-0.2713,5.3,37.15,-21.42,40.86,81.98,143.77,0.0,72.156,35.178123,126.90903,,153.32503599420892,,192.03548,,0 / 22,2056,2014-12-14 14:33:23:435
-39.487,28.7575,-25.3862,-3.2567,-8.7742,-2.9288,-31.8078,22.0662,-24.0708,4.55,38.65,-19.17,34.46,63.47,131.97,0.0,72.156,35.178123,126.90903,,153.32503599420892,,192.03548,,0 / 22,2103,2014-12-14 14:33:23:482
15.9379,-39.2928,-8.1246,-4.4947,-7.6446,-4.1867,2.4111,-20.8928,-15.442,9.37,41.21,-13.05,34.46,63.47,131.97,0.0,72.156,35.178123,126.90903,,153.32503599420892,,192.03548,,0 / 22,2153,2014-12-14 14:33:23:532
12.1829,-21.3414,2.9489,-0.8893,-9.2139,-3.2378,15.0391,-11.8783,1.8015,15.3,41.21,-8.74,37.68,61.13,141.96,0.0,70.999,35.178123,126.90903,,153.32503599420892,,192.03548,,0 / 22,2204,2014-12-14 14:33:23:583
14.3095,-5.7849,13.1411,-0.0514,-9.6339,-1.8318,3.4803,8.0653,13.3263,17.12,39.03,-8.3,48.2,75.71,174.63,0.0,70.999,35.178123,126.90903,,153.32503599420892,,192.03548,,0 / 22,2253,2014-12-14 14:33:23:632
8.5428,-5.0952,8.1791,1.3075,-9.7033,-0.5539,10.7667,5.8879,9.9701,20.05,40.09,-8.24,0.92,81.67,-112.96,0.0,70.999,35.178123,126.90903,,153.32503599420892,,192.03548,,0 / 22,2303,2014-12-14 14:33:23:682
2.5654,-4.1373,7.2978,2.1218,-9.5418,0.7888,1.7958,6.2334,4.9941,18.62,41.21,-9.49,0.92,81.67,-112.96,0.0,70.999,35.178123,126.90903,,153.32503599420892,,192.03548,,0 / 22,2353,2014-12-14 14:33:23:732
7.8148,-8.8119,-0.9594,2.3625,-9.3988,1.5004,1.3193,4.1855,3.8888,16.74,44.21,-17.67,320.54,76.65,-69.61,0.0,70.999,35.178123,126.90903,,153.32503599420892,,192.03548,,0 / 22,2403,2014-12-14 14:33:23:782
8.8685,-39.2928,-1.3043,3.0852,-9.3087,0.0067,10.9148,-21.616,-12.6817,12.3,47.53,-20.11,322.87,71.66,-89.88,0.0,70.999,35.178123,126.90903,,153.32503599420892,,192.03548,,0 / 22,2453,2014-12-14 14:33:23:832
-5.711,-22.7975,-8.6227,0.8818,-9.7366,-0.7687,-11.6549,-13.0437,-7.379,7.55,44.53,-27.93,331.85,83.15,-131.08,0.0,72.82,35.178123,126.90903,,153.32503599420892,,192.03548,,0 / 22,2503,2014-12-14 14:33:23:882
-13.949,-1.2827,-7.7223,0.4303,-9.7036,-1.3512,-4.371,0.9063,-6.6739,4.93,40.84,-31.42,331.85,83.15,-131.08,0.0,72.82,35.178123,126.90903,,153.32503599420892,,192.03548,,0 / 22,2553,2014-12-14 14:33:23:932
-14.1981,7.8558,-8.0097,-1.2872,-9.435,-2.3439,-13.7812,17.3918,-4.7009,7.18,41.59,-34.36,8.02,80.38,-177.9,0.0,72.82,35.178123,126.90903,,153.32503599420892,,192.03548,,0 / 22,2604,2014-12-14 14:33:23:983
-12.2822,11.3235,-7.3966,-2.0125,-9.1778,-2.8088,-10.701,20.8758,-4.2365,8.62,39.71,-33.17,34.52,74.18,151.23,0.0,72.82,35.178123,126.90903,,153.32503599420892,,192.03548,,0 / 22,2654,2014-12-14 14:33:24:033
7.2209,-7.2218,6.8763,-3.0771,-8.6988,-3.3215,-1.438,13.561,2.808,10.87,40.15,-30.8,34.52,74.18,151.23,0.0,72.82,35.178123,126.90903,,153.32503599420892,,192.03548,,0 / 22,2704,2014-12-14 14:33:24:083
-23.2216,5.5376,-21.4588,-1.8445,-9.379,-2.1915,15.0067,-1.991,12.6669,11.24,41.59,-32.68,41.7,62.5,137.19,0.0,72.82,35.178123,126.90903,,153.32503599420892,,192.03548,,0 / 22,2753,2014-12-14 14:33:24:132
-8.6996,-5.0186,-18.2594,-1.7067,-9.2157,-2.8858,-11.8182,16.4879,-21.4251,5.68,43.09,-35.36,29.79,70.01,149.4,0.0,72.82,35.178123,126.90903,,153.32503599420892,,192.03548,,0 / 22,2803,2014-12-14 14:33:24:182
-39.5828,19.1209,-35.3486,-2.0601,-9.4021,-1.8779,-20.6803,3.5694,2.975,4.93,41.21,-35.8,29.05,70.01,149.4,0.0,72.82,35.178123,126.90903,,153.32503599420892,,192.03548,,0 / 22,2853,2014-12-14 14:33:24:232
16.2828,-22.625,-5.27,-2.0364,-8.707,-4.0263,26.4463,-25.6267,10.3669,10.87,43.78,-28.42,36.66,47.58,132.61,0.0,69.925,35.178123,126.90903,,153.32503599420892,,192.03548,,0 / 22,2903,2014-12-14 14:33:24:282
6.3013,-7.9498,-0.672,-0.3691,-9.211,-3.3454,10.4979,-8.7124,6.6047,14.93,43.84,-25.24,35.93,62.61,153.17,0.0,69.925,35.178123,126.90903,,153.32503599420892,,192.03548,,0 / 22,2953,2014-12-14 14:33:24:332
3.8299,-4.3097,10.708,0.3844,-9.4484,-2.5983,1.7847,8.1775,9.6681,16.74,41.96,-21.74,35.93,62.61,153.17,0.0,69.925,35.178123,126.90903,,153.32503599420892,,192.03548,,0 / 22,3003,2014-12-14 14:33:24:382
7.9681,-5.5933,12.528,0.3844,-9.4484,-2.5983,1.7847,8.1775,9.6681,17.12,39.4,-19.17,25.41,74.46,-171.59,0.0,69.925,35.178123,126.90903,,153.32503599420892,,192.03548,,0 / 22,3053,2014-12-14 14:33:24:432
4.8261,-4.1756,5.9376,2.3837,-9.491,0.6399,4.2243,5.9559,6.1214,13.43,36.09,-21.49,321.56,80.53,-101.57,0.0,69.925,35.178123,126.90903,,153.32503599420892,,192.03548,,0 / 22,3103,2014-12-14 14:33:24:482
6.9527,-8.1414,-2.7795,2.3837,-9.491,0.6399,4.2243,5.9559,6.1214,11.24,34.59,-20.42,321.56,80.53,-101.57,0.0,69.925,35.178123,126.90903,,153.32503599420892,,192.03548,,0 / 22,3153,2014-12-14 14:33:24:532
-12.2248,-32.3575,-9.3891,1.6294,-9.6563,-0.5211,-12.5202,-18.9392,-7.5128,8.99,33.09,-19.36,318.1,71.8,-94.66,0.0,73.367,35.178123,126.90903,,153.32503599420892,,192.03548,,0 / 22,3203,2014-12-14 14:33:24:582
-5.117,-17.0308,-8.4312,0.5408,-9.7303,-1.0948,-8.6901,-6.6341,-6.792,5.68,33.09,-19.99,315.27,79.95,-107.73,0.0,73.367,35.178123,126.90903,,153.32503599420892,,192.03548,,0 / 22,3253,2014-12-14 14:33:24:632
-12.8378,-1.4743,-6.9943,-0.0021,-9.6713,-1.6238,-6.9764,6.8615,-4.9088,2.74,33.09,-20.18,315.27,79.95,-107.73,0.0,73.367,35.178123,126.90903,,153.32503599420892,,192.03548,,0 / 22,3303,2014-12-14 14:33:24:682
-13.5659,8.5455,-7.4349,-1.9835,-9.2233,-2.6772,-12.0111,18.9673,-4.4147,2.74,34.21,-21.8,30.34,70.14,143.47,0.0,73.367,35.178123,126.90903,,153.32503599420892,,192.03548,,0 / 22,3353,2014-12-14 14:33:24:732
7.5466,-6.5896,7.566,-3.052,-8.9661,-2.5424,4.0281,7.0532,7.2745,3.8,33.84,-17.8,32.91,66.15,137.38,0.0,73.367,35.178123,126.90903,,153.32503599420892,,192.03548,,0 / 22,3403,2014-12-14 14:33:24:782
9.0026,-9.5016,12.1449,-1.3012,-9.6762,-0.9211,13.6427,-0.8738,13.2383,3.12,34.96,-16.93,32.91,66.15,137.38,0.0,73.367,35.178123,126.90903,,153.32503599420892,,192.03548,,0 / 22,3453,2014-12-14 14:33:24:832
-3.8718,5.5568,-15.5389,-0.8922,-9.7592,-0.3641,5.6279,1.6623,7.4245,-0.95,34.96,-16.93,39.4,80.64,125.29,0.0,73.367,35.178123,126.90903,,153.32503599420892,,192.03548,,0 / 22,3503,2014-12-14 14:33:24:882
-39.5828,16.4196,-38.7779,-0.6781,-9.7061,-1.226,-16.4758,-12.811,11.4483,-6.13,32.71,-17.55,8.49,81.79,151.05,0.0,70.599,35.178123,126.90903,,153.32503599420892,,192.03548,,0 / 22,3553,2014-12-14 14:33:24:932
16.2636,-38.5839,5.995,-4.2348,-7.7146,-4.3268,-16.2697,2.3827,-12.772,-3.2,34.96,-14.99,8.49,81.79,151.05,0.0,70.599,35.178123,126.90903,,153.32503599420892,,192.03548,,0 / 22,3603,2014-12-14 14:33:24:982
9.1367,-14.6169,-0.6146,-2.467,-8.6601,-3.8841,15.1978,-25.171,5.436,-0.95,37.53,-10.36,9.95,62.02,147.58,0.0,70.599,35.178123,126.90903,,153.32503599420892,,192.03548,,0 / 22,3653,2014-12-14 14:33:25:032
-2.09,-9.9997,4.0601,-1.1231,-8.8882,-3.9886,10.2326,-4.9712,-1.3911,2.74,36.78,-8.61,9.95,62.02,147.58,0.0,70.599,35.178123,126.90903,,153.32503599420892,,192.03548,,0 / 22,3703,2014-12-14 14:33:25:082
13.6964,-7.8732,19.4058,-0.7375,-9.2033,-3.3054,0.3051,1.6218,9.0777,7.87,35.34,-7.92,18.08,65.0,164.27,0.0,70.599,35.178123,126.90903,,153.32503599420892,,192.03548,,0 / 22,3753,2014-12-14 14:33:25:132
5.0752,-4.1564,-4.5229,0.0702,-9.7418,-1.124,-8.1343,6.0217,6.5688,8.24,35.71,-8.49,8.08,75.32,-149.33,0.0,70.599,35.178123,126.90903,,153.32503599420892,,192.03548,,0 / 22,3807,2014-12-14 14:33:25:186
10.8993,-4.6162,-3.9481,0.7241,-9.6593,-1.5312,6.077,5.4638,-4.7048,8.62,34.59,-11.67,8.33,80.05,-154.69,0.0,73.199,35.178123,126.90903,,153.32503599420892,,192.03548,,0 / 22,3853,2014-12-14 14:33:25:232
11.7422,-18.3527,-15.9604,3.3558,-9.0199,-1.8841,10.4455,4.8393,-1.1859,10.12,31.28,-12.61,8.33,80.05,-154.69,0.0,73.199,35.178123,126.90903,,153.32503599420892,,192.03548,,0 / 22,3903,2014-12-14 14:33:25:282
-1.9176,-28.7557,-2.4346,3.236,-8.9136,-2.4993,7.3705,-7.9405,-11.3049,11.55,31.65,-11.92,349.42,66.89,-119.31,0.0,73.199,35.178123,126.90903,,153.32503599420892,,192.03548,,0 / 22,3953,2014-12-14 14:33:25:332
-16.363,-34.4649,-4.0631,2.6925,-9.1026,-2.4626,-3.6087,-20.8041,-4.1972,9.74,32.71,-10.11,358.58,68.16,-132.45,0.0,73.199,35.178123,126.90903,,153.32503599420892,,192.03548,,0 / 22,4003,2014-12-14 14:33:25:382
-10.7304,-22.5676,-11.075,0.3032,-9.5701,-2.1195,-15.1803,-9.5248,-1.0057,3.8,38.28,-18.42,3.08,77.39,-171.86,0.0,73.199,35.178123,126.90903,,153.32503599420892,,192.03548,,0 / 22,4053,2014-12-14 14:33:25:432
-14.3897,-7.6241,-9.3891,-0.466,-9.4978,-2.3969,-9.0977,-6.4256,-6.4953,-0.26,36.78,-19.86,3.08,77.39,-171.86,0.0,73.199,35.178123,126.90903,,153.32503599420892,,192.03548,,0 / 22,4103,2014-12-14 14:33:25:482
-15.041,2.3191,-5.0785,-1.4418,-9.2632,-2.8782,-12.4683,9.662,-4.1456,-0.26,37.15,-21.8,16.55,70.84,153.39,0.0,73.199,35.178123,126.90903,,153.32503599420892,,192.03548,,0 / 22,4153,2014-12-14 14:33:25:532
-8.9487,-4.3863,0.8989,-3.9578,-8.2883,-3.4366,-3.5187,8.0748,4.2135,0.12,36.78,-20.86,24.85,61.12,136.51,0.0,71.514,35.178123,126.90903,,153.32503599420892,,192.03548,,0 / 22,4203,2014-12-14 14:33:25:582
1.3776,-9.1951,7.7384,-4.1912,-8.4844,-2.5726,2.616,2.2772,11.2087,5.3,39.03,-17.8,24.85,61.12,136.51,0.0,71.514,35.178123,126.90903,,153.32503599420892,,192.03548,,0 / 22,4253,2014-12-14 14:33:25:632
4.328,-9.0993,3.083,-4.0076,-8.7122,-2.0511,5.8817,1.5495,10.6699,3.8,41.59,-18.05,33.58,59.9,121.54,0.0,71.514,35.178123,126.90903,,153.32503599420892,,192.03548,,0 / 22,4303,2014-12-14 14:33:25:682
13.1216,-22.8166,15.4018,-3.2437,-9.0583,-1.8962,9.5763,1.8927,-3.7858,3.12,42.71,-11.05,29.82,67.47,120.31,0.0,71.514,35.178123,126.90903,,153.32503599420892,,192.03548,,0 / 22,4353,2014-12-14 14:33:25:732
-7.8375,-5.8041,-1.6683,-0.9972,-9.6832,-1.1884,-6.4095,6.2459,-0.6167,3.43,41.96,-11.74,29.82,67.47,120.31,0.0,71.514,35.178123,126.90903,,153.32503599420892,,192.03548,,0 / 22,4403,2014-12-14 14:33:25:782
-0.2317,-7.0493,-2.0514,-1.8042,-9.5068,-1.5925,-5.2317,8.2875,-4.3783,3.8,42.71,-11.92,37.19,75.79,131.43,0.0,71.514,35.178123,126.90903,,153.32503599420892,,192.03548,,0 / 22,4456,2014-12-14 14:33:25:835
2.029,-10.5362,-1.5533,-1.2676,-9.5886,-1.6196,2.0879,-1.7244,0.3193,3.43,43.09,-9.3,29.58,77.19,139.52,0.0,71.514,35.178123,126.90903,,153.32503599420892,,192.03548,,0 / 22,4503,2014-12-14 14:33:25:882
1.2052,-9.1568,-1.3617,-0.8076,-9.6223,-1.7114,1.9536,1.6716,-0.1398,4.55,43.09,-9.3,29.58,77.19,139.52,0.0,67.652,35.178123,126.90903,,153.32503599420892,,192.03548,,0 / 22,4553,2014-12-14 14:33:25:932
1.6267,-9.8848,0.4008,-0.6653,-9.6454,-1.6412,2.2722,0.8919,1.2908,5.68,43.46,-10.99,33.06,78.87,154.74,0.0,67.652,35.178123,126.90903,,153.32503599420892,,192.03548,,0 / 22,4606,2014-12-14 14:33:25:985
1.3776,-10.0955,1.8952,-0.3079,-9.7305,-1.1799,1.672,0.5762,2.8478,6.05,42.34,-10.86,32.2,79.6,157.93,0.0,67.652,35.178123,126.90903,,153.32503599420892,,192.03548,,0 / 22,4653,2014-12-14 14:33:26:032
0.8987,-8.697,1.5695,-0.1333,-9.7728,-0.803,1.1109,0.9193,2.8322,5.3,43.46,-12.61,32.2,79.6,157.93,0.0,67.652,35.178123,126.90903,,153.32503599420892,,192.03548,,0 / 22,4703,2014-12-14 14:33:26:082
1.7225,-11.0918,-2.5304,0.2239,-9.7783,-0.7111,2.2634,-1.3339,-0.8294,6.05,43.84,-12.36,28.59,85.24,170.57,0.0,67.652,35.178123,126.90903,,153.32503599420892,,192.03548,,0 / 22,4753,2014-12-14 14:33:26:132
-2.4732,-8.0839,-0.5188,-0.0334,-9.7471,-1.0785,-2.2749,1.7224,0.8141,6.43,43.46,-14.92,8.15,83.85,-168.62,0.0,67.652,35.178123,126.90903,,153.32503599420892,,192.03548,,0 / 22,4803,2014-12-14 14:33:26:182
-0.7681,-9.7507,2.2975,-0.1243,-9.7829,-0.67,0.1749,-0.3191,3.5859,6.8,44.59,-14.49,8.15,83.85,-168.62,0.0,67.652,35.178123,126.90903,,153.32503599420892,,192.03548,,0 / 22,4853,2014-12-14 14:33:26:232
1.4542,-9.9997,0.8798,-0.0336,-9.7981,-0.4083,1.2899,-0.908,3.7029,5.68,43.84,-14.92,26.17,86.02,169.49,0.0,67.652,35.178123,126.90903,,153.32503599420892,,192.03548,,0 / 22,4903,2014-12-14 14:33:26:282
0.9944,-10.517,1.148,0.191,-9.7971,-0.3888,1.0044,1.7522,-1.3028,5.3,43.46,-13.86,354.22,87.47,-153.84,0.0,51.817,35.178123,126.90903,,153.32503599420892,,192.03548,,0 / 22,4953,2014-12-14 14:33:26:332
1.1286,-11.4557,2.0484,0.2967,-9.7945,-0.3872,0.5769,0.2104,0.5842,6.05,44.21,-13.86,354.22,87.47,-153.84,0.0,51.817,35.178123,126.90903,,153.32503599420892,,192.03548,,0 / 22,5009,2014-12-14 14:33:26:388
0.7071,-9.4058,0.2476,0.3872,-9.7984,-0.1056,0.6178,-1.077,2.0531,6.43,42.71,-14.8,311.7,87.65,-105.25,0.0,51.817,35.178123,126.90903,,153.32503599420892,,192.03548,,0 / 22,5053,2014-12-14 14:33:26:432
0.7071,-9.9614,0.7648,0.4262,-9.7974,0.0149,0.1882,0.5241,0.2339,5.68,40.53,-14.05,311.7,87.65,-105.25,0.0,51.817,35.178123,126.90903,,153.32503599420892,,192.03548,,0 / 22,5103,2014-12-14 14:33:26:482
0.9178,-9.5208,1.4162,0.5114,-9.7903,0.2442,0.4089,0.2607,1.0253,6.05,42.34,-14.49,294.16,87.39,-82.67,0.0,51.817,35.178123,126.90903,,153.32503599420892,,192.03548,,0 / 22,5153,2014-12-14 14:33:26:532
0.9753,-9.4441,1.1671,0.5495,-9.7859,0.3239,0.5287,0.0612,1.1069,6.43,43.46,-15.8,273.39,86.69,-64.48,0.0,51.817,35.178123,126.90903,,153.32503599420892,,192.03548,,0 / 22,5203,2014-12-14 14:33:26:582
0.7454,-9.6357,1.0139,0.5991,-9.7793,0.421,0.2442,0.2861,0.5405,4.55,43.46,-15.8,273.39,86.69,-64.48,0.0,51.817,35.178123,126.90903,,153.32503599420892,,192.03548,,0 / 22,5253,2014-12-14 14:33:26:632
0.8603,-9.6166,0.8798,0.6354,-9.7704,0.5526,0.1234,-0.0589,0.2825,6.43,43.09,-15.36,266.31,85.72,-54.9,0.0,59.657,35.178123,126.90903,,153.32503599420892,,192.03548,,0 / 22,5303,2014-12-14 14:33:26:682
0.6879,-9.6166,1.2438,0.6481,-9.7666,0.6039,-0.007,0.1654,0.3848,6.05,42.71,-15.11,262.7,84.82,-47.02,0.0,59.657,35.178123,126.90903,,153.32503599420892,,192.03548,,0 / 22,5353,2014-12-14 14:33:26:732
1.0328,-9.4058,1.033,0.6676,-9.7595,0.6902,0.2129,0.0947,0.6028,5.68,41.21,-14.92,262.7,84.82,-47.02,0.0,59.657,35.178123,126.90903,,153.32503599420892,,192.03548,,0 / 22,5403,2014-12-14 14:33:26:782
0.822,-9.5974,1.0139,0.7213,-9.7485,0.7856,0.0785,-9.0E-4,0.2637,6.43,43.09,-16.55,260.13,84.38,-44.05,0.0,59.657,35.178123,126.90903,,153.32503599420892,,192.03548,,0 / 22,5453,2014-12-14 14:33:26:832
0.7645,-9.4441,0.9373,0.7277,-9.7468,0.7999,0.0844,0.0713,0.1947,6.43,40.9,-15.55,258.06,83.76,-42.56,0.0,59.657,35.178123,126.90903,,153.32503599420892,,192.03548,,0 / 22,5503,2014-12-14 14:33:26:882
0.9944,-9.5974,0.9756,0.7773,-9.742,0.8127,0.1878,-0.009,0.2014,6.43,43.09,-14.92,262.44,83.62,-43.44,0.0,59.657,35.178123,126.90903,,153.32503599420892,,192.03548,,0 / 22,5554,2014-12-14 14:33:26:933
0.937,-9.4825,0.9756,0.7905,-9.7395,0.8292,0.181,0.0482,0.2257,6.43,43.09,-15.61,262.44,83.62,-43.44,0.0,53.747,35.178123,126.90903,,153.32503599420892,,192.03548,,0 / 22,5603,2014-12-14 14:33:26:982
1.1286,-9.5399,1.0522,0.8249,-9.7329,0.8716,0.1784,0.0535,0.202,4.93,42.34,-16.49,257.81,83.29,-43.63,0.0,53.747,35.178123,126.90903,,153.32503599420892,,192.03548,,0 / 22,5653,2014-12-14 14:33:27:032
1.0328,-9.6357,1.1097,0.8638,-9.7269,0.9008,0.238,0.0833,0.1646,6.05,43.09,-15.67,257.81,83.29,-43.63,0.0,53.747,35.178123,126.90903,,153.32503599420892,,192.03548,,0 / 22,5703,2014-12-14 14:33:27:082
0.7645,-9.5782,1.0139,0.887,-9.7212,0.9388,-0.0409,-0.0239,0.0051,4.93,40.84,-15.36,260.02,82.69,-43.8,0.0,53.747,35.178123,126.90903,,153.32503599420892,,192.03548,,0 / 22,5753,2014-12-14 14:33:27:132
1.2244,-8.9269,0.2476,0.8852,-9.7215,0.9381,-0.028,0.0407,-0.0143,3.8,41.21,-16.49,256.23,82.43,-43.37,0.0,53.747,35.178123,126.90903,,153.32503599420892,,192.03548,,0 / 22,5803,2014-12-14 14:33:27:182
0.7645,-9.8656,0.9756,0.9031,-9.73,0.8253,-0.3454,-0.2944,-0.0469,5.3,42.34,-14.92,264.65,82.65,-46.23,0.0,53.747,35.178123,126.90903,,153.32503599420892,,192.03548,,0 / 22,5853,2014-12-14 14:33:27:232
1.186,-9.8848,0.9756,0.8712,-9.7329,0.8259,-0.4133,-0.2924,0.0299,4.55,43.09,-13.93,264.65,82.65,-46.23,0.0,53.747,35.178123,126.90903,,153.32503599420892,,192.03548,,0 / 22,5903,2014-12-14 14:33:27:282
1.1286,-10.0955,1.3396,0.9111,-9.7273,0.8485,0.2168,-0.5379,0.4222,3.8,41.59,-14.11,257.4,82.97,-46.53,0.0,62.847,35.178123,126.90903,,153.32503599420892,,192.03548,,0 / 22,5953,2014-12-14 14:33:27:332
1.0902,-9.6549,1.1288,0.923,-9.7234,0.8796,0.2041,-0.3679,0.4679,3.8,43.09,-15.17,262.61,82.71,-47.04,0.0,62.847,35.178123,126.90903,,153.32503599420892,,192.03548,,0 / 22,6003,2014-12-14 14:33:27:382
0.937,-9.31,-0.1739,0.9484,-9.7201,0.8896,0.0475,0.2648,-0.7256,3.43,39.78,-13.42,262.45,82.32,-45.78,0.0,62.847,35.178123,126.90903,,153.32503599420892,,192.03548,,0 / 22,6053,2014-12-14 14:33:27:432