ACCELEROMETER X (m/s²),ACCELEROMETER Y (m/s²),ACCELEROMETER Z (m/s²),GRAVITY X (m/s²),GRAVITY Y (m/s²),GRAVITY Z (m/s²),LINEAR ACCELERATION X (m/s²),LINEAR ACCELERATION Y (m/s²),LINEAR ACCELERATION Z (m/s²),MAGNETIC FIELD X (μT),MAGNETIC FIELD Y (μT),MAGNETIC FIELD Z (μT),ORIENTATION X (°),ORIENTATION Y (°),ORIENTATION Z (°),PROXIMITY (i),SOUND LEVEL (dB),LOCATION Latitude : ,LOCATION Longitude : ,LOCATION Altitude ( m),LOCATION Altitude-google ( m),LOCATION Speed ( Kmh),LOCATION Accuracy ( m),LOCATION ORIENTATION (°),Satellites in range,Time since start in ms ,YYYY-MO-DD HH-MI-SS_SSS
1.186,-9.7698,0.5158,0.1314,-9.8036,0.206,0.2462,0.4317,0.189,7.55,58.4,-32.86,245.48,88.97,-50.67,0.0,70.561,35.178055,126.90888,,155.44231814965815,,79.66451,,0 / 22,3,2014-12-14 14:30:16:679
1.2052,-9.6357,0.2476,0.2762,-9.7999,0.2385,1.1485,-0.2798,0.1568,9.74,59.53,-32.42,231.9,88.57,-32.53,0.0,70.561,35.178055,126.90888,,155.44231814965815,,79.66451,,0 / 22,53,2014-12-14 14:30:16:729
0.8603,-10.0955,1.7611,0.4242,-9.7934,0.284,0.4591,0.0602,0.517,11.24,56.53,-30.86,261.95,87.3,-57.77,0.0,56.291,35.178055,126.90888,,155.44231814965815,,79.66451,,0 / 22,103,2014-12-14 14:30:16:779
1.6841,-10.6894,2.2783,0.4242,-9.7934,0.284,0.4591,0.0602,0.517,11.99,57.65,-29.49,264.18,87.02,-56.2,0.0,56.291,35.178055,126.90888,,155.44231814965815,,79.66451,,0 / 22,153,2014-12-14 14:30:16:829
4.9027,-10.9193,3.3129,0.9646,-9.7208,0.8641,3.6521,-0.9666,2.3596,13.12,59.53,-29.92,264.18,87.02,-56.2,0.0,56.291,35.178055,126.90888,,155.44231814965815,,79.66451,,0 / 22,203,2014-12-14 14:30:16:879
-2.1858,-9.3483,-0.672,1.7486,-9.5693,1.2418,0.0974,-1.0121,0.4249,13.12,59.53,-31.05,264.64,82.41,-48.15,0.0,56.291,35.178055,126.90888,,155.44231814965815,,79.66451,,0 / 22,253,2014-12-14 14:30:16:929
-2.2433,-8.6012,3.6769,1.3387,-9.6329,1.2593,-3.0853,1.4898,1.3995,13.43,56.53,-35.55,263.11,79.2,-46.75,0.0,56.291,35.178055,126.90888,,155.44231814965815,,79.66451,,0 / 22,303,2014-12-14 14:30:16:979
1.2818,-11.5707,1.7036,1.0322,-9.6796,1.1876,0.1503,-1.5494,-0.7792,14.18,54.34,-36.42,263.11,79.2,-46.75,0.0,56.291,35.178055,126.90888,,155.44231814965815,,79.66451,,0 / 22,353,2014-12-14 14:30:17:029
2.5463,-10.881,2.3358,1.086,-9.6707,1.2118,0.9399,-1.0991,0.5149,12.74,53.21,-39.05,251.08,80.77,-41.0,0.0,70.349,35.178055,126.90888,,155.44231814965815,,79.66451,,0 / 22,403,2014-12-14 14:30:17:079
1.6075,-6.1106,4.1942,1.3864,-9.5517,1.7362,0.2369,3.6107,2.2218,11.62,48.46,-40.24,251.14,78.91,-41.82,0.0,70.349,35.178055,126.90888,,155.44231814965815,,79.66451,,0 / 22,453,2014-12-14 14:30:17:129
1.1286,-6.2064,5.018,1.4136,-9.4545,2.1872,-0.2444,3.2589,2.7529,12.74,45.84,-43.36,251.14,78.91,-41.82,0.0,70.349,35.178055,126.90888,,155.44231814965815,,79.66451,,0 / 22,503,2014-12-14 14:30:17:179
1.3776,-8.1031,6.5506,1.4193,-9.3135,2.7232,0.0565,1.1346,3.8227,10.87,42.53,-40.3,243.83,74.6,-32.88,0.0,70.349,35.178055,126.90888,,155.44231814965815,,79.66451,,0 / 22,553,2014-12-14 14:30:17:229
3.6,-6.8578,6.7422,1.7155,-8.8773,3.7974,1.883,1.8405,3.0449,10.49,33.71,-42.55,233.06,70.19,-25.76,0.0,70.349,35.178055,126.90888,,155.44231814965815,,79.66451,,0 / 22,603,2014-12-14 14:30:17:279
4.0215,-5.9956,5.0754,1.7155,-8.8773,3.7974,1.883,1.8405,3.0449,12.74,32.59,-43.3,233.06,70.19,-25.76,0.0,70.349,35.178055,126.90888,,155.44231814965815,,79.66451,,0 / 22,653,2014-12-14 14:30:17:329
0.7071,-4.5396,2.3933,2.0523,-8.6862,4.0631,1.7739,2.6765,0.7512,14.18,31.09,-41.99,247.18,62.34,-26.8,0.0,70.349,35.178055,126.90888,,155.44231814965815,,79.66451,,0 / 22,703,2014-12-14 14:30:17:379
-2.0517,-4.099,0.3817,1.4677,-8.8542,3.9522,-3.3151,3.0793,-2.7765,19.74,35.15,-40.11,256.07,62.58,-24.81,0.0,69.118,35.178055,126.90888,,155.44231814965815,,79.66451,,0 / 22,753,2014-12-14 14:30:17:429
-7.3586,-2.1448,-0.6529,1.0258,-9.0819,3.5549,-3.596,6.2584,-6.754,20.49,39.96,-37.24,256.09,64.54,-20.37,0.0,69.118,35.178055,126.90888,,155.44231814965815,,79.66451,,0 / 22,804,2014-12-14 14:30:17:480
-1.113,-28.8323,-2.0131,0.38,-9.434,2.6507,-4.6915,-15.1757,-8.9872,16.05,41.09,-34.18,256.09,64.54,-20.37,0.0,69.118,35.178055,126.90888,,155.44231814965815,,79.66451,,0 / 22,854,2014-12-14 14:30:17:530
-9.4468,12.358,-4.9635,-0.1313,-9.5492,2.2286,-6.2599,9.3567,-7.8111,16.05,42.9,-34.18,228.24,74.15,-8.16,0.0,69.118,35.178055,126.90888,,155.44231814965815,,79.66451,,0 / 22,903,2014-12-14 14:30:17:579
-5.0213,-16.6285,-4.0631,-0.0674,-9.7883,0.596,-0.6106,-10.0695,-4.5677,14.93,46.59,-29.43,215.87,76.84,3.37,0.0,69.118,35.178055,126.90888,,155.44231814965815,,79.66451,,0 / 22,953,2014-12-14 14:30:17:629
-4.9255,-8.3904,-2.5112,-0.5472,-9.7893,0.2036,-2.9455,-1.4982,-1.2518,17.87,48.46,-27.36,140.86,86.59,69.59,0.0,69.118,35.178055,126.90888,,155.44231814965815,,79.66451,,0 / 22,1003,2014-12-14 14:30:17:679
-2.9522,-13.9272,-7.5499,-1.4512,-9.66,-0.8654,-2.3323,-3.776,-6.5477,19.37,50.65,-22.3,148.01,86.59,69.59,0.0,69.118,35.178055,126.90888,,155.44231814965815,,79.66451,,0 / 22,1053,2014-12-14 14:30:17:729
13.8305,-38.5839,3.0638,-0.3894,-9.6679,-1.5972,9.8172,-25.7139,-5.8916,26.37,51.03,-15.11,148.01,86.59,69.59,0.0,70.925,35.178055,126.90888,,155.44231814965815,,79.66451,,0 / 22,1103,2014-12-14 14:30:17:779
5.4008,-17.4906,10.0949,1.0114,-9.7509,-0.2609,2.4712,-2.0278,10.8169,28.18,49.9,-10.42,68.88,80.35,166.3,0.0,70.925,35.178055,126.90888,,155.44231814965815,,79.66451,,0 / 22,1153,2014-12-14 14:30:17:829
12.1637,-5.2101,12.0874,1.6111,-9.6361,0.8489,8.4175,9.2034,10.7589,31.93,49.15,-9.92,357.49,83.89,-104.47,0.0,70.925,35.178055,126.90888,,155.44231814965815,,79.66451,,0 / 22,1203,2014-12-14 14:30:17:879
8.0447,-3.984,4.4049,2.7398,-9.2193,1.9152,4.632,6.9778,3.0016,31.18,47.34,-13.36,318.87,79.3,-62.22,0.0,70.925,35.178055,126.90888,,155.44231814965815,,79.66451,,0 / 22,1253,2014-12-14 14:30:17:929
16.3211,-20.0578,-11.8222,3.5635,-8.8433,2.2953,7.4559,-4.0682,-6.331,24.87,45.84,-24.67,302.06,66.04,-50.95,0.0,70.925,35.178055,126.90888,,155.44231814965815,,79.66451,,0 / 22,1303,2014-12-14 14:30:17:979
20.9574,-33.4303,-5.1551,4.0004,-8.8373,1.4386,15.1152,-17.2896,-11.3741,23.05,47.71,-26.36,302.06,66.04,-50.95,0.0,70.925,35.178055,126.90888,,155.44231814965815,,79.66451,,0 / 22,1353,2014-12-14 14:30:18:029
-4.2358,-36.0742,-10.1937,2.9075,-9.3489,0.5606,-8.9898,-23.6089,-10.0442,18.99,41.78,-31.17,304.93,64.31,-70.22,0.0,70.925,35.178055,126.90888,,155.44231814965815,,79.66451,,0 / 22,1403,2014-12-14 14:30:18:079
-5.96,-18.0654,-10.2704,1.6509,-9.6432,-0.6741,-8.5328,-2.7988,-9.3414,17.49,37.78,-33.11,301.03,72.43,-79.09,0.0,72.016,35.178055,126.90888,,155.44231814965815,,79.66451,,0 / 22,1453,2014-12-14 14:30:18:129
-9.6384,0.3266,-8.7569,0.8208,-9.6851,-1.3022,-11.7137,13.272,-6.1483,17.49,34.4,-33.3,301.03,72.43,-79.09,0.0,72.016,35.178055,126.90888,,155.44231814965815,,79.66451,,0 / 22,1503,2014-12-14 14:30:18:179
-13.4126,8.2007,-12.7992,-0.6269,-9.3306,-2.9525,-12.4196,19.845,-8.5301,17.49,33.34,-31.42,32.91,72.07,168.01,0.0,72.016,35.178055,126.90888,,155.44231814965815,,79.66451,,0 / 22,1553,2014-12-14 14:30:18:229
1.9524,-2.892,2.6998,-1.0445,-9.1888,-3.2629,-6.3754,13.5446,-1.7739,18.24,34.78,-32.05,32.91,72.07,168.01,0.0,72.016,35.178055,126.90888,,155.44231814965815,,79.66451,,0 / 22,1603,2014-12-14 14:30:18:279
2.7187,-4.2714,2.8914,-0.5131,-9.4302,-2.6416,3.2228,5.451,5.452,18.24,37.4,-29.86,37.26,69.55,162.25,0.0,72.016,35.178055,126.90888,,155.44231814965815,,79.66451,,0 / 22,1653,2014-12-14 14:30:18:329
-6.1899,-0.8804,-13.738,-0.67,-9.3629,-2.8386,-2.3614,5.792,-3.3147,17.12,39.59,-26.55,37.26,69.55,162.25,0.0,72.016,35.178055,126.90888,,155.44231814965815,,79.66451,,0 / 22,1703,2014-12-14 14:30:18:379
-1.5345,-8.0839,20.9193,-1.643,-8.1685,-5.1717,-6.195,10.0663,-15.2557,19.37,43.28,-21.36,37.82,72.7,166.72,0.0,72.016,35.178055,126.90888,,155.44231814965815,,79.66451,,0 / 22,1753,2014-12-14 14:30:18:429
-39.0655,20.1171,-21.4588,-4.0848,-6.9162,-5.6259,-12.7909,-5.0037,-28.0851,13.12,42.53,-24.05,33.36,75.01,162.91,0.0,70.538,35.178055,126.90888,,155.44231814965815,,79.66451,,0 / 22,1803,2014-12-14 14:30:18:479
19.4247,-27.6445,-0.7104,0.0263,-8.7906,-4.3468,12.9564,-13.3916,-1.639,22.3,44.4,-18.99,35.63,61.96,171.34,0.0,70.538,35.178055,126.90888,,155.44231814965815,,79.66451,,0 / 22,1853,2014-12-14 14:30:18:529
3.5617,-25.0007,11.8575,0.4586,-9.4198,-2.6885,7.9906,-7.0416,21.9028,23.43,44.03,-14.36,35.63,61.96,171.34,0.0,70.538,35.178055,126.90888,,155.44231814965815,,79.66451,,0 / 22,1903,2014-12-14 14:30:18:579
6.9335,-4.3672,4.7689,0.8622,-9.6758,-1.3435,2.4391,8.2423,10.9972,24.18,40.71,-15.11,37.34,73.85,-170.32,0.0,70.538,35.178055,126.90888,,155.44231814965815,,79.66451,,0 / 22,1954,2014-12-14 14:30:18:630
6.7994,-3.8499,5.746,1.8485,-9.6211,-0.4334,3.5542,7.5612,5.6834,23.43,39.59,-16.17,5.51,80.45,-131.57,0.0,70.538,35.178055,126.90888,,155.44231814965815,,79.66451,,0 / 22,2003,2014-12-14 14:30:18:679
6.8952,-2.7196,5.5927,2.3079,-9.5302,0.1391,2.8149,7.187,4.924,20.12,38.46,-21.17,320.75,76.36,-86.55,0.0,70.538,35.178055,126.90888,,155.44231814965815,,79.66451,,0 / 22,2053,2014-12-14 14:30:18:729
13.6198,-7.739,-1.2276,4.0924,-8.9079,-0.2686,16.1404,-7.3784,-12.5917,17.12,37.4,-25.11,320.75,76.36,-86.55,0.0,70.538,35.178055,126.90888,,155.44231814965815,,79.66451,,0 / 22,2103,2014-12-14 14:30:18:779
-13.7,-39.2928,-6.9368,3.754,-9.0457,-0.5026,-2.9822,-25.9364,0.3838,10.49,34.4,-29.43,318.94,65.28,-93.76,0.0,72.583,35.178055,126.90888,,155.44231814965815,,79.66451,,0 / 22,2153,2014-12-14 14:30:18:829
-5.7301,-26.61,-7.3008,1.7181,-9.5876,-1.1386,-7.2724,-4.2495,-6.3339,11.62,27.78,-34.18,312.76,73.24,-104.87,0.0,72.583,35.178055,126.90888,,155.44231814965815,,79.66451,,0 / 22,2203,2014-12-14 14:30:18:879
-11.4201,-5.1335,-9.5807,1.0531,-9.6003,-1.7016,-9.647,6.3791,-6.0514,16.8,21.53,-32.42,356.58,78.23,-148.25,0.0,72.583,35.178055,126.90888,,155.44231814965815,,79.66451,,0 / 22,2253,2014-12-14 14:30:18:929
-12.3397,7.9707,-13.1249,-0.8614,-9.1424,-3.4416,-13.1657,24.0748,-9.9257,18.62,21.53,-30.61,356.58,78.23,-148.25,0.0,72.583,35.178055,126.90888,,155.44231814965815,,79.66451,,0 / 22,2303,2014-12-14 14:30:18:979
-11.2094,8.8329,-12.4736,-1.6374,-8.4956,-4.6166,-0.2729,14.151,-1.8866,17.12,23.71,-33.3,35.24,68.79,165.95,0.0,72.583,35.178055,126.90888,,155.44231814965815,,79.66451,,0 / 22,2353,2014-12-14 14:30:19:029
8.2938,-12.6436,11.5509,-1.126,-9.1197,-3.4254,7.485,-2.2618,13.7328,19.74,28.53,-27.67,41.72,59.83,160.51,0.0,72.583,35.178055,126.90888,,155.44231814965815,,79.66451,,0 / 22,2403,2014-12-14 14:30:19:079
3.2743,-5.7657,-2.607,-0.2946,-9.3994,-2.7813,3.744,4.5763,-3.1923,18.62,31.09,-28.55,41.72,59.83,160.51,0.0,71.119,35.178055,126.90888,,155.44231814965815,,79.66451,,0 / 22,2453,2014-12-14 14:30:19:129
4.6345,-0.3248,-8.6994,-0.113,-9.0401,-3.7993,8.6972,-15.8065,2.7567,17.12,34.09,-23.99,29.79,73.43,173.95,0.0,71.119,35.178055,126.90888,,155.44231814965815,,79.66451,,0 / 22,2503,2014-12-14 14:30:19:179
-39.5828,31.114,-22.3018,-3.7429,-6.3051,-6.5121,-35.5387,31.7828,-15.3216,11.99,34.09,-26.36,19.13,67.2,178.3,0.0,71.119,35.178055,126.90888,,155.44231814965815,,79.66451,,0 / 22,2553,2014-12-14 14:30:19:229
-5.8642,-26.246,-22.8765,-4.7021,-5.6503,-6.4911,-19.8463,-0.141,-9.7534,12.37,37.78,-24.42,19.13,67.2,178.3,0.0,71.119,35.178055,126.90888,,155.44231814965815,,79.66451,,0 / 22,2603,2014-12-14 14:30:19:279
7.9297,-29.3304,-9.5232,-1.8186,-8.0076,-5.3611,13.797,-18.1211,1.5235,17.49,38.84,-17.92,35.17,35.18,144.08,0.0,71.119,35.178055,126.90888,,155.44231814965815,,79.66451,,0 / 22,2653,2014-12-14 14:30:19:329
1.6458,-2.4897,7.3553,-0.2168,-9.4717,-2.5319,2.7551,7.5115,19.3288,18.24,38.09,-14.24,38.37,63.46,168.06,0.0,71.119,35.178055,126.90888,,155.44231814965815,,79.66451,,0 / 22,2703,2014-12-14 14:30:19:379
12.4319,-4.7504,7.681,0.6376,-9.6107,-1.8435,10.5545,6.9026,8.8385,18.24,37.03,-15.05,40.45,74.98,175.11,0.0,71.119,35.178055,126.90888,,155.44231814965815,,79.66451,,0 / 22,2753,2014-12-14 14:30:19:429
6.1289,-2.5663,3.332,1.4077,-9.614,-1.3262,3.0091,8.3601,3.6953,16.8,38.15,-17.05,40.45,74.98,175.11,0.0,73.158,35.178055,126.90888,,155.44231814965815,,79.66451,,0 / 22,2803,2014-12-14 14:30:19:479
8.8877,-3.0836,4.5773,2.3416,-9.4916,-0.7724,6.3896,6.6043,4.8163,13.43,36.65,-18.36,351.69,78.63,-133.29,0.0,73.158,35.178055,126.90888,,155.44231814965815,,79.66451,,0 / 22,2853,2014-12-14 14:30:19:529
18.9075,-39.2928,-1.3234,3.7687,-9.0251,-0.7183,15.0394,-27.1332,-5.2925,7.93,36.65,-19.8,313.52,71.6,-89.4,0.0,73.158,35.178055,126.90888,,155.44231814965815,,79.66451,,0 / 22,2903,2014-12-14 14:30:19:579
-14.677,-35.0971,-5.3083,1.9506,-9.5607,-0.9793,-16.2713,-21.5535,-6.7187,4.24,35.53,-23.67,313.52,71.6,-89.4,0.0,73.158,35.178055,126.90888,,155.44231814965815,,79.66451,,0 / 22,2953,2014-12-14 14:30:19:629
-5.7684,-14.9043,-7.684,0.4592,-9.6829,-1.4834,-7.8313,3.3301,-4.314,2.37,31.46,-27.24,326.01,80.55,-132.59,0.0,73.158,35.178055,126.90888,,155.44231814965815,,79.66451,,0 / 22,3003,2014-12-14 14:30:19:679
-10.8071,-6.9152,-6.8027,0.0117,-9.6596,-1.6919,-11.887,11.4401,-4.1771,3.12,29.65,-28.55,4.74,80.07,-179.6,0.0,73.158,35.178055,126.90888,,155.44231814965815,,79.66451,,0 / 22,3053,2014-12-14 14:30:19:729
-6.4581,5.461,-8.9484,-2.3386,-8.7888,-3.6687,-7.2393,18.2093,-5.5937,4.24,30.78,-28.3,26.87,73.97,154.25,0.0,73.158,35.178055,126.90888,,155.44231814965815,,79.66451,,0 / 22,3103,2014-12-14 14:30:19:779
4.9219,-4.0032,6.4357,-2.0598,-8.8748,-3.6285,6.2247,6.8203,8.0585,5.37,32.96,-27.61,26.87,73.97,154.25,0.0,71.438,35.178055,126.90888,,155.44231814965815,,79.66451,,0 / 22,3153,2014-12-14 14:30:19:829
3.4467,-9.3483,10.9762,-1.0441,-9.5366,-2.033,8.6938,0.2574,14.1145,7.55,36.65,-25.86,31.24,64.82,150.42,0.0,71.438,35.178055,126.90888,,155.44231814965815,,79.66451,,0 / 22,3203,2014-12-14 14:30:19:879
-15.7499,6.3615,-26.1143,-2.2391,-8.4459,-4.4523,-14.713,12.0957,-18.6584,5.37,38.84,-23.3,31.24,64.82,150.42,0.0,71.438,35.178055,126.90888,,155.44231814965815,,79.66451,,0 / 22,3253,2014-12-14 14:30:19:929
-8.5272,20.1554,-30.3291,-0.8379,-8.8496,-4.1416,-2.2575,18.2568,-14.0631,8.3,41.46,-20.8,30.26,68.96,152.68,0.0,71.438,35.178055,126.90888,,155.44231814965815,,79.66451,,0 / 22,3303,2014-12-14 14:30:19:979
-13.949,-15.0575,-17.493,-4.2776,-6.8495,-5.5639,-16.8563,-2.2057,-10.3515,5.74,41.46,-19.24,23.65,44.3,142.45,0.0,71.438,35.178055,126.90888,,155.44231814965815,,79.66451,,0 / 22,3353,2014-12-14 14:30:20:029
10.861,-36.2466,-2.3197,-2.7869,-7.8784,-5.1318,11.3351,-27.317,-3.0763,10.12,45.53,-15.55,23.65,44.3,142.45,0.0,71.438,35.178055,126.90888,,155.44231814965815,,79.66451,,0 / 22,3403,2014-12-14 14:30:20:079
5.0369,-30.1926,-0.308,-1.5086,-8.688,-4.2911,7.188,-16.9168,5.1374,13.8,45.53,-12.36,30.59,53.45,151.49,0.0,71.438,35.178055,126.90888,,155.44231814965815,,79.66451,,0 / 22,3453,2014-12-14 14:30:20:129
4.7495,-5.2868,11.3977,-0.0483,-9.6109,-1.949,4.7826,8.4531,12.9589,19.37,46.96,-9.3,45.4,71.0,168.68,0.0,71.271,35.178055,126.90888,,155.44231814965815,,79.66451,,0 / 22,3503,2014-12-14 14:30:20:179
10.5544,-4.8461,8.4856,0.9273,-9.7063,-1.0479,8.8039,7.4166,9.9225,22.68,45.53,-10.17,45.4,71.0,168.68,0.0,71.271,35.178055,126.90888,,155.44231814965815,,79.66451,,0 / 22,3553,2014-12-14 14:30:20:229
5.0369,-2.3939,4.3857,1.871,-9.6265,-0.0106,3.4278,7.9744,4.1027,21.55,46.96,-16.36,14.39,81.8,-138.49,0.0,71.271,35.178055,126.90888,,155.44231814965815,,79.66451,,0 / 22,3603,2014-12-14 14:30:20:279
5.9181,-2.8537,4.0601,2.2141,-9.551,0.2152,3.6679,7.5193,3.2435,19.74,48.09,-19.11,326.83,79.0,-90.32,0.0,71.271,35.178055,126.90888,,155.44231814965815,,79.66451,,0 / 22,3653,2014-12-14 14:30:20:329
21.2256,-39.2928,-2.8752,3.0438,-9.3217,0.1073,7.757,0.0807,-5.5785,14.55,49.59,-23.3,326.83,79.0,-90.32,0.0,71.271,35.178055,126.90888,,155.44231814965815,,79.66451,,0 / 22,3703,2014-12-14 14:30:20:379
-9.4851,-27.4529,-5.9406,3.4332,-9.1587,-0.7081,8.18,-26.6846,1.6055,6.43,42.15,-35.24,307.8,71.91,-87.98,0.0,71.271,35.178055,126.90888,,155.44231814965815,,79.66451,,0 / 22,3753,2014-12-14 14:30:20:429
-6.7838,-13.1034,-5.1742,0.4879,-9.6829,-1.4747,-8.234,2.9398,-2.9765,5.68,36.65,-36.8,329.93,80.75,-136.46,0.0,70.906,35.178055,126.90888,,155.44231814965815,,79.66451,,0 / 22,3803,2014-12-14 14:30:20:479
-14.1981,2.2999,-6.841,-0.0167,-9.6635,-1.6694,-11.4745,6.6077,-3.3678,4.99,35.53,-36.61,329.93,80.75,-136.46,0.0,70.906,35.178055,126.90888,,155.44231814965815,,79.66451,,0 / 22,3853,2014-12-14 14:30:20:529
-4.9829,8.2773,-8.8143,-1.2342,-9.4337,-2.3774,-9.8942,18.9154,-4.8817,7.55,30.4,-34.49,12.21,80.2,179.43,0.0,70.906,35.178055,126.90888,,155.44231814965815,,79.66451,,0 / 22,3903,2014-12-14 14:30:20:579
3.3126,-5.5358,8.773,-2.4331,-8.6808,-3.8594,1.8894,8.4892,4.781,7.18,30.78,-31.3,33.19,62.28,147.77,0.0,70.906,35.178055,126.90888,,155.44231814965815,,79.66451,,0 / 22,3953,2014-12-14 14:30:20:629
14.9034,-13.8505,16.7428,-1.2207,-9.5062,-2.0766,9.8336,-3.9361,16.0068,9.74,32.59,-27.74,33.19,62.28,147.77,0.0,70.906,35.178055,126.90888,,155.44231814965815,,79.66451,,0 / 22,4003,2014-12-14 14:30:20:679
-4.5423,8.8904,-25.2713,-0.8263,-9.2798,-3.0615,-8.2015,15.2733,-22.6282,6.8,30.78,-25.61,36.56,75.78,149.55,0.0,70.906,35.178055,126.90888,,155.44231814965815,,79.66451,,0 / 22,4053,2014-12-14 14:30:20:729
33.5252,-39.1778,-32.5706,-1.1414,-9.4589,-2.3231,-4.2411,-8.6697,6.3878,7.18,30.78,-22.49,36.56,75.78,149.55,0.0,70.906,35.178055,126.90888,,155.44231814965815,,79.66451,,0 / 22,4103,2014-12-14 14:30:20:779
-0.1359,-17.7205,-32.7622,-2.5997,-8.1562,-4.7841,-9.3163,1.4563,-20.1311,1.68,28.9,-20.8,27.78,74.7,153.83,0.0,70.319,35.178055,126.90888,,155.44231814965815,,79.66451,,0 / 22,4153,2014-12-14 14:30:20:829
21.8387,-39.2928,12.9687,-1.6559,-8.1438,-5.2064,16.3253,-27.3226,16.0938,4.99,31.84,-15.36,18.13,56.14,162.36,0.0,70.319,35.178055,126.90888,,155.44231814965815,,79.66451,,0 / 22,4203,2014-12-14 14:30:20:879
4.8453,-14.3487,-3.0285,-0.0741,-9.0951,-3.6666,-2.2864,0.2091,-3.5167,7.55,32.21,-14.55,18.13,56.14,162.36,0.0,70.319,35.178055,126.90888,,155.44231814965815,,79.66451,,0 / 22,4253,2014-12-14 14:30:20:929
-6.5156,-2.9878,1.9143,0.3595,-9.2331,-3.285,7.9912,-5.6108,5.8199,7.93,32.21,-12.8,19.09,68.04,178.84,0.0,70.319,35.178055,126.90888,,155.44231814965815,,79.66451,,0 / 22,4303,2014-12-14 14:30:20:979
5.7457,-5.7657,6.5123,0.2788,-9.5789,-2.0825,3.6643,5.2978,8.7079,11.62,32.96,-9.3,31.68,77.63,-172.37,0.0,70.319,35.178055,126.90888,,155.44231814965815,,79.66451,,0 / 22,4353,2014-12-14 14:30:21:029
4.9027,-7.0877,0.1518,0.1955,-9.6618,-1.3377,6.6175,3.0824,3.1527,11.62,31.84,-8.86,34.76,80.14,-173.31,0.0,70.319,35.178055,126.90888,,155.44231814965815,,79.66451,,0 / 22,4403,2014-12-14 14:30:21:079
7.6998,-6.6087,4.0026,1.716,-9.6308,-0.6882,4.5294,3.9707,3.2728,13.8,31.09,-11.49,34.76,80.14,-173.31,0.0,70.319,35.178055,126.90888,,155.44231814965815,,79.66451,,0 / 22,4455,2014-12-14 14:30:21:131
21.7046,-21.6096,-22.7999,3.7939,-8.7974,-2.0936,13.1222,-11.885,-13.1524,11.99,32.96,-9.3,351.08,79.13,-111.85,0.0,74.015,35.178055,126.90888,,155.44231814965815,,79.66451,,0 / 22,4505,2014-12-14 14:30:21:181
-6.075,-19.2149,-7.3583,2.2989,-9.3241,-1.9865,-12.3424,-14.1991,0.3036,8.3,38.09,-8.86,351.53,63.78,-118.89,0.0,74.015,35.178055,126.90888,,155.44231814965815,,79.66451,,0 / 22,4553,2014-12-14 14:30:21:229
-6.439,-39.1586,-14.6959,1.5223,-9.488,-1.9574,-10.5054,-24.2043,-3.8665,4.62,37.78,-11.86,351.53,63.78,-118.89,0.0,74.015,35.178055,126.90888,,155.44231814965815,,79.66451,,0 / 22,4603,2014-12-14 14:30:21:279
-17.3784,-3.6775,-12.1095,-0.8792,-9.428,-2.5516,-17.5124,1.6645,-7.8701,-2.01,37.03,-15.74,330.79,75.35,-142.13,0.0,74.015,35.178055,126.90888,,155.44231814965815,,79.66451,,0 / 22,4653,2014-12-14 14:30:21:329
-17.455,5.5951,-8.1629,-1.511,-9.2344,-2.935,-14.7056,15.0842,-6.7217,-5.38,27.4,-22.24,10.74,70.33,152.76,0.0,74.015,35.178055,126.90888,,155.44231814965815,,79.66451,,0 / 22,4703,2014-12-14 14:30:21:379
-11.0944,1.5527,-1.1702,-3.8871,-8.25,-3.6054,-4.4452,12.2689,5.1085,-4.26,27.03,-24.49,10.74,70.33,152.76,0.0,74.015,35.178055,126.90888,,155.44231814965815,,79.66451,,0 / 22,4753,2014-12-14 14:30:21:429
-7.3394,-3.256,1.7419,-4.2236,-8.1787,-3.3824,-2.595,9.0432,7.5039,-0.57,27.78,-20.8,27.27,57.27,132.85,0.0,74.015,35.178055,126.90888,,155.44231814965815,,79.66451,,0 / 22,4803,2014-12-14 14:30:21:479
4.328,-9.6357,-1.3043,-4.4524,-8.1791,-3.0738,4.2872,3.1333,2.3879,-1.7,28.9,-20.42,27.38,56.51,128.69,0.0,71.839,35.178055,126.90888,,155.44231814965815,,79.66451,,0 / 22,4853,2014-12-14 14:30:21:529
2.6421,-13.8697,-4.8869,-3.4459,-8.6535,-3.0682,11.1002,-3.6258,0.0304,-1.32,30.03,-17.11,27.38,56.51,128.69,0.0,71.839,35.178055,126.90888,,155.44231814965815,,79.66451,,0 / 22,4903,2014-12-14 14:30:21:579
1.7799,-17.2416,7.6043,-3.0039,-8.8859,-2.8615,1.773,-5.3804,3.4558,-1.32,29.65,-14.86,24.08,61.93,131.68,0.0,71.839,35.178055,126.90888,,155.44231814965815,,79.66451,,0 / 22,4953,2014-12-14 14:30:21:629
2.1056,-10.2679,0.1326,-2.1742,-9.4385,-1.5357,5.1038,0.7027,2.0989,0.55,32.21,-13.55,35.78,71.2,123.84,0.0,71.839,35.178055,126.90888,,155.44231814965815,,79.66451,,0 / 22,5031,2014-12-14 14:30:21:707
3.3892,-9.2525,0.5349,-1.6445,-9.5715,-1.361,4.0866,1.9264,1.486,1.99,32.96,-12.11,35.78,71.2,123.84,0.0,71.839,35.178055,126.90888,,155.44231814965815,,79.66451,,0 / 22,5053,2014-12-14 14:30:21:729
2.1248,-10.0955,0.7457,-1.3936,-9.627,-1.2448,4.1523,0.7952,2.0277,1.68,31.46,-13.05,40.25,77.43,129.61,0.0,71.839,35.178055,126.90888,,155.44231814965815,,79.66451,,0 / 22,5103,2014-12-14 14:30:21:779
0.2281,-10.2679,0.2092,-1.1038,-9.6858,-1.0666,1.7216,0.1421,1.2902,2.37,32.21,-12.3,40.25,77.43,129.61,0.0,67.299,35.178055,126.90888,,155.44231814965815,,79.66451,,0 / 22,5153,2014-12-14 14:30:21:829
-0.749,-10.4021,-1.9173,-1.0002,-9.7113,-0.928,-0.7599,1.4207,0.2264,1.3,31.46,-13.55,36.65,81.0,134.02,0.0,67.299,35.178055,126.90888,,155.44231814965815,,79.66451,,0 / 22,5203,2014-12-14 14:30:21:879
0.7645,-10.4978,-1.1319,-0.799,-9.7265,-0.9625,0.2368,0.0793,0.9351,0.55,31.84,-12.67,35.26,81.92,137.89,0.0,67.299,35.178055,126.90888,,155.44231814965815,,79.66451,,0 / 22,5253,2014-12-14 14:30:21:929
-1.0938,-9.5782,0.42,-0.8171,-9.733,-0.8779,-0.2122,0.578,1.323,0.93,31.46,-12.67,34.42,82.67,140.3,0.0,67.299,35.178055,126.90888,,155.44231814965815,,79.66451,,0 / 22,5303,2014-12-14 14:30:21:979
1.7033,-9.6166,0.0751,-0.7137,-9.749,-0.7864,1.5069,1.2644,0.7012,2.37,32.21,-11.17,34.42,82.67,140.3,0.0,67.299,35.178055,126.90888,,155.44231814965815,,79.66451,,0 / 22,5353,2014-12-14 14:30:22:029
0.5538,-9.3675,0.0368,-0.361,-9.7799,-0.6273,0.8608,0.7733,0.5597,1.68,31.46,-13.93,41.21,83.78,137.78,0.0,67.299,35.178055,126.90888,,155.44231814965815,,79.66451,,0 / 22,5403,2014-12-14 14:30:22:079
0.3047,-10.5553,0.5158,-0.26,-9.7906,-0.4968,0.5792,-0.453,1.0426,1.3,30.78,-13.49,29.43,85.77,150.08,0.0,67.299,35.178055,126.90888,,155.44231814965815,,79.66451,,0 / 22,5453,2014-12-14 14:30:22:129
-0.0018,-9.2142,-0.0398,-0.2444,-9.7966,-0.3698,0.0217,0.4745,0.6736,1.99,31.84,-15.11,31.63,86.72,152.37,0.0,67.299,35.178055,126.90888,,155.44231814965815,,79.66451,,0 / 22,5503,2014-12-14 14:30:22:179
0.4963,-8.4096,0.1901,-0.1201,-9.801,-0.309,0.6244,1.3089,0.5167,0.18,31.46,-17.92,31.17,87.41,146.54,0.0,58.286,35.178055,126.90888,,155.44231814965815,,79.66451,,0 / 22,5554,2014-12-14 14:30:22:230
0.9561,-9.8848,1.3396,0.0217,-9.8065,-0.0566,1.1414,-0.3323,1.9938,-0.95,30.03,-18.67,31.17,87.41,146.54,0.0,58.286,35.178055,126.90888,,155.44231814965815,,79.66451,,0 / 22,5603,2014-12-14 14:30:22:279
0.7071,-9.7315,0.4391,0.0994,-9.806,0.06,0.4527,0.1872,0.5303,0.55,29.65,-19.99,342.06,89.65,-159.04,0.0,58.286,35.178055,126.90888,,155.44231814965815,,79.66451,,0 / 22,5653,2014-12-14 14:30:22:329
-0.4041,-9.5782,1.2055,0.1847,-9.8024,0.2226,-0.0234,-0.2267,0.986,-0.2,31.53,-20.18,239.82,89.32,-58.88,0.0,58.286,35.178055,126.90888,,155.44231814965815,,79.66451,,0 / 22,5703,2014-12-14 14:30:22:379
0.3047,-9.2334,0.8989,0.1424,-9.7988,0.3645,0.1526,0.4757,0.5935,-0.95,28.15,-19.55,218.3,88.31,-39.69,0.0,58.286,35.178055,126.90888,,155.44231814965815,,79.66451,,0 / 22,5753,2014-12-14 14:30:22:429
0.6496,-9.1951,1.5695,0.1733,-9.7893,0.5566,0.1789,0.0557,1.536,-1.7,28.9,-19.55,218.3,88.31,-39.69,0.0,58.286,35.178055,126.90888,,155.44231814965815,,79.66451,,0 / 22,5803,2014-12-14 14:30:22:479
0.209,-9.9806,1.7611,0.2388,-9.7883,0.5491,0.3004,1.6178,-0.5438,0.18,28.9,-19.8,198.93,86.59,-17.3,0.0,58.286,35.178055,126.90888,,155.44231814965815,,79.66451,,0 / 22,5853,2014-12-14 14:30:22:529
0.8987,-10.6511,3.1405,0.2541,-9.7762,0.7286,0.2449,-1.026,1.9992,-0.95,29.65,-21.3,198.6,85.49,-19.22,0.0,60.377,35.178055,126.90888,,155.44231814965815,,79.66451,,0 / 22,5903,2014-12-14 14:30:22:579
1.6841,-8.6778,1.9526,0.4505,-9.7519,0.932,1.3212,0.7336,1.0671,-2.01,28.53,-21.36,198.6,85.49,-19.22,0.0,60.377,35.178055,126.90888,,155.44231814965815,,79.66451,,0 / 22,5953,2014-12-14 14:30:22:629
2.2397,-9.5782,2.604,0.6202,-9.7188,1.1537,0.8485,0.5032,0.6801,-2.38,28.53,-20.42,203.72,83.94,-25.8,0.0,60.377,35.178055,126.90888,,155.44231814965815,,79.66451,,0 / 22,6003,2014-12-14 14:30:22:679
1.9524,-9.9614,2.8339,0.8271,-9.6831,1.3127,1.3776,-0.2686,1.4023,-2.38,27.4,-19.92,213.62,80.9,-32.21,0.0,60.377,35.178055,126.90888,,155.44231814965815,,79.66451,,0 / 22,6053,2014-12-14 14:30:22:729
0.3431,-9.2717,1.4162,0.8429,-9.6657,1.4261,-0.4177,0.1622,0.0273,-3.13,27.78,-21.3,210.51,80.9,-32.21,0.0,60.377,35.178055,126.90888,,155.44231814965815,,79.66451,,0 / 22,6103,2014-12-14 14:30:22:779
1.5883,-9.2909,2.24,0.9124,-9.6323,1.5989,0.6249,0.1614,0.7052,-2.01,28.53,-22.11,211.43,79.95,-29.34,0.0,60.377,35.178055,126.90888,,155.44231814965815,,79.66451,,0 / 22,6155,2014-12-14 14:30:22:831
1.7033,-9.3292,2.0484,0.9656,-9.6213,1.6337,0.7333,0.1268,0.4825,-3.13,29.28,-21.68,211.43,79.95,-29.34,0.0,60.377,35.178055,126.90888,,155.44231814965815,,79.66451,,0 / 22,6203,2014-12-14 14:30:22:879
1.3201,-9.1184,2.3933,1.0571,-9.599,1.7067,0.4936,0.3187,0.5992,-3.51,27.78,-20.8,206.83,78.84,-30.59,0.0,55.502,35.178055,126.90888,,155.44231814965815,,79.66451,,0 / 22,6253,2014-12-14 14:30:22:929
1.301,-9.0993,2.3933,1.1139,-9.5684,1.8372,0.1532,0.277,0.5969,-3.88,28.15,-21.68,206.83,78.84,-30.59,0.0,55.502,35.178055,126.90888,,155.44231814965815,,79.66451,,0 / 22,6303,2014-12-14 14:30:22:979
1.4542,-9.0226,2.1442,1.108,-9.5486,1.9408,-0.0124,0.0582,0.7097,-2.76,28.9,-22.49,213.18,77.34,-31.23,0.0,55.502,35.178055,126.90888,,155.44231814965815,,79.66451,,0 / 22,6353,2014-12-14 14:30:23:029
1.8183,-9.1376,1.6844,1.2139,-9.5329,1.9549,0.6624,0.1503,-0.2241,-2.76,28.53,-19.05,213.71,76.51,-30.59,0.0,55.502,35.178055,126.90888,,155.44231814965815,,79.66451,,0 / 22,6403,2014-12-14 14:30:23:079
1.6458,-9.1951,1.627,1.2999,-9.5283,1.9216,0.467,0.013,-0.2446,-3.88,29.28,-21.68,211.46,76.43,-31.84,0.0,55.502,35.178055,126.90888,,155.44231814965815,,79.66451,,0 / 22,6454,2014-12-14 14:30:23:130
0.937,-9.5782,2.1825,1.2957,-9.5296,1.9179,-0.2965,-0.2241,0.2513,-3.13,27.78,-21.3,211.46,76.43,-31.84,0.0,55.502,35.178055,126.90888,,155.44231814965815,,79.66451,,0 / 22,6503,2014-12-14 14:30:23:179
1.6075,-9.3483,1.8377,1.3039,-9.5219,1.9501,0.1108,-0.1093,0.2445,-3.88,27.46,-16.74,212.09,76.33,-33.31,0.0,55.502,35.178055,126.90888,,155.44231814965815,,79.66451,,0 / 22,6553,2014-12-14 14:30:23:229
1.7991,-9.2525,1.6461,1.373,-9.519,1.9168,0.4645,0.0947,-0.2539,-3.51,27.46,-17.3,213.02,76.16,-33.77,0.0,50.653,35.178055,126.90888,,155.44231814965815,,79.66451,,0 / 22,6603,2014-12-14 14:30:23:279
1.4159,-9.3867,1.6461,1.4248,-9.5182,1.8825,0.3141,0.1038,-0.2718,-3.88,28.53,-16.74,219.69,76.07,-37.12,0.0,50.653,35.178055,126.90888,,155.44231814965815,,79.66451,,0 / 22,6653,2014-12-14 14:30:23:329
1.1286,-9.3867,1.8185,1.4034,-9.5246,1.8663,-0.2474,-0.0873,0.0286,-3.51,28.53,-16.3,219.69,76.07,-37.12,0.0,50.653,35.178055,126.90888,,155.44231814965815,,79.66451,,0 / 22,6704,2014-12-14 14:30:23:380
1.4159,-9.2909,1.1097,1.383,-9.5332,1.8373,-0.1131,0.0049,-0.2987,-3.88,28.15,-16.86,218.38,76.22,-36.94,0.0,50.653,35.178055,126.90888,,155.44231814965815,,79.66451,,0 / 22,6753,2014-12-14 14:30:23:429
1.7033,-9.2142,0.2092,1.4017,-9.5515,1.7246,0.2122,0.0742,-1.148,-4.26,28.53,-17.74,218.38,76.22,-36.94,0.0,50.653,35.178055,126.90888,,155.44231814965815,,79.66451,,0 / 22,6803,2014-12-14 14:30:23:479
1.301,-9.2717,1.4928,1.3901,-9.5858,1.5329,0.0151,-0.0037,0.0573,-3.88,29.65,-16.42,221.1,76.9,-39.1,0.0,50.653,35.178055,126.90888,,155.44231814965815,,79.66451,,0 / 22,6853,2014-12-14 14:30:23:529
1.7991,-9.9997,1.6078,1.4246,-9.5793,1.5423,0.2125,-0.7597,0.2163,-5.38,30.78,-15.74,220.23,77.82,-42.2,0.0,50.653,35.178055,126.90888,,155.44231814965815,,79.66451,,0 / 22,6903,2014-12-14 14:30:23:579
1.2435,-9.3867,1.3587,1.3761,-9.5813,1.5733,-0.2936,-0.4275,0.2496,-5.38,29.65,-17.05,218.54,77.69,-41.17,0.0,66.483,35.178055,126.90888,,155.44231814965815,,79.66451,,0 / 22,6953,2014-12-14 14:30:23:629
1.4351,-9.3292,0.9373,1.385,-9.5774,1.5892,0.2091,-0.0962,0.3844,-4.63,30.78,-17.3,218.54,77.69,-41.17,0.0,66.483,35.178055,126.90888,,155.44231814965815,,79.66451,,0 / 22,7003,2014-12-14 14:30:23:679
2.0673,-8.9652,0.056,1.4404,-9.6006,1.3873,0.6229,0.3204,-1.4317,-4.26,30.03,-17.05,223.36,77.59,-41.07,0.0,66.483,35.178055,126.90888,,155.44231814965815,,79.66451,,0 / 22,7053,2014-12-14 14:30:23:729