ACCELEROMETER X (m/s²),ACCELEROMETER Y (m/s²),ACCELEROMETER Z (m/s²),GRAVITY X (m/s²),GRAVITY Y (m/s²),GRAVITY Z (m/s²),LINEAR ACCELERATION X (m/s²),LINEAR ACCELERATION Y (m/s²),LINEAR ACCELERATION Z (m/s²),MAGNETIC FIELD X (μT),MAGNETIC FIELD Y (μT),MAGNETIC FIELD Z (μT),ORIENTATION X (°),ORIENTATION Y (°),ORIENTATION Z (°),PROXIMITY (i),SOUND LEVEL (dB),LOCATION Latitude : ,LOCATION Longitude : ,LOCATION Altitude ( m),LOCATION Altitude-google ( m),LOCATION Speed ( Kmh),LOCATION Accuracy ( m),LOCATION ORIENTATION (°),Satellites in range,Time since start in ms ,YYYY-MO-DD HH-MI-SS_SSS
0.4389,-9.5399,0.1709,0.3745,-9.7988,-0.1171,0.2551,0.1931,0.2719,-4.95,52.71,8.01,143.55,87.97,-118.37,0.0,58.339,35.17839,126.90839,,NaN,,154.8387,,0 / 22,3,2014-12-14 14:44:20:398
0.2473,-10.6319,1.7802,0.378,-9.7992,-0.0591,0.0077,-0.2641,0.4697,-4.95,50.84,7.58,143.55,87.97,-118.37,0.0,58.339,35.17839,126.90839,,NaN,,154.8387,,0 / 22,53,2014-12-14 14:44:20:448
1.0519,-11.5515,3.6003,0.3663,-9.795,0.3062,0.2014,-1.2849,2.4287,-6.01,52.71,7.2,122.48,87.76,-98.89,0.0,58.339,35.17839,126.90839,,NaN,,154.8387,,0 / 22,103,2014-12-14 14:44:20:498
4.4813,-11.8198,5.0946,0.6715,-9.7242,1.0765,2.8379,-1.9457,4.2583,-6.76,53.78,4.76,77.81,87.21,-50.1,0.0,58.339,35.17839,126.90839,,NaN,,154.8387,,0 / 22,153,2014-12-14 14:44:20:548
4.2705,-11.6857,3.5811,1.0913,-9.6318,1.4857,3.2319,-1.193,2.8672,-8.63,52.71,2.95,63.21,82.57,-31.95,0.0,58.339,35.17839,126.90839,,NaN,,154.8387,,0 / 22,203,2014-12-14 14:44:20:598
1.1477,-12.7585,0.1709,1.4391,-9.584,1.4987,3.2325,-3.3894,-0.324,-9.32,55.65,1.2,63.21,82.57,-43.84,0.0,58.339,35.17839,126.90839,,NaN,,154.8387,,0 / 22,253,2014-12-14 14:44:20:648
-0.3275,-9.0226,1.8377,1.3473,-9.6321,1.2561,-2.4446,1.407,-1.2831,-14.88,53.78,-6.92,87.53,77.77,-43.84,0.0,67.688,35.17839,126.90839,,NaN,,154.8387,,0 / 22,303,2014-12-14 14:44:20:698
-0.4807,-7.8348,2.24,1.1906,-9.6309,1.4134,-1.4721,1.281,1.2872,-16.7,54.9,-11.67,164.15,79.17,-47.01,0.0,67.688,35.17839,126.90839,,NaN,,154.8387,,0 / 22,353,2014-12-14 14:44:20:748
0.458,-7.5091,1.876,0.9625,-9.6284,1.5929,-0.7608,2.8545,0.2026,-20.38,53.03,-17.3,149.93,79.06,-31.14,0.0,67.688,35.17839,126.90839,,NaN,,154.8387,,0 / 22,403,2014-12-14 14:44:20:798
-0.8064,-3.4476,0.7457,0.8782,-9.6223,1.6767,-1.3437,4.4245,-0.042,-21.51,50.46,-17.67,149.93,79.06,-31.14,0.0,67.688,35.17839,126.90839,,NaN,,154.8387,,0 / 22,453,2014-12-14 14:44:20:848
-0.5382,-2.3556,0.8223,0.6527,-9.6326,1.7198,-1.4191,5.8717,-0.9317,-23.32,49.03,-21.36,148.37,78.87,-27.64,0.0,67.688,35.17839,126.90839,,NaN,,154.8387,,0 / 22,503,2014-12-14 14:44:20:898
-1.5153,-2.3172,-0.6529,0.5373,-9.6326,1.7591,-0.8817,5.4412,-0.7317,-24.07,51.59,-19.8,137.9,79.19,-20.78,0.0,67.688,35.17839,126.90839,,NaN,,154.8387,,0 / 22,553,2014-12-14 14:44:20:948
-0.7298,-15.9579,1.9526,1.3616,-9.2584,2.9324,11.3361,-7.435,7.7774,-24.07,53.09,-11.92,110.5,79.53,-14.2,0.0,67.688,35.17839,126.90839,,NaN,,154.8387,,0 / 22,603,2014-12-14 14:44:20:998
2.6421,-9.6166,1.6078,1.1712,-9.3594,2.6834,-1.1649,-6.8443,2.2717,-21.51,56.71,-9.92,110.5,79.53,-14.2,0.0,69.593,35.17839,126.90839,,NaN,,154.8387,,0 / 22,653,2014-12-14 14:44:21:048
2.9869,-12.5669,0.9756,1.093,-9.5091,2.1338,0.4233,-5.7576,-0.9379,-17.82,59.34,-0.49,77.65,74.59,-23.46,0.0,69.593,35.17839,126.90839,,NaN,,154.8387,,0 / 22,703,2014-12-14 14:44:21:098
0.9944,-7.4325,2.1825,1.2492,-9.5333,1.9305,1.8416,-0.8172,-0.4892,-15.95,59.34,2.83,62.53,76.44,-32.91,0.0,69.593,35.17839,126.90839,,NaN,,154.8387,,0 / 22,753,2014-12-14 14:44:21:148
1.4159,-10.9385,1.6844,1.0882,-9.5582,1.9043,-0.8176,-0.5677,-0.4405,-13.38,60.4,7.83,62.53,76.44,-32.91,0.0,69.593,35.17839,126.90839,,NaN,,154.8387,,0 / 22,803,2014-12-14 14:44:21:198
0.209,-9.1759,-1.6491,1.0975,-9.5637,1.8714,-0.2332,-0.7268,-0.4163,-11.57,58.96,11.45,44.17,77.22,-30.39,0.0,69.593,35.17839,126.90839,,NaN,,154.8387,,0 / 22,853,2014-12-14 14:44:21:248
0.9753,-9.3867,-2.1089,0.9575,-9.6715,1.3101,-0.2173,0.2409,-3.2703,-9.7,58.96,13.26,44.17,77.22,-30.39,0.0,69.593,35.17839,126.90839,,NaN,,154.8387,,0 / 22,903,2014-12-14 14:44:21:298
0.5921,-9.6357,1.148,1.0243,-9.7044,0.972,0.2932,0.3236,-1.9865,-5.63,56.03,19.26,41.75,80.48,-36.16,0.0,70.378,35.17839,126.90839,,NaN,,154.8387,,0 / 22,953,2014-12-14 14:44:21:348
1.1094,-10.0572,0.6882,0.9398,-9.7139,0.9632,-0.4882,0.1448,0.0909,-5.32,55.65,21.33,46.8,81.96,-48.54,0.0,70.378,35.17839,126.90839,,NaN,,154.8387,,0 / 22,1003,2014-12-14 14:44:21:398
2.1056,-9.8848,0.7648,1.0012,-9.708,0.9606,0.5765,-0.1509,0.305,-1.26,54.53,24.7,46.8,81.96,-48.54,0.0,70.378,35.17839,126.90839,,NaN,,154.8387,,0 / 22,1053,2014-12-14 14:44:21:448
1.8757,-9.8656,-0.9786,1.1617,-9.6997,0.8582,1.1079,-0.2402,-1.0351,0.62,53.78,27.83,35.31,81.87,-46.19,0.0,70.378,35.17839,126.90839,,NaN,,154.8387,,0 / 22,1103,2014-12-14 14:44:21:498
0.7837,-10.996,-2.1281,1.1743,-9.7167,0.614,0.0499,-0.8808,-1.6448,3.18,53.03,28.26,45.96,82.23,-62.4,0.0,70.378,35.17839,126.90839,,NaN,,154.8387,,0 / 22,1153,2014-12-14 14:44:21:548
-1.6302,-17.414,-1.9748,0.9236,-9.7618,0.159,-2.5488,-3.0467,-2.249,4.3,52.34,28.95,45.96,82.23,-62.4,0.0,70.378,35.17839,126.90839,,NaN,,154.8387,,0 / 22,1203,2014-12-14 14:44:21:598
2.8336,-16.2836,2.4508,0.6785,-9.7832,0.0011,0.1056,-6.568,-0.2671,6.12,51.96,29.51,60.85,84.52,-80.23,0.0,70.378,35.17839,126.90839,,NaN,,154.8387,,0 / 22,1254,2014-12-14 14:44:21:649
9.6348,-12.5669,2.7956,0.827,-9.7646,0.372,1.2354,-3.3508,3.7836,5.74,53.4,29.51,60.85,84.52,-80.23,0.0,66.355,35.17839,126.90839,,NaN,,154.8387,,0 / 22,1303,2014-12-14 14:44:21:698
-3.9675,-15.0767,-1.0744,1.2745,-9.6916,0.7871,5.7581,-0.1129,3.1722,0.99,60.78,22.33,46.67,84.69,-65.78,0.0,66.355,35.17839,126.90839,,NaN,,154.8387,,0 / 22,1353,2014-12-14 14:44:21:748
0.6304,-13.9463,-3.2201,1.1901,-9.7285,0.331,-0.9876,-1.0488,-3.6097,-0.51,63.71,17.89,42.98,80.1,-64.14,0.0,66.355,35.17839,126.90839,,NaN,,154.8387,,0 / 22,1403,2014-12-14 14:44:21:798
-0.9214,-12.2796,-0.9403,1.0621,-9.7489,0.0278,-1.6012,-0.7723,-1.8352,-9.32,67.78,8.01,78.33,82.76,-74.46,0.0,66.355,35.17839,126.90839,,NaN,,154.8387,,0 / 22,1453,2014-12-14 14:44:21:848
-1.0172,-9.3867,-0.1165,0.8038,-9.7732,-0.0974,-2.7567,2.9772,-1.1147,-15.95,69.65,-0.99,78.33,82.76,-74.46,0.0,66.355,35.17839,126.90839,,NaN,,154.8387,,0 / 22,1503,2014-12-14 14:44:21:898
-2.4157,-5.67,-0.7295,0.6366,-9.7852,-0.1208,-1.5048,3.2868,-0.1507,-27.38,68.9,-12.24,210.57,85.26,-96.91,0.0,66.355,35.17839,126.90839,,NaN,,154.8387,,0 / 22,1553,2014-12-14 14:44:21:948
-2.3774,-2.9878,-0.8828,0.0439,-9.8028,-0.2711,-2.4881,7.028,-0.5856,-29.95,66.71,-18.8,242.57,87.66,-116.28,0.0,66.355,35.17839,126.90839,,NaN,,154.8387,,0 / 22,1603,2014-12-14 14:44:21:998
-1.5153,-1.7233,-1.515,-0.2319,-9.7947,-0.4257,-1.7112,7.0269,-0.8918,-31.82,66.65,-21.92,242.57,87.66,-116.28,0.0,70.537,35.17839,126.90839,,NaN,,154.8387,,0 / 22,1653,2014-12-14 14:44:22:048
-1.9559,-2.9303,5.0754,-0.5821,-9.7572,-0.7933,-1.1115,6.3201,-1.3046,-31.45,68.53,-21.61,335.39,87.17,151.42,0.0,70.537,35.17839,126.90839,,NaN,,154.8387,,0 / 22,1703,2014-12-14 14:44:22:098
7.6232,-15.3257,-1.1319,0.1326,-9.7337,1.1864,8.743,-5.0077,18.142,-30.32,70.71,-18.17,340.96,84.24,143.73,0.0,70.537,35.17839,126.90839,,NaN,,154.8387,,0 / 22,1753,2014-12-14 14:44:22:148
-2.5498,-8.8311,-1.8215,0.1587,-9.7222,1.2746,-0.0835,-3.5422,1.1386,-26.32,75.15,-9.36,116.68,83.82,-22.99,0.0,70.537,35.17839,126.90839,,NaN,,154.8387,,0 / 22,1803,2014-12-14 14:44:22:198
-0.8639,-12.0688,-0.1739,-0.0265,-9.7583,0.9721,-0.491,-3.2464,-1.5535,-24.07,76.65,-3.05,116.68,83.82,-22.99,0.0,70.537,35.17839,126.90839,,NaN,,154.8387,,0 / 22,1853,2014-12-14 14:44:22:248
2.029,-9.3675,1.8952,0.4589,-9.7718,0.6874,2.3252,-0.7271,0.5298,-18.2,78.09,7.64,63.21,84.31,1.56,0.0,70.537,35.17839,126.90839,,NaN,,154.8387,,0 / 22,1903,2014-12-14 14:44:22:298
0.9944,-8.9652,-0.5571,0.4189,-9.7726,0.7014,-0.596,1.3941,-0.6696,-14.88,75.15,12.58,65.93,85.17,-33.73,0.0,69.816,35.17839,126.90839,,NaN,,154.8387,,0 / 22,1953,2014-12-14 14:44:22:348
1.2244,-9.1376,-0.5571,0.787,-9.7552,0.6229,1.9349,-1.0635,-0.194,-10.07,75.53,18.33,52.66,85.29,-37.48,0.0,69.816,35.17839,126.90839,,NaN,,154.8387,,0 / 22,2004,2014-12-14 14:44:22:399
0.8795,-8.8694,0.0943,0.8274,-9.7596,0.4864,0.1714,0.9225,-0.8337,-6.76,73.71,22.01,52.66,85.29,-37.48,0.0,69.816,35.17839,126.90839,,NaN,,154.8387,,0 / 22,2053,2014-12-14 14:44:22:448
1.4542,-9.6549,0.1518,0.8761,-9.7629,0.2987,0.1756,0.6707,-0.9802,-3.07,69.96,28.7,57.77,84.38,-59.55,0.0,69.816,35.17839,126.90839,,NaN,,154.8387,,0 / 22,2103,2014-12-14 14:44:22:498
1.1669,-9.1951,1.033,0.9366,-9.7562,0.3298,0.2956,0.0445,0.4508,0.62,68.53,34.26,60.02,84.58,-71.18,0.0,69.816,35.17839,126.90839,,NaN,,154.8387,,0 / 22,2153,2014-12-14 14:44:22:548
0.4005,-10.2105,0.3242,0.9101,-9.7559,0.4056,-0.6541,0.1034,-0.0742,6.49,67.03,36.39,50.23,83.96,-68.1,0.0,69.816,35.17839,126.90839,,NaN,,154.8387,,0 / 22,2203,2014-12-14 14:44:22:598
2.0865,-11.6665,-0.6337,0.9304,-9.7568,0.3297,0.7522,-1.737,-0.7505,8.3,67.03,38.14,50.23,83.96,-68.1,0.0,69.816,35.17839,126.90839,,NaN,,154.8387,,0 / 22,2253,2014-12-14 14:44:22:648
0.8603,-16.3986,-0.4996,1.0125,-9.7538,0.0898,-0.0114,-3.7119,-0.611,13.49,67.09,39.14,46.37,84.22,-70.49,0.0,70.237,35.17839,126.90839,,NaN,,154.8387,,0 / 22,2303,2014-12-14 14:44:22:698
2.2206,-15.9963,6.9721,1.1605,-9.7338,0.2783,2.9775,-6.7776,3.0462,14.62,67.46,38.39,55.46,84.05,-84.93,0.0,70.237,35.17839,126.90839,,NaN,,154.8387,,0 / 22,2353,2014-12-14 14:44:22:748
4.0598,-13.4865,7.0679,1.3889,-9.637,1.1703,2.3868,-1.2584,4.6699,9.43,75.15,29.51,37.57,82.06,-65.69,0.0,70.237,35.17839,126.90839,,NaN,,154.8387,,0 / 22,2403,2014-12-14 14:44:22:798
1.9332,-16.6668,-5.0785,1.5643,-9.6327,0.9671,1.5146,-2.243,-1.8733,4.3,78.46,26.14,37.57,82.06,-65.69,0.0,70.237,35.17839,126.90839,,NaN,,154.8387,,0 / 22,2453,2014-12-14 14:44:22:848
0.0174,-14.0038,-1.2468,1.5561,-9.6585,0.6792,0.343,-3.4865,-4.904,-10.82,84.71,11.7,37.4,79.19,-58.27,0.0,70.237,35.17839,126.90839,,NaN,,154.8387,,0 / 22,2504,2014-12-14 14:44:22:899
-0.6915,-12.5095,-2.5879,1.11,-9.7435,0.0451,-1.8883,-0.4336,-2.5726,-19.32,85.84,0.51,132.12,82.02,-73.31,0.0,70.237,35.17839,126.90839,,NaN,,154.8387,,0 / 22,2553,2014-12-14 14:44:22:948
-1.1896,-7.7582,-1.0552,1.0229,-9.7531,-0.0415,-1.9295,2.818,-1.594,-26.32,81.03,-8.55,132.12,82.02,-73.31,0.0,70.156,35.17839,126.90839,,NaN,,154.8387,,0 / 22,2604,2014-12-14 14:44:22:999
-3.1629,-4.9611,-0.7487,0.4355,-9.7955,-0.1704,-3.3542,5.6357,-0.3628,-38.07,72.21,-20.92,213.06,84.01,-92.32,0.0,70.156,35.17839,126.90839,,NaN,,154.8387,,0 / 22,2653,2014-12-14 14:44:23:048
-3.3353,-2.7387,-1.7258,0.2214,-9.8015,-0.2267,-3.6568,7.1257,-0.7511,-41.38,68.15,-25.24,235.99,87.27,-111.37,0.0,70.156,35.17839,126.90839,,NaN,,154.8387,,0 / 22,2703,2014-12-14 14:44:23:098
-3.6227,0.5182,-3.9673,-0.6788,-9.739,-0.928,-2.9128,8.7802,-2.742,-41.38,62.28,-30.3,330.96,87.02,156.96,0.0,70.156,35.17839,126.90839,,NaN,,154.8387,,0 / 22,2753,2014-12-14 14:44:23:148
-3.048,-2.6621,5.3245,-1.0004,-9.6603,-1.3597,-3.1868,8.6835,-4.2647,-40.26,63.71,-29.17,330.96,87.02,156.96,0.0,70.156,35.17839,126.90839,,NaN,,154.8387,,0 / 22,2803,2014-12-14 14:44:23:198
2.872,-20.2111,6.9913,-0.1206,-9.7863,0.62,1.1387,-11.51,4.3978,-36.57,70.71,-18.86,342.25,80.09,143.66,0.0,70.156,35.17839,126.90839,,NaN,,154.8387,,0 / 22,2853,2014-12-14 14:44:23:248
0.4772,-9.5974,-0.1548,-0.1519,-9.7969,0.4101,-1.1111,1.8848,-2.782,-33.26,73.34,-11.67,91.26,86.31,11.01,0.0,70.156,35.17839,126.90839,,NaN,,154.8387,,0 / 22,2903,2014-12-14 14:44:23:298
2.0098,-14.5211,1.1671,-0.1048,-9.8025,0.2652,1.6984,-1.5254,0.0133,-30.32,76.28,-4.8,91.26,86.31,11.01,0.0,69.429,35.17839,126.90839,,NaN,,154.8387,,0 / 22,2953,2014-12-14 14:44:23:348
1.4351,-11.0534,0.305,0.1845,-9.7992,0.3344,1.4516,-3.7665,0.4799,-25.95,76.28,2.95,68.33,88.33,21.57,0.0,69.429,35.17839,126.90839,,NaN,,154.8387,,0 / 22,3003,2014-12-14 14:44:23:398
1.3393,-9.9614,-1.0552,0.349,-9.8004,0.0346,0.3194,0.8084,-1.583,-22.26,78.09,8.51,111.41,87.66,-50.85,0.0,69.429,35.17839,126.90839,,NaN,,154.8387,,0 / 22,3053,2014-12-14 14:44:23:448
1.4351,-9.7124,-1.2468,0.4175,-9.7977,-0.0388,0.9657,-0.2982,-1.0193,-18.95,78.09,15.64,111.41,87.66,-50.85,0.0,69.429,35.17839,126.90839,,NaN,,154.8387,,0 / 22,3103,2014-12-14 14:44:23:498
-0.5382,-8.9077,0.3433,0.6181,-9.7824,-0.3065,0.1819,0.8189,-0.5042,-14.51,77.34,24.39,131.47,87.55,-95.3,0.0,69.429,35.17839,126.90839,,NaN,,154.8387,,0 / 22,3153,2014-12-14 14:44:23:548
-0.4233,-10.0189,0.9947,0.5283,-9.7893,-0.2462,-1.2568,0.4891,0.8379,-11.57,76.65,26.51,132.49,85.97,-116.38,0.0,69.429,35.17839,126.90839,,NaN,,154.8387,,0 / 22,3203,2014-12-14 14:44:23:598
-0.155,-9.2334,0.5732,0.2534,-9.803,0.0869,-0.431,0.2869,0.3853,-4.57,74.78,33.39,93.93,88.09,-89.61,0.0,69.429,35.17839,126.90839,,NaN,,154.8387,,0 / 22,3253,2014-12-14 14:44:23:648
3.1593,-12.4711,-0.5571,0.2544,-9.8033,0.029,1.4303,-1.2031,-1.5954,-0.51,72.96,35.2,93.93,88.09,-89.61,0.0,69.86,35.17839,126.90839,,NaN,,154.8387,,0 / 22,3303,2014-12-14 14:44:23:698
3.8107,-15.6514,1.3587,0.8739,-9.7676,-0.0171,2.6325,-3.7926,0.4491,2.05,71.84,36.83,95.3,86.81,-104.59,0.0,69.86,35.17839,126.90839,,NaN,,154.8387,,0 / 22,3353,2014-12-14 14:44:23:748
-0.3849,-16.9542,4.3283,1.1142,-9.7431,0.0393,4.3062,-5.8812,0.8692,0.99,72.21,33.58,73.01,83.47,-87.98,0.0,69.86,35.17839,126.90839,,NaN,,154.8387,,0 / 22,3403,2014-12-14 14:44:23:798
1.0519,-14.4061,6.1483,0.9521,-9.7157,0.9323,-0.0743,-2.2251,5.336,-1.26,72.96,26.95,73.01,83.47,-87.98,0.0,69.86,35.17839,126.90839,,NaN,,154.8387,,0 / 22,3453,2014-12-14 14:44:23:848
3.1593,-17.3565,-2.7795,0.9867,-9.7172,0.8789,0.7043,-0.9995,-0.845,-9.01,72.59,15.82,41.29,82.19,-45.6,0.0,69.86,35.17839,126.90839,,NaN,,154.8387,,0 / 22,3503,2014-12-14 14:44:23:898
1.2244,-13.7547,-2.5687,0.7372,-9.7778,0.15,-1.5886,-1.6102,-2.2652,-12.7,67.09,10.51,86.33,83.32,-63.9,0.0,69.86,35.17839,126.90839,,NaN,,154.8387,,0 / 22,3553,2014-12-14 14:44:23:948
0.1323,-13.2758,-1.8982,0.7347,-9.7791,-0.0159,0.01,-0.7759,-3.1136,-19.63,61.9,-1.8,189.06,85.7,-91.24,0.0,68.129,35.17839,126.90839,,NaN,,154.8387,,0 / 22,3603,2014-12-14 14:44:23:998
-2.1284,-7.7007,-1.0552,0.4983,-9.788,-0.3428,-2.0732,3.8545,-0.597,-21.88,57.84,-5.24,189.06,85.7,-91.24,0.0,68.129,35.17839,126.90839,,NaN,,154.8387,,0 / 22,3653,2014-12-14 14:44:24:048
-2.6648,-5.4592,-0.5571,0.36,-9.7928,-0.3778,-2.67,4.7587,-0.4453,-25.57,53.09,-12.49,241.83,86.46,-124.52,0.0,68.129,35.17839,126.90839,,NaN,,154.8387,,0 / 22,3703,2014-12-14 14:44:24:098
-2.9522,-2.2215,-2.0131,-0.2819,-9.7854,-0.5806,-2.5504,7.6025,-1.0471,-26.63,51.21,-14.67,295.52,87.47,-172.71,0.0,68.129,35.17839,126.90839,,NaN,,154.8387,,0 / 22,3753,2014-12-14 14:44:24:148
-3.2778,-0.6122,-2.8561,-0.4809,-9.7686,-0.7173,-2.5677,7.8035,-1.4657,-24.82,48.28,-19.11,343.24,84.95,146.16,0.0,68.129,35.17839,126.90839,,NaN,,154.8387,,0 / 22,3803,2014-12-14 14:44:24:198
-5.0021,-2.6813,7.9875,-1.775,-9.4795,-1.7773,-4.283,7.7116,-2.7901,-24.07,47.15,-17.24,343.24,84.95,146.16,0.0,68.129,35.17839,126.90839,,NaN,,154.8387,,0 / 22,3853,2014-12-14 14:44:24:248
3.2551,-20.6134,1.148,-1.9317,-9.5712,-0.9111,-1.1006,2.0573,9.7891,-19.63,48.28,-11.11,351.26,75.16,135.04,0.0,68.129,35.17839,126.90839,,NaN,,154.8387,,0 / 22,3903,2014-12-14 14:44:24:298
-3.7377,-5.9956,-1.879,-0.3148,-9.799,0.2258,-0.599,-1.2508,-1.9067,-18.95,49.03,-6.74,21.74,85.79,84.76,0.0,70.503,35.17839,126.90839,,NaN,,154.8387,,0 / 22,3953,2014-12-14 14:44:24:348
1.8566,-11.3216,-0.059,-0.5693,-9.7897,0.088,-3.3659,3.7274,-1.968,-15.26,50.15,0.2,7.36,86.63,81.21,0.0,70.503,35.17839,126.90839,,NaN,,154.8387,,0 / 22,4003,2014-12-14 14:44:24:398
2.5271,-10.0764,0.4008,0.1251,-9.8053,0.0996,2.9936,-2.5254,0.543,-13.38,50.09,1.76,7.36,86.63,81.21,0.0,70.503,35.17839,126.90839,,NaN,,154.8387,,0 / 22,4053,2014-12-14 14:44:24:448
0.9944,-8.218,0.1518,0.2601,-9.8026,0.1092,1.9671,0.6754,0.1342,-11.2,52.34,9.89,111.62,89.07,-51.49,0.0,70.503,35.17839,126.90839,,NaN,,154.8387,,0 / 22,4103,2014-12-14 14:44:24:498
0.8412,-8.5245,-0.9211,0.3578,-9.7997,0.0906,0.4936,1.7144,0.0846,-9.32,50.09,12.83,103.83,87.84,-75.79,0.0,70.503,35.17839,126.90839,,NaN,,154.8387,,0 / 22,4153,2014-12-14 14:44:24:548
2.3164,-8.8119,-1.1127,0.4387,-9.7968,-0.0367,0.6179,0.8768,-0.9748,-7.51,50.84,16.95,103.83,87.84,-75.79,0.0,70.503,35.17839,126.90839,,NaN,,154.8387,,0 / 22,4203,2014-12-14 14:44:24:598
-1.1321,-10.1147,1.8568,0.6397,-9.7856,-0.0519,-1.4972,-0.1922,1.6744,-3.45,50.84,22.33,109.46,87.43,-94.78,0.0,70.503,35.17839,126.90839,,NaN,,154.8387,,0 / 22,4253,2014-12-14 14:44:24:648
-0.1742,-9.9039,0.5732,0.5029,-9.7932,0.1035,-1.8807,-0.3492,2.1532,-1.63,51.59,24.08,91.26,86.25,-94.64,0.0,70.12,35.17839,126.90839,,NaN,,154.8387,,0 / 22,4303,2014-12-14 14:44:24:698
2.8911,-11.2067,-2.2047,0.6344,-9.7861,0.0029,1.7689,-0.8535,-1.5792,1.68,49.03,24.58,60.07,87.3,-69.19,0.0,70.12,35.17839,126.90839,,NaN,,154.8387,,0 / 22,4353,2014-12-14 14:44:24:748
0.458,-11.0534,-2.9136,0.7661,-9.7757,-0.1411,1.9615,-1.3409,-2.0386,4.3,49.03,24.39,60.07,87.3,-69.19,0.0,70.12,35.17839,126.90839,,NaN,,154.8387,,0 / 22,4403,2014-12-14 14:44:24:798
-1.6877,-14.023,-1.8599,0.6015,-9.78,-0.4005,-2.0571,-3.2449,-1.4874,5.74,47.9,22.76,76.84,85.44,-100.44,0.0,70.12,35.17839,126.90839,,NaN,,154.8387,,0 / 22,4453,2014-12-14 14:44:24:848
0.2664,-11.8198,2.5274,0.2952,-9.7904,-0.4807,-1.9467,-3.3791,-1.4164,6.87,47.53,23.7,99.33,85.77,-123.66,0.0,70.12,35.17839,126.90839,,NaN,,154.8387,,0 / 22,4504,2014-12-14 14:44:24:899
3.6383,-9.7124,1.6461,0.1339,-9.7956,-0.4453,-0.8909,-2.331,1.9225,9.43,48.65,21.2,99.33,85.77,-123.66,0.0,70.12,35.17839,126.90839,,NaN,,154.8387,,0 / 22,4553,2014-12-14 14:44:24:948
-0.3083,-12.0305,-2.358,1.0301,-9.7516,-0.1261,7.4442,-0.7619,-0.7416,6.87,49.4,14.89,134.55,87.28,-163.27,0.0,70.12,35.17839,126.90839,,NaN,,154.8387,,0 / 22,4603,2014-12-14 14:44:24:998
-4.6956,-10.4978,-2.7795,1.0228,-9.748,-0.3171,-3.7785,-0.2203,-2.1187,6.49,48.65,12.64,55.03,83.93,-96.98,0.0,67.489,35.17839,126.90839,,NaN,,154.8387,,0 / 22,4653,2014-12-14 14:44:25:048
-1.1513,-8.6203,-2.0898,0.2134,-9.7609,-0.9217,-2.924,2.4348,-3.7887,5.37,46.46,7.51,94.72,85.45,-149.47,0.0,67.489,35.17839,126.90839,,NaN,,154.8387,,0 / 22,4703,2014-12-14 14:44:25:098
-2.3774,-7.854,-1.4575,0.0285,-9.7423,-1.1215,-1.3855,2.1085,-0.4311,3.93,47.9,4.58,94.72,85.45,-149.47,0.0,67.489,35.17839,126.90839,,NaN,,154.8387,,0 / 22,4753,2014-12-14 14:44:25:148
-3.3353,-6.2639,-2.5496,-0.3529,-9.7244,-1.2176,-3.4159,2.8791,-0.4926,3.55,47.53,3.64,68.44,83.43,-178.54,0.0,67.489,35.17839,126.90839,,NaN,,154.8387,,0 / 22,4806,2014-12-14 14:44:25:201
-2.9713,-4.8078,-3.2967,-0.8566,-9.6673,-1.407,-3.0775,3.0564,-1.1493,2.05,48.65,3.01,68.44,83.43,-178.54,0.0,67.489,35.17839,126.90839,,NaN,,154.8387,,0 / 22,4853,2014-12-14 14:44:25:248
-2.7414,-5.4209,-4.7144,-1.5339,-9.4719,-2.0252,-1.6162,4.2082,-2.1661,3.55,48.28,4.39,353.12,76.63,142.82,0.0,67.489,35.17839,126.90839,,NaN,,154.8387,,0 / 22,4904,2014-12-14 14:44:25:299
0.9561,-8.8885,-1.0552,-1.7217,-9.321,-2.5151,-0.1556,2.0878,-2.5554,4.3,49.03,6.51,348.21,74.99,142.86,0.0,66.396,35.17839,126.90839,,NaN,,154.8387,,0 / 22,4953,2014-12-14 14:44:25:348
-12.8187,-2.3747,-5.998,-0.5946,-9.7882,-0.0927,-5.4596,1.3283,2.6205,6.49,51.21,8.51,172.84,83.72,149.74,0.0,66.396,35.17839,126.90839,,NaN,,154.8387,,0 / 22,5029,2014-12-14 14:44:25:424
-3.2778,-9.0801,-3.3351,-1.3785,-9.7067,-0.225,-2.0654,2.8297,0.1877,6.49,50.46,8.76,172.84,83.72,149.74,0.0,66.396,35.17839,126.90839,,NaN,,154.8387,,0 / 22,5053,2014-12-14 14:44:25:448
4.5196,-12.7202,1.2629,-1.0167,-9.7494,-0.2931,5.5526,-3.1242,1.3455,6.49,49.78,10.76,267.14,81.81,99.27,0.0,66.396,35.17839,126.90839,,NaN,,154.8387,,0 / 22,5103,2014-12-14 14:44:25:498
0.8987,-8.9269,-0.423,-0.7819,-9.7737,-0.1829,0.0985,0.0132,0.7963,7.24,50.46,10.33,238.61,85.3,103.16,0.0,66.396,35.17839,126.90839,,NaN,,154.8387,,0 / 22,5153,2014-12-14 14:44:25:548
1.4351,-10.3446,1.3013,-0.5647,-9.7894,-0.139,0.7424,0.1211,0.9161,6.49,50.46,11.58,238.61,85.3,103.16,0.0,66.396,35.17839,126.90839,,NaN,,154.8387,,0 / 22,5203,2014-12-14 14:44:25:598
1.1669,-10.0189,0.3817,-0.3727,-9.7995,0.0262,1.6473,-0.5844,1.1354,7.24,50.15,11.76,236.19,86.6,103.83,0.0,66.396,35.17839,126.90839,,NaN,,154.8387,,0 / 22,5253,2014-12-14 14:44:25:648
-0.4233,-9.3867,0.42,-0.1504,-9.8053,0.0643,0.538,0.3681,0.2207,7.62,49.78,12.89,256.35,88.86,75.67,0.0,68.876,35.17839,126.90839,,NaN,,154.8387,,0 / 22,5303,2014-12-14 14:44:25:698
-0.2317,-9.674,-0.2314,-0.205,-9.8038,0.1215,-0.5416,0.0447,0.4097,6.87,49.78,12.45,256.35,88.86,75.67,0.0,68.876,35.17839,126.90839,,NaN,,154.8387,,0 / 22,5353,2014-12-14 14:44:25:748
-0.0401,-9.4058,-0.5954,-0.2045,-9.8045,0.0264,0.1202,0.245,-0.6988,6.87,49.4,11.2,273.62,88.61,59.35,0.0,68.876,35.17839,126.90839,,NaN,,154.8387,,0 / 22,5403,2014-12-14 14:44:25:798
-0.0784,-9.6549,-0.2697,-0.1982,-9.8046,-0.0332,-0.0308,0.0745,-0.3527,6.87,49.4,11.51,233.57,88.83,99.51,0.0,68.876,35.17839,126.90839,,NaN,,154.8387,,0 / 22,5453,2014-12-14 14:44:25:848
0.0748,-9.6166,-0.1356,-0.1607,-9.8052,-0.0532,0.2193,0.0121,0.0099,6.49,49.03,11.95,229.45,88.92,106.99,0.0,68.876,35.17839,126.90839,,NaN,,154.8387,,0 / 22,5503,2014-12-14 14:44:25:898
0.1515,-9.5399,-0.5188,-0.1267,-9.8056,-0.068,0.245,0.0272,-0.1023,6.87,49.03,11.26,229.45,88.92,106.99,0.0,68.876,35.17839,126.90839,,NaN,,154.8387,,0 / 22,5553,2014-12-14 14:44:25:948
-0.021,-9.8656,0.056,-0.0898,-9.8054,-0.1282,0.1666,-0.232,-0.0743,6.49,50.84,11.89,217.06,89.16,118.22,0.0,68.876,35.17839,126.90839,,NaN,,154.8387,,0 / 22,5603,2014-12-14 14:44:25:998
0.3622,-9.5782,-0.4805,-0.0895,-9.8056,-0.1085,0.0336,-0.1341,0.1124,6.49,50.84,12.64,195.53,89.18,140.48,0.0,60.94,35.17839,126.90839,,NaN,,154.8387,,0 / 22,5653,2014-12-14 14:44:26:048
0.1132,-9.4441,-0.7295,-0.0249,-9.8052,-0.166,0.1996,0.2754,-0.5383,6.87,51.59,12.14,195.53,89.18,140.48,0.0,60.94,35.17839,126.90839,,NaN,,154.8387,,0 / 22,5703,2014-12-14 14:44:26:098
0.0174,-9.7507,-0.3272,-0.0178,-9.804,-0.2268,-0.0043,0.0371,-0.3257,6.87,49.4,12.83,154.43,89.02,171.47,0.0,60.94,35.17839,126.90839,,NaN,,154.8387,,0 / 22,5753,2014-12-14 14:44:26:148
0.0174,-9.4633,-0.4038,-0.0206,-9.8035,-0.2485,-0.1028,0.184,-0.2186,6.49,49.78,12.2,154.48,88.64,176.77,0.0,60.94,35.17839,126.90839,,NaN,,154.8387,,0 / 22,5803,2014-12-14 14:44:26:198
0.1706,-9.425,-1.2851,0.0142,-9.7993,-0.3781,0.3712,0.1803,-1.3186,6.49,49.4,13.39,149.17,87.79,-177.85,0.0,60.94,35.17839,126.90839,,NaN,,154.8387,,0 / 22,5853,2014-12-14 14:44:26:248
-0.0976,-9.8656,-0.787,0.0666,-9.7924,-0.524,0.2394,-0.1563,-0.5358,6.87,49.03,13.83,149.17,87.79,-177.85,0.0,60.94,35.17839,126.90839,,NaN,,154.8387,,0 / 22,5903,2014-12-14 14:44:26:298
-0.2508,-9.7315,-0.4613,-0.0109,-9.791,-0.554,-0.6568,-0.1297,-0.0607,8.68,49.4,15.58,138.77,86.91,-172.76,0.0,65.75,35.17839,126.90839,,NaN,,154.8387,,0 / 22,5953,2014-12-14 14:44:26:348
0.094,-9.7507,-0.6146,-0.0551,-9.7909,-0.5535,-0.2527,0.0387,-0.0766,7.24,49.78,14.51,154.63,86.79,176.16,0.0,65.75,35.17839,126.90839,,NaN,,154.8387,,0 / 22,6003,2014-12-14 14:44:26:398
0.1515,-9.7124,0.4966,0.042,-9.7901,-0.5675,0.8589,-0.201,-0.1113,7.24,50.15,16.08,146.89,86.67,-175.77,0.0,65.75,35.17839,126.90839,,NaN,,154.8387,,0 / 22,6053,2014-12-14 14:44:26:448
-0.3083,-9.5208,-0.8253,0.0805,-9.793,-0.5119,-0.0553,0.1627,-0.1061,7.24,49.03,15.2,146.89,86.67,-175.77,0.0,65.75,35.17839,126.90839,,NaN,,154.8387,,0 / 22,6103,2014-12-14 14:44:26:498