ACCELEROMETER X (m/s²),ACCELEROMETER Y (m/s²),ACCELEROMETER Z (m/s²),GRAVITY X (m/s²),GRAVITY Y (m/s²),GRAVITY Z (m/s²),LINEAR ACCELERATION X (m/s²),LINEAR ACCELERATION Y (m/s²),LINEAR ACCELERATION Z (m/s²),MAGNETIC FIELD X (μT),MAGNETIC FIELD Y (μT),MAGNETIC FIELD Z (μT),ORIENTATION X (°),ORIENTATION Y (°),ORIENTATION Z (°),PROXIMITY (i),SOUND LEVEL (dB),LOCATION Latitude : ,LOCATION Longitude : ,LOCATION Altitude ( m),LOCATION Altitude-google ( m),LOCATION Speed ( Kmh),LOCATION Accuracy ( m),LOCATION ORIENTATION (°),Satellites in range,Time since start in ms ,YYYY-MO-DD HH-MI-SS_SSS
-0.155,-10.2296,1.6461,-0.3428,-9.8001,-0.1024,0.2052,-0.4458,1.6153,-3.82,52.71,10.51,262.9,87.13,130.11,0.0,63.521,35.17821,126.90864,,NaN,,125.80645,,0 / 22,4,2014-12-14 14:44:50:040
0.8412,-10.6128,1.8568,-0.3319,-9.801,0.0117,0.1357,-0.4731,1.5835,-2.7,54.15,10.14,262.9,87.13,130.11,0.0,63.521,35.17821,126.90864,,NaN,,125.80645,,0 / 22,54,2014-12-14 14:44:50:090
2.3547,-11.0534,2.9489,-0.173,-9.8017,0.2574,1.5141,-0.8954,1.8204,-3.07,53.09,8.33,302.75,88.06,87.97,0.0,63.521,35.17821,126.90864,,NaN,,125.80645,,0 / 22,105,2014-12-14 14:44:50:141
4.5579,-12.6053,5.9759,0.9222,-9.6671,1.3666,3.7335,-2.0292,4.2989,-5.7,55.65,7.2,42.87,84.39,-26.03,0.0,63.521,35.17821,126.90864,,NaN,,125.80645,,0 / 22,154,2014-12-14 14:44:50:190
1.8757,-14.1762,2.4316,1.0523,-9.635,1.4935,0.7134,-3.3674,0.6112,-7.51,56.4,4.2,42.87,84.39,-26.03,0.0,63.521,35.17821,126.90864,,NaN,,125.80645,,0 / 22,204,2014-12-14 14:44:50:240
1.0136,-12.0497,0.1901,1.0413,-9.6719,1.2408,-0.6361,-0.7942,-1.0907,-11.57,56.4,-0.67,75.41,79.51,-36.8,0.0,63.521,35.17821,126.90864,,NaN,,125.80645,,0 / 22,255,2014-12-14 14:44:50:291
-0.5574,-11.2259,1.627,0.8539,-9.6917,1.2295,-1.5129,0.1054,0.2654,-14.13,57.15,-3.24,75.41,79.51,-36.8,0.0,63.552,35.17821,126.90864,,NaN,,125.80645,,0 / 22,304,2014-12-14 14:44:50:340
-0.9597,-8.3138,2.5274,0.7624,-9.6921,1.2858,-1.6007,1.4574,0.7183,-16.7,57.15,-8.3,128.12,81.22,-34.78,0.0,63.552,35.17821,126.90864,,NaN,,125.80645,,0 / 22,355,2014-12-14 14:44:50:391
-0.4041,-6.2639,1.5886,0.4623,-9.6749,1.5337,-0.9248,3.697,0.0144,-20.76,53.78,-14.86,133.55,80.89,-22.37,0.0,63.552,35.17821,126.90864,,NaN,,125.80645,,0 / 22,404,2014-12-14 14:44:50:440
-0.8639,-4.2714,0.9947,0.4164,-9.6714,1.5685,-0.8492,4.1307,-0.1498,-23.01,53.84,-16.93,133.55,80.89,-22.37,0.0,63.552,35.17821,126.90864,,NaN,,125.80645,,0 / 22,454,2014-12-14 14:44:50:490
0.1132,-3.371,1.4354,0.2414,-9.6502,1.7277,-1.1283,5.1199,-0.4939,-23.32,52.71,-17.86,128.89,80.47,-14.87,0.0,63.552,35.17821,126.90864,,NaN,,125.80645,,0 / 22,504,2014-12-14 14:44:50:540
-0.155,-4.0798,1.627,0.2545,-9.6381,1.7923,0.0436,4.5927,-0.0373,-24.07,54.9,-14.24,107.3,79.36,-8.08,0.0,63.552,35.17821,126.90864,,NaN,,125.80645,,0 / 22,554,2014-12-14 14:44:50:590
5.7649,-14.5594,0.8798,0.9798,-9.2911,2.9808,7.5405,-6.4017,3.4961,-23.01,57.15,-10.49,107.3,79.36,-8.08,0.0,69.202,35.17821,126.90864,,NaN,,125.80645,,0 / 22,604,2014-12-14 14:44:50:640
0.6113,-8.4862,-1.0169,0.8388,-9.3679,2.7767,-1.3579,-4.9053,-1.3026,-19.32,60.09,-4.3,73.58,71.34,-18.2,0.0,69.202,35.17821,126.90864,,NaN,,125.80645,,0 / 22,654,2014-12-14 14:44:50:690
2.2589,-12.8351,0.9181,0.9538,-9.5443,2.0413,1.2969,-5.4333,-2.2211,-17.07,60.46,-0.67,57.93,74.76,-17.25,0.0,69.202,35.17821,126.90864,,NaN,,125.80645,,0 / 22,704,2014-12-14 14:44:50:740
2.0673,-9.0418,1.5695,1.0073,-9.5705,1.8872,1.093,-3.7434,-1.4559,-13.38,60.84,7.2,47.86,77.4,-28.09,0.0,69.202,35.17821,126.90864,,NaN,,125.80645,,0 / 22,754,2014-12-14 14:44:50:790
1.7416,-11.0151,0.5924,0.8638,-9.6319,1.6279,-0.3333,-0.8029,-1.1832,-13.01,60.78,8.76,47.86,77.4,-28.09,0.0,69.202,35.17821,126.90864,,NaN,,125.80645,,0 / 22,804,2014-12-14 14:44:50:840
0.1515,-10.2105,0.4391,0.9073,-9.6407,1.5503,0.7079,-1.1667,-0.9198,-8.63,58.21,15.2,39.57,79.17,-27.95,0.0,69.202,35.17821,126.90864,,NaN,,125.80645,,0 / 22,854,2014-12-14 14:44:50:890
1.2244,-8.5629,-1.5342,0.735,-9.7276,1.0022,-0.2789,0.8672,-2.6938,-6.01,58.21,16.58,33.87,80.68,-31.04,0.0,69.202,35.17821,126.90864,,NaN,,125.80645,,0 / 22,904,2014-12-14 14:44:50:940
2.4696,-8.1031,-1.4958,0.7873,-9.739,0.8385,0.6265,1.0955,-2.3873,-1.63,57.84,21.76,37.7,83.26,-43.2,0.0,69.47,35.17821,126.90864,,NaN,,125.80645,,0 / 22,954,2014-12-14 14:44:50:990
2.4505,-9.0993,0.305,1.2439,-9.7159,0.4739,1.1535,0.5028,-0.6072,-0.13,55.65,25.39,37.7,83.26,-43.2,0.0,69.47,35.17821,126.90864,,NaN,,125.80645,,0 / 22,1004,2014-12-14 14:44:51:040
1.5692,-9.9422,1.3013,1.3168,-9.7071,0.4561,0.9622,0.2681,-0.247,3.18,54.15,27.26,51.32,82.2,-69.14,0.0,69.47,35.17821,126.90864,,NaN,,125.80645,,0 / 22,1054,2014-12-14 14:44:51:090
0.3431,-10.9768,-1.266,1.0908,-9.7329,0.5005,-0.8884,-1.4921,-1.1391,3.93,53.09,28.51,48.02,81.76,-66.76,0.0,69.47,35.17821,126.90864,,NaN,,125.80645,,0 / 22,1104,2014-12-14 14:44:51:140
0.209,-10.4021,-3.2776,1.0371,-9.7465,0.3181,-0.6632,-0.9545,-2.5029,7.24,52.71,30.76,52.0,83.65,-72.95,0.0,69.47,35.17821,126.90864,,NaN,,125.80645,,0 / 22,1154,2014-12-14 14:44:51:190
3.5425,-18.3719,2.4891,0.4926,-9.7892,-0.3154,0.443,-7.2769,1.3509,9.8,51.21,30.76,52.0,83.65,-72.95,0.0,69.47,35.17821,126.90864,,NaN,,125.80645,,0 / 22,1204,2014-12-14 14:44:51:240
4.5579,-16.7626,5.1521,0.7836,-9.7751,-0.0621,5.0003,-6.8916,3.8109,9.05,51.59,31.64,100.13,86.58,-122.63,0.0,67.411,35.17821,126.90864,,NaN,,125.80645,,0 / 22,1254,2014-12-14 14:44:51:290
5.6882,-14.5211,1.3587,1.557,-9.6294,1.0101,3.9993,-2.0074,2.1995,7.62,54.15,29.39,39.79,82.69,-63.42,0.0,67.411,35.17821,126.90864,,NaN,,125.80645,,0 / 22,1304,2014-12-14 14:44:51:340
2.2014,-16.5327,-1.2085,1.7036,-9.6173,0.8811,3.1855,-3.265,-1.9415,4.3,60.84,22.7,35.8,78.72,-62.65,0.0,67.411,35.17821,126.90864,,NaN,,125.80645,,0 / 22,1354,2014-12-14 14:44:51:390
0.1132,-14.4061,-3.3159,1.2327,-9.7288,-0.0324,-1.6884,-0.9974,-3.9125,-0.51,64.84,18.89,35.8,78.72,-62.65,0.0,67.411,35.17821,126.90864,,NaN,,125.80645,,0 / 22,1404,2014-12-14 14:44:51:440
-0.1167,-13.4482,-1.9557,1.1111,-9.7427,-0.1261,-2.2052,-1.2248,-1.7948,-13.01,68.15,2.33,77.32,82.78,-91.51,0.0,67.411,35.17821,126.90864,,NaN,,125.80645,,0 / 22,1454,2014-12-14 14:44:51:490
-4.0633,-6.9727,-0.7487,0.4616,-9.7895,-0.3501,-4.4501,5.2208,-0.4274,-18.57,68.15,-4.3,220.7,84.62,-106.3,0.0,67.411,35.17821,126.90864,,NaN,,125.80645,,0 / 22,1504,2014-12-14 14:44:51:540
-4.9829,-2.9686,-2.0706,0.2051,-9.7966,-0.3937,-4.721,6.3301,-0.5204,-27.01,64.53,-17.86,281.27,87.41,-152.48,0.0,67.411,35.17821,126.90864,,NaN,,125.80645,,0 / 22,1554,2014-12-14 14:44:51:590
-3.412,0.863,-5.5766,-0.8439,-9.6883,-1.2633,-2.6817,9.9744,-3.9043,-28.13,64.09,-21.3,281.27,87.41,-152.48,0.0,71.371,35.17821,126.90864,,NaN,,125.80645,,0 / 22,1604,2014-12-14 14:44:51:640
-3.412,1.2845,-7.5882,-1.0692,-9.5914,-1.7416,-2.0795,10.1275,-4.8998,-27.01,65.59,-16.99,343.88,81.09,146.26,0.0,71.371,35.17821,126.90864,,NaN,,125.80645,,0 / 22,1654,2014-12-14 14:44:51:690
11.4549,-14.1762,13.3518,-1.3617,-9.4824,-2.0979,0.1219,5.2014,4.2258,-24.45,70.03,-11.42,340.26,75.22,147.01,0.0,71.371,35.17821,126.90864,,NaN,,125.80645,,0 / 22,1704,2014-12-14 14:44:51:740
-2.1667,-6.8003,-2.2813,-0.3859,-9.7943,-0.3038,1.3047,-10.5317,4.6426,-19.32,72.59,-2.36,332.78,87.13,128.22,0.0,71.371,35.17821,126.90864,,NaN,,125.80645,,0 / 22,1754,2014-12-14 14:44:51:790
0.822,-10.3637,-0.6146,-0.5469,-9.7749,-0.5679,-1.1777,2.7715,-1.7628,-16.7,71.09,3.2,332.78,87.13,128.22,0.0,71.371,35.17821,126.90864,,NaN,,125.80645,,0 / 22,1804,2014-12-14 14:44:51:840
2.3738,-10.3829,-0.2122,-0.0117,-9.7885,-0.5968,2.9848,-2.8279,-0.1196,-10.82,71.09,14.01,273.08,86.25,159.32,0.0,71.371,35.17821,126.90864,,NaN,,125.80645,,0 / 22,1854,2014-12-14 14:44:51:890
0.2281,-9.4441,1.3013,0.3255,-9.7904,-0.4603,0.6573,0.8834,0.2029,-9.38,70.4,18.51,180.22,86.33,-154.83,0.0,71.371,35.17821,126.90864,,NaN,,125.80645,,0 / 22,1905,2014-12-14 14:44:51:941
-0.27,-9.1759,1.0905,0.3082,-9.7955,-0.3512,-0.2602,0.4691,1.5596,-6.76,68.9,21.76,180.22,86.33,-154.83,0.0,70.952,35.17821,126.90864,,NaN,,125.80645,,0 / 22,1954,2014-12-14 14:44:51:990
1.1286,-9.4633,1.2821,0.2005,-9.8025,-0.2027,-0.8522,0.8291,0.8071,-3.45,67.84,25.7,140.79,87.27,-138.73,0.0,70.952,35.17821,126.90864,,NaN,,125.80645,,0 / 22,2004,2014-12-14 14:44:52:040
1.0519,-9.9997,0.5349,0.2568,-9.8033,-0.0245,0.79,0.306,1.34,-2.7,66.34,29.82,140.79,87.27,-138.73,0.0,70.952,35.17821,126.90864,,NaN,,125.80645,,0 / 22,2054,2014-12-14 14:44:52:090
1.0328,-9.425,0.3242,0.452,-9.7946,0.1766,0.6862,-0.0965,0.3244,4.62,64.46,32.39,88.83,88.49,-95.46,0.0,70.952,35.17821,126.90864,,NaN,,125.80645,,0 / 22,2104,2014-12-14 14:44:52:140
0.7645,-11.5515,-1.8407,0.4188,-9.7977,-0.032,-0.5095,0.0371,-1.8616,7.24,62.65,34.95,53.36,87.16,-68.66,0.0,70.952,35.17821,126.90864,,NaN,,125.80645,,0 / 22,2159,2014-12-14 14:44:52:195
1.9524,-12.6819,-0.787,0.4709,-9.7928,-0.2247,1.1798,-2.407,-0.63,12.74,61.53,37.64,91.9,86.95,-115.51,0.0,70.952,35.17821,126.90864,,NaN,,125.80645,,0 / 22,2204,2014-12-14 14:44:52:240
3.485,-18.4102,4.5773,0.4964,-9.7864,-0.3888,-0.1819,-3.8547,-0.7599,14.62,62.65,37.08,91.9,86.95,-115.51,0.0,70.952,35.17821,126.90864,,NaN,,125.80645,,0 / 22,2254,2014-12-14 14:44:52:290
2.9677,-16.9733,6.8763,0.6988,-9.7784,-0.2542,2.3724,-6.7017,2.8903,14.62,62.65,37.83,100.91,86.31,-128.07,0.0,68.915,35.17821,126.90864,,NaN,,125.80645,,0 / 22,2304,2014-12-14 14:44:52:340
3.9257,-14.3678,-0.8253,1.2468,-9.6998,0.7274,5.1189,-1.4764,4.6462,9.05,71.84,29.39,37.91,83.71,-64.19,0.0,68.915,35.17821,126.90864,,NaN,,125.80645,,0 / 22,2354,2014-12-14 14:44:52:390
-1.0363,-17.299,-3.9098,1.3226,-9.7086,0.405,-1.424,-4.0815,-3.5996,2.05,78.09,22.51,37.91,83.71,-64.19,0.0,68.915,35.17821,126.90864,,NaN,,125.80645,,0 / 22,2404,2014-12-14 14:44:52:440
-0.9597,-12.8351,-2.9136,1.0474,-9.7505,0.04,-1.5264,-1.4087,-2.8758,-6.76,82.15,16.26,61.1,81.89,-72.98,0.0,68.915,35.17821,126.90864,,NaN,,125.80645,,0 / 22,2454,2014-12-14 14:44:52:490
-0.8831,-8.6778,-1.4958,0.7956,-9.7692,-0.3154,-1.707,2.9181,-1.5683,-24.45,79.21,-2.67,219.27,84.99,-111.63,0.0,68.915,35.17821,126.90864,,NaN,,125.80645,,0 / 22,2504,2014-12-14 14:44:52:540
-2.9522,-6.9536,-0.7104,0.5343,-9.7839,-0.4011,-3.0951,4.867,-0.4127,-31.07,75.15,-9.67,219.27,84.99,-111.63,0.0,68.915,35.17821,126.90864,,NaN,,125.80645,,0 / 22,2554,2014-12-14 14:44:52:590
-3.7951,-2.3939,-1.879,0.1158,-9.7973,-0.4125,-3.872,5.7005,0.3304,-38.82,68.53,-21.3,286.35,87.5,-164.32,0.0,68.915,35.17821,126.90864,,NaN,,125.80645,,0 / 22,2604,2014-12-14 14:44:52:640
-3.6227,-0.6696,-3.9673,-0.6096,-9.7607,-0.7259,-3.0731,8.1431,-2.0552,-42.13,61.53,-26.43,337.53,86.14,146.04,0.0,71.482,35.17821,126.90864,,NaN,,125.80645,,0 / 22,2655,2014-12-14 14:44:52:691
-1.5345,-4.7312,5.2095,-1.1244,-9.6398,-1.4075,-2.6313,8.5796,-4.3455,-42.88,63.4,-25.42,337.53,86.14,146.04,0.0,71.482,35.17821,126.90864,,NaN,,125.80645,,0 / 22,2705,2014-12-14 14:44:52:741
-3.2395,-17.299,-5.7682,-1.1467,-9.6835,-1.0415,3.4485,-7.199,3.458,-41.01,64.84,-21.99,341.27,79.41,141.38,0.0,71.482,35.17821,126.90864,,NaN,,125.80645,,0 / 22,2754,2014-12-14 14:44:52:790
-1.5345,-8.2946,-1.994,-0.6975,-9.7642,-0.5869,3.9378,-9.6486,3.9235,-34.76,69.65,-6.49,334.14,84.67,130.08,0.0,71.482,35.17821,126.90864,,NaN,,125.80645,,0 / 22,2804,2014-12-14 14:44:52:840
0.6304,-10.517,0.1901,-0.6344,-9.7645,-0.6497,0.4258,1.0584,0.5605,-33.32,72.59,-2.3,334.14,84.67,130.08,0.0,71.482,35.17821,126.90864,,NaN,,125.80645,,0 / 22,2854,2014-12-14 14:44:52:890
2.9294,-12.452,1.2629,-0.3478,-9.7843,-0.5629,2.4352,-2.7956,0.4646,-27.38,74.78,6.64,310.59,84.69,135.68,0.0,71.482,35.17821,126.90864,,NaN,,125.80645,,0 / 22,2904,2014-12-14 14:44:52:940
0.2856,-7.9689,-0.672,0.0622,-9.7974,-0.4214,0.7715,1.5699,-0.2959,-23.7,74.09,12.2,285.47,86.13,148.29,0.0,71.482,35.17821,126.90864,,NaN,,125.80645,,0 / 22,2954,2014-12-14 14:44:52:990
1.7225,-9.3483,-0.9403,0.1377,-9.7946,-0.4665,0.7027,1.2531,-0.4011,-19.32,74.46,19.14,285.47,86.13,148.29,0.0,69.857,35.17821,126.90864,,NaN,,125.80645,,0 / 22,3004,2014-12-14 14:44:53:040
0.4963,-9.425,0.8223,0.4743,-9.7853,-0.439,1.5088,0.4025,0.5021,-14.51,74.4,26.39,201.1,87.16,-163.55,0.0,69.857,35.17821,126.90864,,NaN,,125.80645,,0 / 22,3054,2014-12-14 14:44:53:090
-0.4041,-9.4633,-0.3272,0.4102,-9.7925,-0.3291,-0.9638,0.4874,0.5547,-10.45,72.96,31.08,142.36,86.93,-128.74,0.0,69.857,35.17821,126.90864,,NaN,,125.80645,,0 / 22,3104,2014-12-14 14:44:53:140
1.9715,-11.7431,-0.8828,0.2876,-9.797,-0.3268,-0.8614,0.388,6.0E-4,-7.88,70.78,33.89,142.36,86.93,-128.74,0.0,69.857,35.17821,126.90864,,NaN,,125.80645,,0 / 22,3154,2014-12-14 14:44:53:190
1.8566,-14.8085,0.2284,0.5649,-9.7814,-0.4185,1.5715,-3.6749,-0.5361,-2.01,70.78,35.39,143.73,87.46,-138.65,0.0,69.857,35.17821,126.90864,,NaN,,125.80645,,0 / 22,3206,2014-12-14 14:44:53:242
5.3625,-17.299,4.6156,0.7036,-9.7764,-0.3113,1.5577,-5.1584,0.7341,-0.13,69.28,34.08,119.16,85.89,-126.53,0.0,69.857,35.17821,126.90864,,NaN,,125.80645,,0 / 22,3255,2014-12-14 14:44:53:291
4.8836,-14.6169,7.0104,1.0832,-9.7429,0.2686,3.1117,-4.4739,5.0174,-2.38,70.4,29.82,119.16,85.89,-126.53,0.0,69.857,35.17821,126.90864,,NaN,,125.80645,,0 / 22,3304,2014-12-14 14:44:53:340
0.937,-14.7127,-0.8636,1.4634,-9.6582,0.8642,1.3865,-2.0909,-0.5395,-10.07,69.28,18.64,70.07,83.47,-76.07,0.0,69.478,35.17821,126.90864,,NaN,,125.80645,,0 / 22,3354,2014-12-14 14:44:53:390
-0.9405,-14.4636,-1.7258,1.2285,-9.7227,0.3597,-2.4897,-4.8952,-6.1043,-12.7,65.21,14.51,89.07,82.5,-73.68,0.0,69.478,35.17821,126.90864,,NaN,,125.80645,,0 / 22,3404,2014-12-14 14:44:53:440
-0.634,-14.0038,-2.9136,0.8848,-9.7662,-0.0925,-1.0192,-1.0503,-3.1765,-20.38,61.53,5.51,129.15,82.5,-73.68,0.0,69.478,35.17821,126.90864,,NaN,,125.80645,,0 / 22,3456,2014-12-14 14:44:53:492
-1.5345,-7.3559,-1.6874,0.6986,-9.7772,-0.2983,-1.9632,3.5604,-1.609,-23.7,57.46,-2.3,129.15,82.5,-73.68,0.0,69.478,35.17821,126.90864,,NaN,,125.80645,,0 / 22,3505,2014-12-14 14:44:53:541
-3.3736,-4.7504,-0.672,0.4417,-9.789,-0.3882,-2.7399,4.5964,-0.4326,-25.2,53.46,-6.49,222.96,85.56,-113.12,0.0,69.478,35.17821,126.90864,,NaN,,125.80645,,0 / 22,3554,2014-12-14 14:44:53:590
-3.776,-3.5434,-0.8828,0.0997,-9.7971,-0.4216,-3.3313,6.2733,-0.0676,-27.76,50.46,-10.49,222.96,85.56,-113.12,0.0,69.478,35.17821,126.90864,,NaN,,125.80645,,0 / 22,3604,2014-12-14 14:44:53:640
-4.14,-1.436,-1.7449,-0.3682,-9.7845,-0.546,-3.4276,8.1005,-0.8172,-29.26,47.9,-13.55,286.08,87.47,-166.69,0.0,69.478,35.17821,126.90864,,NaN,,125.80645,,0 / 22,3654,2014-12-14 14:44:53:690
-2.7031,-3.4476,6.1675,-1.556,-9.5664,-1.4942,-2.9166,8.3971,-4.077,-25.57,46.09,-14.17,348.2,77.29,133.84,0.0,70.037,35.17821,126.90864,,NaN,,125.80645,,0 / 22,3704,2014-12-14 14:44:53:740
4.1556,-15.0767,1.991,-1.3596,-9.7029,-0.4196,4.6739,-2.3104,7.9533,-24.82,45.34,-12.24,348.2,77.29,133.84,0.0,70.037,35.17821,126.90864,,NaN,,125.80645,,0 / 22,3754,2014-12-14 14:44:53:790
-2.1092,-7.6432,-3.1051,-0.6186,-9.7838,-0.2565,-1.3908,-0.0317,-2.1871,-18.95,46.84,-4.99,0.39,81.66,107.15,0.0,70.037,35.17821,126.90864,,NaN,,125.80645,,0 / 22,3808,2014-12-14 14:44:53:844
3.7724,-12.1071,-0.8636,-0.4433,-9.7868,-0.4379,2.6167,-0.8189,-0.5011,-18.57,47.9,-0.17,340.7,86.08,112.52,0.0,70.037,35.17821,126.90864,,NaN,,125.80645,,0 / 22,3854,2014-12-14 14:44:53:890
2.757,-10.5936,1.033,0.1303,-9.7989,-0.3661,3.8807,-2.8683,1.1376,-16.01,49.4,5.33,238.76,87.73,-160.41,0.0,70.037,35.17821,126.90864,,NaN,,125.80645,,0 / 22,3904,2014-12-14 14:44:53:940
0.937,-8.6012,0.7265,0.3909,-9.7963,-0.2221,1.0677,0.6503,0.7339,-15.26,50.46,7.89,238.76,87.73,-160.41,0.0,70.037,35.17821,126.90864,,NaN,,125.80645,,0 / 22,3954,2014-12-14 14:44:53:990
0.4005,-9.061,-0.1356,0.4005,-9.7979,-0.1023,-0.0408,0.2314,-0.2794,-11.57,53.09,13.58,167.45,87.37,-119.61,0.0,70.037,35.17821,126.90864,,NaN,,125.80645,,0 / 22,4004,2014-12-14 14:44:54:040
1.4734,-9.1568,0.3242,0.4704,-9.7941,-0.1586,0.7497,0.5001,-0.3649,-9.7,49.78,17.39,130.07,87.58,-104.32,0.0,70.518,35.17821,126.90864,,NaN,,125.80645,,0 / 22,4054,2014-12-14 14:44:54:090
1.1094,-10.0955,0.5732,0.5386,-9.7905,-0.1646,0.0304,0.7813,-0.3152,-7.13,50.15,20.14,130.07,87.58,-104.32,0.0,70.518,35.17821,126.90864,,NaN,,125.80645,,0 / 22,4104,2014-12-14 14:44:54:140
0.4389,-9.5016,-0.3272,0.5973,-9.7877,-0.1196,0.481,-0.5204,0.2549,-3.82,50.15,24.2,106.54,86.6,-103.82,0.0,70.518,35.17821,126.90864,,NaN,,125.80645,,0 / 22,4154,2014-12-14 14:44:54:190
0.4197,-9.9806,-1.879,0.5573,-9.7884,-0.2155,-0.2967,-0.2349,-1.0078,-3.45,49.03,24.33,106.54,86.6,-103.82,0.0,70.518,35.17821,126.90864,,NaN,,125.80645,,0 / 22,4204,2014-12-14 14:44:54:240
-0.2508,-11.724,-2.0131,0.6353,-9.7763,-0.4364,0.0668,-0.9779,-0.8106,0.99,48.65,25.08,109.35,86.51,-111.14,0.0,70.518,35.17821,126.90864,,NaN,,125.80645,,0 / 22,4254,2014-12-14 14:44:54:290
1.5883,-12.7394,-2.5112,0.5785,-9.7717,-0.5907,0.2413,-3.4579,-1.1459,2.43,46.09,25.64,112.65,85.49,-124.48,0.0,70.518,35.17821,126.90864,,NaN,,125.80645,,0 / 22,4304,2014-12-14 14:44:54:340
0.2664,-15.6514,-0.5188,0.6407,-9.7546,-0.779,0.3704,-4.1978,-1.178,3.55,47.53,25.64,112.65,85.49,-124.48,0.0,70.518,35.17821,126.90864,,NaN,,125.80645,,0 / 22,4354,2014-12-14 14:44:54:390
2.5654,-11.1492,2.604,0.2958,-9.8002,-0.1973,-0.5345,-1.3513,2.6605,5.37,46.46,21.64,117.9,84.1,-140.56,0.0,67.937,35.17821,126.90864,,NaN,,125.80645,,0 / 22,4404,2014-12-14 14:44:54:440
4.0023,-10.9193,-1.6874,0.779,-9.7743,-0.1612,3.0855,0.3744,-1.5823,3.93,46.84,17.2,105.04,87.92,-123.7,0.0,67.937,35.17821,126.90864,,NaN,,125.80645,,0 / 22,4454,2014-12-14 14:44:54:490
-3.412,-10.3254,-4.0631,0.7451,-9.7701,-0.401,-2.1773,-0.8051,-2.5757,2.8,46.46,10.95,105.04,85.05,-118.29,0.0,67.937,35.17821,126.90864,,NaN,,125.80645,,0 / 22,4504,2014-12-14 14:44:54:540
-0.2125,-8.697,-3.3159,0.3407,-9.7685,-0.7942,-2.6084,1.5063,-3.064,1.3,47.21,9.01,87.15,85.05,-118.29,0.0,67.937,35.17821,126.90864,,NaN,,125.80645,,0 / 22,4554,2014-12-14 14:44:54:590
-1.477,-8.6778,-3.3925,0.1282,-9.7311,-1.208,-1.9508,2.2852,-1.7902,-0.13,46.46,7.08,132.72,84.13,-162.53,0.0,67.937,35.17821,126.90864,,NaN,,125.80645,,0 / 22,4605,2014-12-14 14:44:54:641
-4.3507,-6.1297,-2.2622,-0.4677,-9.683,-1.4803,-3.5372,3.5558,-0.6319,-1.63,48.65,5.14,312.5,81.67,171.17,0.0,67.937,35.17821,126.90864,,NaN,,125.80645,,0 / 22,4654,2014-12-14 14:44:54:690
-4.1017,-6.0148,-2.243,-0.9803,-9.6153,-1.6601,-3.2117,3.4982,-0.7156,-2.01,47.9,3.64,312.5,81.67,171.17,0.0,67.937,35.17821,126.90864,,NaN,,125.80645,,0 / 22,4704,2014-12-14 14:44:54:740
-2.8564,-5.5742,-2.9136,-1.4556,-9.4955,-1.9714,-1.2262,3.5625,-1.1914,-0.88,48.65,5.33,342.56,78.66,149.44,0.0,67.317,35.17821,126.90864,,NaN,,125.80645,,0 / 22,4754,2014-12-14 14:44:54:790
-2.3583,-6.3022,-2.1664,-1.6053,-9.4514,-2.0652,-1.1546,2.1704,-0.3748,0.24,49.78,6.64,331.79,74.53,142.14,0.0,67.317,35.17821,126.90864,,NaN,,125.80645,,0 / 22,4804,2014-12-14 14:44:54:840
10.6119,-19.0233,6.359,-0.6697,-9.7152,-1.1561,10.3424,-7.8808,8.448,1.68,50.46,8.33,331.79,74.53,142.14,0.0,67.317,35.17821,126.90864,,NaN,,125.80645,,0 / 22,4854,2014-12-14 14:44:54:890
-3.6227,-6.5704,-2.0514,-0.5317,-9.7451,-0.9595,1.5154,-5.3192,2.0554,2.8,50.15,9.39,218.68,82.17,149.92,0.0,67.317,35.17821,126.90864,,NaN,,125.80645,,0 / 22,4908,2014-12-14 14:44:54:944
1.8183,-9.2142,-2.9519,-1.1788,-9.7352,-0.0822,-1.7223,1.411,1.2628,3.93,51.96,9.39,192.38,83.58,151.01,0.0,67.317,35.17821,126.90864,,NaN,,125.80645,,0 / 22,4954,2014-12-14 14:44:54:990
0.209,-8.8311,0.42,-0.5702,-9.7885,-0.1724,2.3099,-1.35,2.2362,4.99,52.71,11.64,249.61,83.74,112.65,0.0,67.317,35.17821,126.90864,,NaN,,125.80645,,0 / 22,5015,2014-12-14 14:44:55:051
0.9944,-9.9422,0.8798,-0.4332,-9.797,-0.0283,0.6797,0.6092,0.4723,4.62,51.96,11.33,249.61,83.74,112.65,0.0,65.569,35.17821,126.90864,,NaN,,125.80645,,0 / 22,5054,2014-12-14 14:44:55:090
0.8603,-10.1147,0.9373,-0.1622,-9.8039,0.1663,1.2423,-0.6457,1.0505,4.62,51.21,12.33,254.41,87.46,93.74,0.0,65.569,35.17821,126.90864,,NaN,,125.80645,,0 / 22,5104,2014-12-14 14:44:55:140
-0.7873,-9.1759,-0.8253,-0.1033,-9.805,0.146,0.147,0.2635,-0.3876,4.99,52.71,10.58,296.6,88.64,44.28,0.0,65.569,35.17821,126.90864,,NaN,,125.80645,,0 / 22,5154,2014-12-14 14:44:55:190
-0.2892,-9.9806,0.4583,-0.2458,-9.8035,0.0386,-0.798,-0.0573,-0.0134,5.37,51.21,11.89,288.22,89.08,52.59,0.0,65.569,35.17821,126.90864,,NaN,,125.80645,,0 / 22,5204,2014-12-14 14:44:55:240
0.2856,-9.5974,-0.2889,-0.2555,-9.8031,0.0646,0.0902,-0.2664,0.0729,4.62,53.09,11.33,288.22,89.08,52.59,0.0,65.569,35.17821,126.90864,,NaN,,125.80645,,0 / 22,5264,2014-12-14 14:44:55:300
0.1132,-9.7315,0.1901,-0.1462,-9.8056,0.0083,0.477,0.024,-0.1983,5.74,50.46,12.2,260.14,88.46,75.82,0.0,65.569,35.17821,126.90864,,NaN,,125.80645,,0 / 22,5304,2014-12-14 14:44:55:340
0.2281,-9.7124,0.1901,-0.1075,-9.806,0.0298,0.477,0.024,-0.1983,4.62,49.78,13.33,266.78,89.35,74.52,0.0,64.582,35.17821,126.90864,,NaN,,125.80645,,0 / 22,5354,2014-12-14 14:44:55:390
-0.0401,-9.425,-0.2122,-0.042,-9.8065,0.0357,0.1435,-0.0593,-0.0286,4.99,49.78,12.7,266.78,89.35,74.52,0.0,64.582,35.17821,126.90864,,NaN,,125.80645,,0 / 22,5404,2014-12-14 14:44:55:440
0.1323,-9.7124,-0.0015,-0.0449,-9.8065,0.0203,-0.0229,0.0252,0.0087,5.37,50.15,13.58,294.31,89.68,49.66,0.0,64.582,35.17821,126.90864,,NaN,,125.80645,,0 / 22,5454,2014-12-14 14:44:55:490
0.0748,-9.7124,-0.2506,-0.0291,-9.8066,-0.0081,0.0927,-0.1067,-0.2395,4.62,50.15,11.95,272.09,89.74,66.28,0.0,64.582,35.17821,126.90864,,NaN,,125.80645,,0 / 22,5504,2014-12-14 14:44:55:540
-0.0401,-9.6166,-0.1356,-0.0316,-9.8065,-0.044,-0.0344,0.0779,-0.2319,4.62,49.4,13.33,272.09,89.74,66.28,0.0,64.582,35.17821,126.90864,,NaN,,125.80645,,0 / 22,5554,2014-12-14 14:44:55:590
-0.0018,-9.5591,-0.4613,-0.0127,-9.8064,-0.0699,0.1581,-0.1619,-0.1126,4.3,50.15,11.89,198.98,89.68,144.3,0.0,64.582,35.17821,126.90864,,NaN,,125.80645,,0 / 22,5604,2014-12-14 14:44:55:640
0.0174,-9.5974,-0.2889,5.0E-4,-9.806,-0.1098,0.1012,-0.0139,-0.2578,3.55,49.03,13.51,163.18,89.36,-179.75,0.0,64.582,35.17821,126.90864,,NaN,,125.80645,,0 / 22,5654,2014-12-14 14:44:55:690
0.0365,-9.4441,-0.6146,-0.0077,-9.8052,-0.1705,-0.0226,0.0214,-0.3122,4.3,49.78,12.7,160.09,89.38,-177.98,0.0,59.61,35.17821,126.90864,,NaN,,125.80645,,0 / 22,5704,2014-12-14 14:44:55:740
-0.1934,-9.4058,-1.1319,0.0027,-9.8037,-0.2409,0.1325,0.1985,-0.6547,4.99,50.15,13.95,160.09,89.38,-177.98,0.0,59.61,35.17821,126.90864,,NaN,,125.80645,,0 / 22,5754,2014-12-14 14:44:55:790
-0.0593,-9.8273,-0.3847,-0.0073,-9.7996,-0.3712,0.04,-0.0903,-0.3542,4.99,49.03,15.08,159.38,88.59,-179.35,0.0,59.61,35.17821,126.90864,,NaN,,125.80645,,0 / 22,5804,2014-12-14 14:44:55:840
0.094,-9.8656,-0.423,-0.0283,-9.7995,-0.3735,-0.1832,-0.3274,-0.0708,7.24,48.28,16.01,158.48,87.81,175.67,0.0,59.61,35.17821,126.90864,,NaN,,125.80645,,0 / 22,5854,2014-12-14 14:44:55:890
-0.0401,-9.7507,-0.4038,-0.0322,-9.7995,-0.3721,-0.1651,-0.1541,-0.0792,7.24,48.65,14.01,158.48,87.81,175.67,0.0,59.61,35.17821,126.90864,,NaN,,125.80645,,0 / 22,5904,2014-12-14 14:44:55:940
0.458,-9.8465,0.5924,-0.0268,-9.7997,-0.3681,0.0545,-0.0187,0.1158,6.12,49.03,16.14,161.65,87.84,175.83,0.0,59.61,35.17821,126.90864,,NaN,,125.80645,,0 / 22,5954,2014-12-14 14:44:55:990
0.4005,-9.5208,-2.1855,0.0294,-9.8025,-0.2826,0.193,0.0601,-0.5204,4.99,49.78,14.76,159.58,88.12,179.9,0.0,72.186,35.17821,126.90864,,NaN,,125.80645,,0 / 22,6004,2014-12-14 14:44:56:040