ACCELEROMETER X (m/s²),ACCELEROMETER Y (m/s²),ACCELEROMETER Z (m/s²),GRAVITY X (m/s²),GRAVITY Y (m/s²),GRAVITY Z (m/s²),LINEAR ACCELERATION X (m/s²),LINEAR ACCELERATION Y (m/s²),LINEAR ACCELERATION Z (m/s²),MAGNETIC FIELD X (μT),MAGNETIC FIELD Y (μT),MAGNETIC FIELD Z (μT),ORIENTATION X (°),ORIENTATION Y (°),ORIENTATION Z (°),PROXIMITY (i),SOUND LEVEL (dB),LOCATION Latitude : ,LOCATION Longitude : ,LOCATION Altitude ( m),LOCATION Altitude-google ( m),LOCATION Speed ( Kmh),LOCATION Accuracy ( m),LOCATION ORIENTATION (°),Satellites in range,Time since start in ms ,YYYY-MO-DD HH-MI-SS_SSS
3.2168,-10.7469,2.968,0.4949,-9.788,0.346,2.0648,-1.185,2.2852,-2.7,55.96,7.08,88.14,88.58,-77.94,0.0,61.543,35.17811,126.90879,,NaN,,140.32257,,0 / 21,2,2014-12-14 14:47:33:171
3.3318,-12.0688,4.3474,0.9552,-9.7236,0.8422,2.1582,-1.0977,2.519,-4.2,55.96,6.2,46.57,83.8,-50.34,0.0,61.543,35.17811,126.90879,,NaN,,140.32257,,0 / 21,53,2014-12-14 14:47:33:222
2.8911,-12.5095,1.8185,1.209,-9.6529,1.2367,2.0751,-1.6072,2.8051,-8.26,55.59,2.95,50.33,79.84,-44.35,0.0,61.543,35.17811,126.90879,,NaN,,140.32257,,0 / 21,102,2014-12-14 14:47:33:271
3.3509,-15.6323,0.4008,1.4642,-9.6249,1.1782,2.0753,-4.3426,-1.1058,-10.07,55.59,2.01,50.33,79.84,-44.35,0.0,61.543,35.17811,126.90879,,NaN,,140.32257,,0 / 21,152,2014-12-14 14:47:33:321
-0.9597,-9.6166,1.4928,1.4031,-9.6427,1.1046,-0.8517,-1.4951,-0.3691,-15.26,55.59,-5.36,78.89,78.95,-51.18,0.0,61.543,35.17811,126.90879,,NaN,,140.32257,,0 / 21,202,2014-12-14 14:47:33:371
-0.8256,-10.0189,2.5465,1.0339,-9.6799,1.1834,-1.9268,1.1244,0.8114,-15.95,56.34,-9.74,155.74,80.58,-45.56,0.0,61.543,35.17811,126.90879,,NaN,,140.32257,,0 / 21,252,2014-12-14 14:47:33:421
-0.8256,-7.3559,2.0293,0.8253,-9.6813,1.3272,-1.777,2.3758,0.7363,-18.57,54.9,-12.49,152.74,80.78,-41.14,0.0,68.474,35.17811,126.90879,,NaN,,140.32257,,0 / 21,303,2014-12-14 14:47:33:472
-0.8831,-5.555,1.6078,0.5652,-9.6752,1.4972,-1.4931,4.2149,0.1013,-21.51,53.78,-18.17,152.74,80.78,-41.14,0.0,68.474,35.17811,126.90879,,NaN,,140.32257,,0 / 21,352,2014-12-14 14:47:33:521
0.6113,-4.2714,2.0101,0.4517,-9.6645,1.601,-0.8687,4.8077,-0.0034,-22.57,52.65,-18.92,140.04,80.61,-20.68,0.0,68.474,35.17811,126.90879,,NaN,,140.32257,,0 / 21,402,2014-12-14 14:47:33:571
1.6458,-4.348,2.4316,0.5549,-9.6093,1.8772,1.009,4.0446,0.7332,-23.7,53.78,-17.8,124.86,79.31,-14.56,0.0,68.474,35.17811,126.90879,,NaN,,140.32257,,0 / 21,452,2014-12-14 14:47:33:621
0.3239,-4.712,3.6003,0.7911,-9.5418,2.1208,1.2077,3.0184,0.8665,-23.7,54.53,-14.36,115.07,76.65,-20.46,0.0,68.474,35.17811,126.90879,,NaN,,140.32257,,0 / 21,502,2014-12-14 14:47:33:671
5.1135,-11.3791,4.9605,1.0172,-9.2821,2.9965,1.9808,-1.1572,6.479,-22.2,58.21,-13.86,115.07,76.65,-20.46,0.0,68.474,35.17811,126.90879,,NaN,,140.32257,,0 / 21,552,2014-12-14 14:47:33:721
0.9944,-10.1721,-1.3043,1.2664,-9.2936,2.8628,0.8123,-5.7179,0.3993,-20.38,58.21,-4.49,73.42,71.17,-18.75,0.0,69.116,35.17811,126.90879,,NaN,,140.32257,,0 / 21,602,2014-12-14 14:47:33:771
1.8566,-12.8735,-0.1548,1.3046,-9.487,2.1131,0.6915,-2.9506,-2.6661,-17.45,60.03,-0.24,60.01,74.13,-28.39,0.0,69.116,35.17811,126.90879,,NaN,,140.32257,,0 / 21,652,2014-12-14 14:47:33:821
-2.1858,-9.674,1.0522,1.2466,-9.5242,1.9764,-0.3674,-2.1274,0.5635,-14.88,60.4,8.07,52.32,76.21,-32.24,0.0,69.116,35.17811,126.90879,,NaN,,140.32257,,0 / 21,702,2014-12-14 14:47:33:871
-0.2508,-10.6703,0.669,0.7388,-9.6027,1.8474,-2.2855,-0.9698,-1.3129,-13.01,61.15,9.26,52.32,76.21,-32.24,0.0,69.116,35.17811,126.90879,,NaN,,140.32257,,0 / 21,752,2014-12-14 14:47:33:921
1.6458,-9.4825,-1.9557,0.722,-9.6437,1.627,0.2152,0.2197,-1.8731,-7.51,59.65,14.83,36.67,78.29,-21.8,0.0,69.116,35.17811,126.90879,,NaN,,140.32257,,0 / 21,802,2014-12-14 14:47:33:971
2.3164,-9.7315,-1.3234,0.9316,-9.7102,1.0071,1.4567,-0.3643,-2.6852,-4.95,58.21,19.08,34.87,81.43,-34.44,0.0,69.116,35.17811,126.90879,,NaN,,140.32257,,0 / 21,852,2014-12-14 14:47:34:021
1.5309,-8.8502,0.1518,1.083,-9.7174,0.7547,0.781,0.6063,-1.5761,-1.95,55.96,23.33,46.58,82.26,-55.13,0.0,70.35,35.17811,126.90879,,NaN,,140.32257,,0 / 21,902,2014-12-14 14:47:34:071
0.6304,-9.31,0.6882,1.1921,-9.7105,0.675,0.426,-0.361,0.0659,-0.13,55.96,23.76,46.58,82.26,-55.13,0.0,70.35,35.17811,126.90879,,NaN,,140.32257,,0 / 21,952,2014-12-14 14:47:34:121
0.5155,-9.7315,0.056,1.14,-9.7155,0.6928,-0.4701,0.0538,0.0857,2.43,53.03,27.26,48.2,81.97,-60.48,0.0,70.35,35.17811,126.90879,,NaN,,140.32257,,0 / 21,1002,2014-12-14 14:47:34:171
1.5117,-11.724,-1.3043,1.0506,-9.7385,0.4776,-0.0294,-1.1221,-1.3836,3.93,53.03,29.95,45.01,82.91,-61.21,0.0,70.35,35.17811,126.90879,,NaN,,140.32257,,0 / 21,1052,2014-12-14 14:47:34:221
-1.1513,-15.0767,-1.0361,1.0457,-9.7487,0.1997,-0.0436,-1.924,-2.1649,6.12,51.59,29.76,45.01,82.91,-61.21,0.0,70.35,35.17811,126.90879,,NaN,,140.32257,,0 / 21,1102,2014-12-14 14:47:34:271
3.5233,-17.4331,4.5007,0.8702,-9.7623,0.3314,1.7873,-7.0551,2.3386,7.99,51.53,30.2,56.54,83.77,-79.19,0.0,70.35,35.17811,126.90879,,NaN,,140.32257,,0 / 21,1152,2014-12-14 14:47:34:321
8.562,-14.1762,1.5695,1.3912,-9.6413,1.1319,2.7181,-4.4236,5.7241,7.24,53.78,28.64,48.32,84.55,-69.15,0.0,70.35,35.17811,126.90879,,NaN,,140.32257,,0 / 21,1202,2014-12-14 14:47:34:371
2.4696,-17.2416,-3.7374,1.9594,-9.5598,0.9703,5.1137,-3.6218,-2.0276,3.93,60.4,23.7,29.1,79.46,-50.87,0.0,66.944,35.17811,126.90879,,NaN,,140.32257,,0 / 21,1252,2014-12-14 14:47:34:421
-0.6723,-14.3103,-4.8486,1.6414,-9.6574,0.4595,-4.6609,-5.5955,-4.7875,-1.63,63.34,17.76,29.1,79.46,-50.87,0.0,66.944,35.17811,126.90879,,NaN,,140.32257,,0 / 21,1302,2014-12-14 14:47:34:471
-1.0363,-9.9039,-1.7066,1.1489,-9.7383,-0.1265,-2.5581,0.2652,-2.702,-13.38,67.78,3.26,55.76,79.99,-74.36,0.0,66.944,35.17811,126.90879,,NaN,,140.32257,,0 / 21,1352,2014-12-14 14:47:34:521
-3.2778,-6.647,-1.6491,0.8677,-9.7635,-0.3036,-3.7246,5.1896,-1.5968,-17.82,68.84,-2.74,208.01,83.23,-96.28,0.0,66.944,35.17811,126.90879,,NaN,,140.32257,,0 / 21,1402,2014-12-14 14:47:34:571
-3.8143,-3.8499,-1.8982,0.1832,-9.7937,-0.469,-4.1116,6.1576,-0.9032,-26.63,66.65,-14.74,259.98,86.63,-133.68,0.0,66.944,35.17811,126.90879,,NaN,,140.32257,,0 / 21,1452,2014-12-14 14:47:34:621
-3.4503,-1.5126,-2.5496,-0.2745,-9.7771,-0.7092,-3.3291,7.9405,-1.5899,-28.88,65.9,-19.8,259.98,86.63,-133.68,0.0,66.944,35.17811,126.90879,,NaN,,140.32257,,0 / 21,1502,2014-12-14 14:47:34:671
-0.1934,-1.8191,-2.4346,-0.7806,-9.6904,-1.2874,-0.5412,7.5905,-1.5535,-28.51,66.65,-18.99,330.98,85.55,158.84,0.0,70.995,35.17811,126.90879,,NaN,,140.32257,,0 / 21,1552,2014-12-14 14:47:34:721
0.5921,-4.9228,6.5889,-0.7914,-9.6608,-1.4873,0.3707,5.002,0.234,-27.76,70.71,-13.42,334.6,81.17,148.77,0.0,70.995,35.17811,126.90879,,NaN,,140.32257,,0 / 21,1602,2014-12-14 14:47:34:771
0.1323,-13.8697,-0.1931,-0.239,-9.7992,-0.2987,0.8422,-9.4959,4.6828,-23.32,74.4,-1.8,310.8,85.4,155.32,0.0,70.995,35.17811,126.90879,,NaN,,140.32257,,0 / 21,1652,2014-12-14 14:47:34:821
-1.5728,-8.8502,-2.9902,-0.2988,-9.7937,-0.4055,-1.4697,0.3539,-1.9346,-17.82,75.53,4.2,310.8,85.4,155.32,0.0,70.995,35.17811,126.90879,,NaN,,140.32257,,0 / 21,1702,2014-12-14 14:47:34:871
1.665,-13.1417,0.7074,-0.0442,-9.7964,-0.4456,1.8236,-3.8863,0.6868,-14.88,75.84,11.95,284.62,87.06,143.62,0.0,70.995,35.17811,126.90879,,NaN,,140.32257,,0 / 21,1753,2014-12-14 14:47:34:922
-0.2892,-8.9269,-0.3272,0.0433,-9.8019,-0.3023,0.0823,-0.2742,0.7734,-10.07,74.78,17.95,221.02,87.38,174.33,0.0,70.995,35.17811,126.90879,,NaN,,140.32257,,0 / 21,1802,2014-12-14 14:47:34:971
0.822,-9.3292,-0.4996,0.0919,-9.8008,-0.3263,0.5804,0.7625,-0.1844,-6.76,70.71,26.08,186.41,88.16,-170.8,0.0,70.995,35.17811,126.90879,,NaN,,140.32257,,0 / 21,1852,2014-12-14 14:47:35:021
1.8374,-9.3675,1.2821,0.2513,-9.7992,-0.2882,1.5218,0.072,0.6159,-1.63,69.59,27.83,186.41,88.16,-170.8,0.0,71.564,35.17811,126.90879,,NaN,,140.32257,,0 / 21,1902,2014-12-14 14:47:35:071
-0.9789,-8.3138,0.2667,0.3947,-9.798,-0.116,0.1801,0.9787,1.0994,0.24,67.78,31.08,101.18,87.6,-106.38,0.0,71.564,35.17811,126.90879,,NaN,,140.32257,,0 / 21,1952,2014-12-14 14:47:35:121
0.8987,-9.6549,-0.7678,0.2786,-9.8016,-0.1458,0.5737,0.225,-0.5888,7.24,65.21,35.95,89.28,88.09,-103.67,0.0,71.564,35.17811,126.90879,,NaN,,140.32257,,0 / 21,2002,2014-12-14 14:47:35:171
3.8682,-12.6053,-0.9403,0.3647,-9.7942,-0.3328,0.8718,-1.3373,-1.871,9.05,64.84,37.39,89.28,88.09,-103.67,0.0,71.564,35.17811,126.90879,,NaN,,140.32257,,0 / 21,2052,2014-12-14 14:47:35:221
1.7799,-13.908,-0.0207,0.7104,-9.7724,-0.4063,2.6083,-3.3154,-0.0162,11.3,63.71,37.95,111.87,87.11,-132.38,0.0,71.564,35.17811,126.90879,,NaN,,140.32257,,0 / 21,2102,2014-12-14 14:47:35:271
5.6116,-17.4523,5.995,0.8385,-9.7707,-0.0142,3.3821,-6.9552,3.8709,14.93,64.84,36.39,82.63,85.85,-112.12,0.0,71.564,35.17811,126.90879,,NaN,,140.32257,,0 / 21,2152,2014-12-14 14:47:35:321
5.8607,-14.0038,3.447,1.2377,-9.7071,0.6412,3.5813,-4.5263,5.7165,12.74,69.96,34.89,82.63,85.85,-112.12,0.0,71.564,35.17811,126.90879,,NaN,,140.32257,,0 / 21,2202,2014-12-14 14:47:35:371
2.6229,-15.7281,-2.4346,1.5837,-9.6328,0.9333,3.2054,-1.7022,0.7765,10.18,74.03,29.82,33.76,81.83,-62.61,0.0,66.795,35.17811,126.90879,,NaN,,140.32257,,0 / 21,2252,2014-12-14 14:47:35:421
-1.362,-14.3487,-2.5304,1.3606,-9.7102,0.1756,-3.0434,-4.4142,-5.409,-2.32,83.21,20.08,42.22,79.66,-66.16,0.0,66.795,35.17811,126.90879,,NaN,,140.32257,,0 / 21,2302,2014-12-14 14:47:35:471
-1.2854,-13.5823,-2.4538,1.132,-9.7402,-0.1298,-0.8426,-0.7144,-2.7991,-12.26,83.96,12.14,42.22,79.66,-66.16,0.0,66.795,35.17811,126.90879,,NaN,,140.32257,,0 / 21,2352,2014-12-14 14:47:35:521
-2.6648,-7.9689,-0.3464,0.9172,-9.7569,-0.3639,-1.976,3.3187,-2.2671,-25.2,81.03,-0.49,190.57,83.33,-96.54,0.0,66.795,35.17811,126.90879,,NaN,,140.32257,,0 / 21,2402,2014-12-14 14:47:35:571
-3.3162,-6.0723,-0.1931,0.4846,-9.784,-0.4577,-3.7059,5.8565,0.1939,-38.07,72.21,-16.36,252.76,86.1,-133.37,0.0,66.795,35.17811,126.90879,,NaN,,140.32257,,0 / 21,2452,2014-12-14 14:47:35:621
-3.776,-2.3556,-2.0706,0.0487,-9.7937,-0.5012,-3.6624,7.2357,-0.6869,-41.76,68.9,-19.11,252.76,86.1,-133.37,0.0,66.795,35.17811,126.90879,,NaN,,140.32257,,0 / 21,2502,2014-12-14 14:47:35:671
-4.0825,-0.4206,-3.7757,-0.4321,-9.7732,-0.6844,-3.293,7.5548,-1.4318,-43.95,63.34,-25.8,295.16,87.06,-174.45,0.0,66.795,35.17811,126.90879,,NaN,,140.32257,,0 / 21,2552,2014-12-14 14:47:35:721
-3.8335,-1.0528,-5.9023,-1.5881,-9.5243,-1.7137,-2.3442,6.197,-2.3338,-42.82,65.21,-23.61,344.68,81.44,137.3,0.0,71.292,35.17811,126.90879,,NaN,,140.32257,,0 / 21,2602,2014-12-14 14:47:35:771
0.6113,-16.8775,-0.8636,-1.3184,-9.6737,-0.9232,3.229,-0.8336,9.1936,-42.51,67.78,-18.05,344.68,81.44,137.3,0.0,71.292,35.17811,126.90879,,NaN,,140.32257,,0 / 21,2652,2014-12-14 14:47:35:821
-0.6915,-9.2525,-2.3005,-0.6418,-9.77,-0.5532,1.8821,-10.8387,2.0076,-38.07,72.9,-9.99,344.28,80.55,125.0,0.0,71.292,35.17811,126.90879,,NaN,,140.32257,,0 / 21,2702,2014-12-14 14:47:35:871
1.8183,-13.18,1.0139,-0.2306,-9.7837,-0.6296,1.8625,-2.4952,0.822,-29.57,76.96,3.83,307.96,85.14,144.16,0.0,71.292,35.17811,126.90879,,NaN,,140.32257,,0 / 21,2757,2014-12-14 14:47:35:926
-0.0784,-9.3292,0.2092,-0.0383,-9.8009,-0.3349,0.7114,-1.0659,1.5373,-25.57,76.96,12.64,307.96,85.14,144.16,0.0,71.292,35.17811,126.90879,,NaN,,140.32257,,0 / 21,2802,2014-12-14 14:47:35:971
-0.3083,-7.6432,-0.5954,-0.0551,-9.8029,-0.2671,-0.0447,1.8041,0.5276,-22.26,76.96,16.2,245.6,88.03,173.47,0.0,71.292,35.17811,126.90879,,NaN,,140.32257,,0 / 21,2852,2014-12-14 14:47:36:021
4.2322,-9.6549,-1.2085,0.0971,-9.7986,-0.3842,2.1875,0.7914,-0.9729,-18.95,76.59,23.76,245.6,88.03,173.47,0.0,71.665,35.17811,126.90879,,NaN,,140.32257,,0 / 21,2902,2014-12-14 14:47:36:071
-1.2662,-8.7353,1.148,0.6298,-9.7766,-0.4382,3.4409,0.301,-0.1583,-15.26,75.9,27.2,196.5,87.68,-165.81,0.0,71.665,35.17811,126.90879,,NaN,,140.32257,,0 / 21,2952,2014-12-14 14:47:36:121
-0.3466,-9.9997,0.0368,0.4905,-9.7924,-0.198,-1.7074,0.1111,0.9115,-8.95,73.65,33.39,121.74,85.12,-115.6,0.0,71.665,35.17811,126.90879,,NaN,,140.32257,,0 / 21,3003,2014-12-14 14:47:36:172
2.5463,-11.3216,-1.1893,0.4905,-9.7924,-0.198,-1.7074,0.1111,0.9115,-8.95,73.65,33.39,121.74,85.12,-115.6,0.0,71.665,35.17811,126.90879,,NaN,,140.32257,,0 / 21,3052,2014-12-14 14:47:36:221
2.2014,-11.9347,-2.1089,0.7848,-9.7628,-0.4921,1.0531,-2.0921,-1.3766,-2.32,71.46,36.64,111.0,86.91,-111.98,0.0,71.665,35.17811,126.90879,,NaN,,140.32257,,0 / 21,3102,2014-12-14 14:47:36:271
-0.7873,-16.2262,0.4391,0.6484,-9.7792,-0.3435,-0.2553,-7.0494,1.8995,-0.13,70.71,36.45,112.01,84.58,-122.09,0.0,71.665,35.17811,126.90879,,NaN,,140.32257,,0 / 21,3152,2014-12-14 14:47:36:321
3.0635,-14.0804,7.0296,0.8045,-9.7725,-0.1457,3.0204,-7.2887,2.9455,-0.13,69.96,35.08,112.01,84.58,-122.09,0.0,71.665,35.17811,126.90879,,NaN,,140.32257,,0 / 21,3202,2014-12-14 14:47:36:371
3.7724,-12.8351,-1.3426,1.0375,-9.7406,0.4641,1.5753,-3.2802,5.6047,-7.51,69.21,20.08,94.44,85.22,-100.27,0.0,71.665,35.17811,126.90879,,NaN,,140.32257,,0 / 21,3252,2014-12-14 14:47:36:421
-1.362,-14.9043,-2.0323,1.1162,-9.7416,0.1634,-2.7331,-3.755,-4.06,-14.13,64.84,13.33,82.07,81.41,-65.45,0.0,67.85,35.17811,126.90879,,NaN,,140.32257,,0 / 21,3302,2014-12-14 14:47:36:471
-0.2892,-10.7852,-2.8561,0.9852,-9.756,-0.141,-0.2041,-1.3243,-3.3085,-18.2,62.96,7.33,82.07,81.41,-65.45,0.0,67.85,35.17811,126.90879,,NaN,,140.32257,,0 / 21,3352,2014-12-14 14:47:36:521
-0.634,-8.8311,-1.6874,0.802,-9.7662,-0.3856,-1.4371,1.9446,-2.0374,-22.57,58.21,-1.17,194.34,84.18,-98.15,0.0,67.85,35.17811,126.90879,,NaN,,140.32257,,0 / 21,3403,2014-12-14 14:47:36:572
-3.1437,-6.3596,-0.4422,0.4157,-9.7851,-0.4989,-3.2456,4.2876,-0.1883,-24.07,54.53,-7.24,194.34,84.18,-98.15,0.0,67.85,35.17811,126.90879,,NaN,,140.32257,,0 / 21,3452,2014-12-14 14:47:36:621
-4.0442,-1.9916,-1.6108,0.2329,-9.7907,-0.5077,-3.2505,5.0031,0.1135,-25.57,51.96,-9.92,258.23,86.2,-140.2,0.0,67.85,35.17811,126.90879,,NaN,,140.32257,,0 / 21,3502,2014-12-14 14:47:36:671
-4.1591,-0.8229,-2.2622,-0.4565,-9.7745,-0.6484,-3.47,7.6935,-0.726,-26.26,48.96,-13.8,258.23,86.2,-140.2,0.0,67.85,35.17811,126.90879,,NaN,,140.32257,,0 / 21,3552,2014-12-14 14:47:36:721
0.6113,-6.283,7.9492,-1.0287,-9.7069,-0.9426,-3.2073,8.2515,-1.7287,-25.2,47.9,-15.67,340.24,85.36,144.85,0.0,67.85,35.17811,126.90879,,NaN,,140.32257,,0 / 21,3603,2014-12-14 14:47:36:772
2.0865,-16.9925,-3.0094,-1.2286,-9.7132,-0.5608,4.5094,-1.117,9.6408,-20.01,48.28,-8.11,357.89,82.08,114.54,0.0,70.819,35.17811,126.90879,,NaN,,140.32257,,0 / 21,3652,2014-12-14 14:47:36:821
0.4005,-14.9043,0.2284,-0.6538,-9.7804,-0.2959,-0.1586,-9.1864,1.3447,-18.95,49.34,-6.24,357.89,82.08,114.54,0.0,70.819,35.17811,126.90879,,NaN,,140.32257,,0 / 21,3702,2014-12-14 14:47:36:871
2.4505,-11.6282,-0.9019,-0.5542,-9.7904,-0.1088,1.3162,-0.4696,-0.8725,-16.32,50.09,1.2,347.53,86.7,101.1,0.0,70.819,35.17811,126.90879,,NaN,,140.32257,,0 / 21,3752,2014-12-14 14:47:36:921
2.872,-11.9922,-0.0015,-0.3009,-9.7989,-0.2476,2.1709,-1.0596,-1.0986,-14.51,50.09,4.2,347.53,86.7,101.1,0.0,70.819,35.17811,126.90879,,NaN,,140.32257,,0 / 21,3802,2014-12-14 14:47:36:971
1.2052,-8.4671,-0.1356,0.051,-9.8032,-0.2569,2.1985,-1.1482,-0.0313,-11.95,50.84,12.83,295.79,87.72,129.45,0.0,70.819,35.17811,126.90879,,NaN,,140.32257,,0 / 21,3852,2014-12-14 14:47:37:021
1.186,-9.2334,-0.6146,0.4414,-9.7912,-0.329,0.5531,0.6059,-0.3338,-8.63,50.84,17.58,150.92,87.21,-127.82,0.0,70.819,35.17811,126.90879,,NaN,,140.32257,,0 / 21,3902,2014-12-14 14:47:37:071
0.6304,-9.4441,0.7648,0.614,-9.7821,-0.3222,1.211,-0.0405,0.5933,-7.13,52.34,18.7,150.92,87.21,-127.82,0.0,70.819,35.17811,126.90879,,NaN,,140.32257,,0 / 21,3952,2014-12-14 14:47:37:121
-1.4195,-8.946,0.8798,0.4548,-9.7954,-0.1184,-1.3933,0.351,0.9995,-2.7,50.46,22.2,122.94,85.95,-117.69,0.0,71.646,35.17811,126.90879,,NaN,,140.32257,,0 / 21,4002,2014-12-14 14:47:37:171
1.3585,-10.2488,-0.0973,0.4793,-9.7946,-0.0814,0.6665,-0.4108,0.0406,-2.7,49.34,25.51,106.2,87.25,-104.59,0.0,71.646,35.17811,126.90879,,NaN,,140.32257,,0 / 21,4052,2014-12-14 14:47:37:221
1.9524,-10.4021,-2.4346,0.5641,-9.7878,-0.2247,0.5911,0.0437,-1.5105,0.99,49.71,24.01,102.06,86.45,-111.72,0.0,71.646,35.17811,126.90879,,NaN,,140.32257,,0 / 21,4102,2014-12-14 14:47:37:271
0.3239,-11.7048,-0.7678,0.6838,-9.7724,-0.4505,-0.0815,-1.6146,-0.4084,2.43,48.96,26.26,102.06,86.45,-111.72,0.0,71.646,35.17811,126.90879,,NaN,,140.32257,,0 / 21,4152,2014-12-14 14:47:37:321
-1.0363,-13.6015,-2.9519,0.6356,-9.7743,-0.4791,-0.5522,-2.031,-0.5025,4.3,46.78,25.51,106.32,85.21,-123.38,0.0,71.646,35.17811,126.90879,,NaN,,140.32257,,0 / 21,4202,2014-12-14 14:47:37:371
-0.8639,-13.9463,2.0867,0.3135,-9.7848,-0.575,-1.0185,-4.0213,2.7264,6.87,46.78,23.57,125.47,85.0,-149.51,0.0,71.646,35.17811,126.90879,,NaN,,140.32257,,0 / 21,4252,2014-12-14 14:47:37:421
1.0136,-11.36,1.6461,0.2518,-9.7941,-0.427,-0.9199,-2.3936,2.2464,6.87,46.78,23.08,125.47,85.0,-149.51,0.0,71.646,35.17811,126.90879,,NaN,,140.32257,,0 / 21,4302,2014-12-14 14:47:37:471
1.4159,-11.36,-0.8445,0.7524,-9.7756,-0.2026,3.2368,0.0097,-0.2603,7.24,48.28,16.64,127.56,87.1,-149.47,0.0,68.464,35.17811,126.90879,,NaN,,140.32257,,0 / 21,4352,2014-12-14 14:47:37:521
-4.4274,-10.7852,-2.4921,0.7104,-9.7777,-0.2513,-0.6695,-0.1223,-0.7854,5.74,47.53,12.39,63.77,85.44,-105.07,0.0,68.464,35.17811,126.90879,,NaN,,140.32257,,0 / 21,4402,2014-12-14 14:47:37:571
-0.4424,-8.4096,-2.5879,0.0154,-9.7692,-0.8558,-0.3908,2.4756,-2.4088,4.3,49.03,9.26,125.97,86.91,-162.52,0.0,68.464,35.17811,126.90879,,NaN,,140.32257,,0 / 21,4452,2014-12-14 14:47:37:621
-3.1629,-6.8961,-2.1855,-0.2956,-9.7363,-1.1344,-2.3291,2.9445,-1.1033,1.68,48.28,5.76,125.99,84.38,178.33,0.0,68.464,35.17811,126.90879,,NaN,,140.32257,,0 / 21,4502,2014-12-14 14:47:37:671
-2.6839,-6.8003,-2.6837,-0.6629,-9.692,-1.3404,-2.2808,3.0777,-1.2269,1.3,47.53,5.7,125.99,84.38,178.33,0.0,68.464,35.17811,126.90879,,NaN,,140.32257,,0 / 21,4552,2014-12-14 14:47:37:721
-2.9713,-6.2639,-2.5112,-1.1135,-9.6033,-1.6453,-1.8513,2.7239,-0.9959,2.05,48.28,4.82,354.14,81.23,153.68,0.0,68.464,35.17811,126.90879,,NaN,,140.32257,,0 / 21,4602,2014-12-14 14:47:37:771
-2.7223,-6.0148,-2.9327,-1.2669,-9.5669,-1.7433,-1.7554,2.8291,-0.893,2.8,48.65,5.7,345.68,77.31,143.99,0.0,65.034,35.17811,126.90879,,NaN,,140.32257,,0 / 21,4652,2014-12-14 14:47:37:821
-2.8372,-7.011,-1.4767,-1.6557,-9.4187,-2.172,-1.3028,1.4172,-0.0561,4.3,50.84,9.39,331.46,75.12,143.95,0.0,65.034,35.17811,126.90879,,NaN,,140.32257,,0 / 21,4702,2014-12-14 14:47:37:871
15.0375,-24.311,15.4209,-0.9561,-9.7223,-0.856,9.0534,-9.6795,13.9424,4.99,49.71,11.01,331.46,75.12,143.95,0.0,65.034,35.17811,126.90879,,NaN,,140.32257,,0 / 21,4752,2014-12-14 14:47:37:921
-5.7301,-8.9269,0.7265,-0.384,-9.7849,-0.5285,7.1728,-9.6544,3.8275,5.37,49.34,10.2,226.58,82.48,131.84,0.0,65.034,35.17811,126.90879,,NaN,,140.32257,,0 / 21,4802,2014-12-14 14:47:37:971
3.8682,-10.4021,-1.266,-1.1354,-9.7295,-0.4672,1.3802,0.6058,-2.9502,6.49,50.09,12.45,255.89,82.68,105.32,0.0,65.034,35.17811,126.90879,,NaN,,140.32257,,0 / 21,4852,2014-12-14 14:47:38:021
-0.5765,-9.6166,0.8989,-0.4486,-9.7879,-0.4085,0.6883,-0.7138,1.7547,6.49,51.59,14.7,226.41,84.64,124.51,0.0,65.034,35.17811,126.90879,,NaN,,140.32257,,0 / 21,4903,2014-12-14 14:47:38:072
-0.2125,-9.3292,0.1518,-0.4702,-9.792,-0.2581,-0.2019,0.3381,0.5856,7.62,50.09,13.39,226.41,84.64,124.51,0.0,65.034,35.17811,126.90879,,NaN,,140.32257,,0 / 21,4952,2014-12-14 14:47:38:121
-0.1934,-10.0764,-0.0973,-0.2566,-9.8007,-0.2265,0.0107,-0.3611,0.1321,7.62,50.46,14.89,202.37,88.11,131.69,0.0,68.358,35.17811,126.90879,,NaN,,140.32257,,0 / 21,5113,2014-12-14 14:47:38:282
-0.1934,-10.0764,-0.0973,-0.2566,-9.8007,-0.2265,0.0107,-0.3611,0.1321,7.62,50.46,14.89,202.37,88.11,131.69,0.0,68.358,35.17811,126.90879,,NaN,,140.32257,,0 / 21,5114,2014-12-14 14:47:38:283
-0.1934,-10.0764,-0.0973,-0.2566,-9.8007,-0.2265,0.0107,-0.3611,0.1321,7.62,50.46,14.89,202.37,88.11,131.69,0.0,68.358,35.17811,126.90879,,NaN,,140.32257,,0 / 21,5115,2014-12-14 14:47:38:284
-0.3275,-9.5016,-0.6529,-0.2375,-9.8007,-0.2466,0.0077,0.1705,-0.382,7.62,51.21,13.83,202.37,88.11,131.69,0.0,68.358,35.17811,126.90879,,NaN,,140.32257,,0 / 21,5152,2014-12-14 14:47:38:321
-0.2508,-9.5591,-0.5571,-0.2078,-9.8004,-0.2822,0.4149,0.2372,-0.4843,7.62,50.84,13.33,185.4,87.95,143.64,0.0,68.358,35.17811,126.90879,,NaN,,140.32257,,0 / 21,5202,2014-12-14 14:47:38:371
-0.0976,-9.8465,-0.1356,-0.18,-9.7999,-0.3153,0.0427,-0.1439,0.1264,6.49,51.59,13.33,185.4,87.95,143.64,0.0,68.358,35.17811,126.90879,,NaN,,140.32257,,0 / 21,5252,2014-12-14 14:47:38:421
-0.021,-9.6549,-0.5571,-0.1736,-9.8,-0.3176,0.0899,0.0476,-0.0295,7.24,50.84,13.51,181.64,87.88,150.27,0.0,68.358,35.17811,126.90879,,NaN,,140.32257,,0 / 21,5302,2014-12-14 14:47:38:471
-0.2892,-9.5782,-0.3464,-0.1587,-9.7994,-0.3433,-0.1056,0.033,0.0533,6.87,51.59,13.39,175.21,87.8,155.84,0.0,68.358,35.17811,126.90879,,NaN,,140.32257,,0 / 21,5353,2014-12-14 14:47:38:522
0.458,-9.7315,-0.3464,-0.1412,-9.7997,-0.3424,0.2389,-0.0639,0.0096,7.24,50.84,13.76,175.26,87.84,157.59,0.0,60.982,35.17811,126.90879,,NaN,,140.32257,,0 / 21,5402,2014-12-14 14:47:38:571
0.209,-9.5974,-0.1931,-0.026,-9.8004,-0.3484,0.223,0.0332,0.1086,7.62,50.84,14.76,175.26,87.84,157.59,0.0,60.982,35.17811,126.90879,,NaN,,140.32257,,0 / 21,5452,2014-12-14 14:47:38:621
-0.1359,-9.5208,-0.7678,-0.0078,-9.8006,-0.3431,0.2501,-0.0603,0.0715,5.74,50.46,14.08,156.86,87.96,175.74,0.0,60.982,35.17811,126.90879,,NaN,,140.32257,,0 / 21,5502,2014-12-14 14:47:38:671
-0.0784,-9.6166,-0.7678,-0.0147,-9.7972,-0.4294,-0.0249,0.0091,-0.3176,7.62,53.03,13.33,145.77,87.76,178.22,0.0,60.982,35.17811,126.90879,,NaN,,140.32257,,0 / 21,5552,2014-12-14 14:47:38:721
0.0365,-9.6549,-0.6912,-0.0209,-9.7963,-0.4499,-0.0848,0.0432,-0.281,6.87,49.71,13.51,152.14,87.37,177.34,0.0,60.982,35.17811,126.90879,,NaN,,140.32257,,0 / 21,5602,2014-12-14 14:47:38:771
0.1323,-9.4825,-1.1893,-0.0119,-9.7912,-0.5499,0.1439,0.173,-0.6236,6.87,50.84,14.76,152.14,87.37,177.34,0.0,60.982,35.17811,126.90879,,NaN,,140.32257,,0 / 21,5652,2014-12-14 14:47:38:821
0.4005,-9.6932,-0.9211,-0.0128,-9.7894,-0.5815,-0.0133,0.1179,-0.4288,6.49,50.09,15.89,146.94,86.78,178.77,0.0,58.524,35.17811,126.90879,,NaN,,140.32257,,0 / 21,5702,2014-12-14 14:47:38:871
-0.3083,-9.4825,-0.9403,0.0072,-9.785,-0.6505,-0.2536,0.1443,-0.3941,7.24,50.46,15.82,147.17,86.21,-176.75,0.0,58.524,35.17811,126.90879,,NaN,,140.32257,,0 / 21,5752,2014-12-14 14:47:38:921
-0.3083,-9.674,-0.5571,-0.0101,-9.7816,-0.7002,-0.239,-0.009,-0.6874,8.3,50.84,16.76,150.0,85.91,179.17,0.0,58.524,35.17811,126.90879,,NaN,,140.32257,,0 / 21,5802,2014-12-14 14:47:38:971
0.3814,-9.674,-0.7295,-0.0255,-9.7819,-0.6951,0.3373,-0.0134,-0.0576,9.05,50.09,15.14,150.0,85.91,179.17,0.0,58.524,35.17811,126.90879,,NaN,,140.32257,,0 / 21,5852,2014-12-14 14:47:39:021
0.094,-9.9422,-0.4613,7.0E-4,-9.7812,-0.7063,0.3627,0.0588,-0.1516,8.68,49.71,16.33,146.56,85.93,177.9,0.0,58.524,35.17811,126.90879,,NaN,,140.32257,,0 / 21,5902,2014-12-14 14:47:39:071
0.3622,-9.8081,0.1518,0.0551,-9.7902,-0.5649,0.2012,-0.0645,0.9981,9.05,50.09,16.2,142.41,85.97,-178.54,0.0,58.524,35.17811,126.90879,,NaN,,140.32257,,0 / 21,5952,2014-12-14 14:47:39:121
-0.3275,-9.425,-2.7795,0.0368,-9.7926,-0.524,-0.2532,-0.1099,0.5627,7.24,50.46,14.26,143.54,86.93,-175.98,0.0,58.524,35.17811,126.90879,,NaN,,140.32257,,0 / 21,6004,2014-12-14 14:47:39:173
-0.1742,-9.6166,-0.787,0.0795,-9.7742,-0.7936,0.0923,-0.0365,0.2725,7.24,50.46,14.58,143.54,86.93,-175.98,0.0,72.602,35.17811,126.90879,,NaN,,140.32257,,0 / 21,6052,2014-12-14 14:47:39:221
-0.2892,-9.6357,-0.5571,0.0662,-9.7742,-0.7946,-0.1829,-7.0E-4,-0.0133,7.99,49.71,13.33,130.95,85.33,-174.28,0.0,72.602,35.17811,126.90879,,NaN,,140.32257,,0 / 21,6102,2014-12-14 14:47:39:271
-0.0784,-9.7507,-0.5188,-0.0013,-9.7783,-0.7457,-0.1185,-0.0552,0.0511,8.68,49.34,14.58,139.2,85.58,-178.38,0.0,72.602,35.17811,126.90879,,NaN,,140.32257,,0 / 21,6152,2014-12-14 14:47:39:321
0.0174,-9.6357,-0.5571,-0.0045,-9.7794,-0.7302,-0.0437,-0.1252,0.2053,7.99,50.09,13.83,139.2,85.58,-178.38,0.0,72.602,35.17811,126.90879,,NaN,,140.32257,,0 / 21,6202,2014-12-14 14:47:39:371
0.094,-9.6166,-0.6337,0.0178,-9.7836,-0.6719,0.0872,0.008,0.0692,7.24,50.46,13.83,148.51,85.73,179.65,0.0,72.602,35.17811,126.90879,,NaN,,140.32257,,0 / 21,6252,2014-12-14 14:47:39:421
0.1515,-9.5782,-0.5379,0.0208,-9.7841,-0.6646,0.0413,0.0676,0.1064,8.3,50.09,16.33,145.65,86.07,-178.48,0.0,72.602,35.17811,126.90879,,NaN,,140.32257,,0 / 21,6302,2014-12-14 14:47:39:471
-0.0976,-9.8081,-0.3847,0.0251,-9.7876,-0.6111,-0.1377,-0.1286,0.258,7.99,50.84,15.2,141.6,86.24,-176.75,0.0,69.966,35.17811,126.90879,,NaN,,140.32257,,0 / 21,6352,2014-12-14 14:47:39:521
-0.0784,-9.6357,-0.4038,0.0182,-9.789,-0.5883,-0.0949,-0.1212,0.3087,8.3,49.71,14.32,141.6,86.24,-176.75,0.0,69.966,35.17811,126.90879,,NaN,,140.32257,,0 / 21,6402,2014-12-14 14:47:39:571
0.1132,-9.789,-0.4422,-0.0056,-9.789,-0.5881,0.0926,-0.0924,0.0789,6.49,51.96,13.39,152.29,86.54,179.33,0.0,69.966,35.17811,126.90879,,NaN,,140.32257,,0 / 21,6452,2014-12-14 14:47:39:621
-0.0593,-9.6357,-0.3847,-0.0034,-9.7897,-0.5759,0.0312,-0.1014,0.1637,7.24,50.84,15.39,150.22,86.56,179.45,0.0,69.966,35.17811,126.90879,,NaN,,140.32257,,0 / 21,6502,2014-12-14 14:47:39:671
0.3047,-9.7315,-0.3272,0.028,-9.7915,-0.5444,0.2587,-0.0228,0.1581,7.24,51.59,15.58,148.41,86.81,-177.06,0.0,69.966,35.17811,126.90879,,NaN,,140.32257,,0 / 21,6552,2014-12-14 14:47:39:721
0.1706,-9.6932,-0.1548,0.0427,-9.7926,-0.5225,0.2029,-0.101,0.2966,7.62,50.46,14.7,148.41,86.81,-177.06,0.0,69.966,35.17811,126.90879,,NaN,,140.32257,,0 / 21,6602,2014-12-14 14:47:39:771
-0.2125,-9.7315,-0.0398,0.0827,-9.7942,-0.4867,0.167,0.1189,-0.2474,7.24,51.59,15.14,140.35,86.94,-175.33,0.0,46.425,35.17811,126.90879,,NaN,,140.32257,,0 / 21,6652,2014-12-14 14:47:39:821
-0.1167,-9.674,-0.3847,0.0661,-9.7962,-0.4473,-0.2278,-0.2101,0.5351,7.24,50.09,15.14,139.65,87.11,-170.35,0.0,46.425,35.17811,126.90879,,NaN,,140.32257,,0 / 21,6702,2014-12-14 14:47:39:871
-0.0976,-9.674,-0.5571,0.0258,-9.7966,-0.4441,-0.1322,-0.0107,-0.0401,7.62,51.59,14.7,141.21,87.4,-174.3,0.0,46.425,35.17811,126.90879,,NaN,,140.32257,,0 / 21,6752,2014-12-14 14:47:39:921
0.3814,-9.5974,-0.6912,0.0295,-9.7962,-0.4516,0.0502,0.0165,-0.1025,6.49,51.21,14.7,141.21,87.4,-174.3,0.0,46.425,35.17811,126.90879,,NaN,,140.32257,,0 / 21,6802,2014-12-14 14:47:39:971
0.6496,-9.5591,-1.4384,0.0514,-9.7949,-0.4772,0.3109,0.0415,-0.2849,6.49,50.84,15.14,150.3,87.36,-176.27,0.0,46.425,35.17811,126.90879,,NaN,,140.32257,,0 / 21,6852,2014-12-14 14:47:40:021
0.0365,-9.5399,-0.6146,0.1165,-9.7903,-0.5543,-0.0554,-0.0374,0.5613,7.24,53.03,15.45,135.63,86.69,-168.13,0.0,46.425,35.17811,126.90879,,NaN,,140.32257,,0 / 21,6902,2014-12-14 14:47:40:071
-0.0976,-9.8465,-0.787,0.047,-9.7854,-0.6441,-0.4117,-0.0606,-0.1498,8.3,51.96,16.83,135.63,86.69,-168.13,0.0,46.425,35.17811,126.90879,,NaN,,140.32257,,0 / 21,6952,2014-12-14 14:47:40:121
-0.0018,-9.5782,-0.8062,0.0299,-9.7837,-0.6701,0.1773,-0.2421,-0.2302,9.8,51.21,17.7,140.79,86.22,-175.83,0.0,69.359,35.17811,126.90879,,NaN,,140.32257,,0 / 21,7002,2014-12-14 14:47:40:171
0.5155,-9.8273,-0.6912,0.0182,-9.7828,-0.6831,-0.1925,0.0565,-0.1398,9.43,50.84,16.76,140.79,86.22,-175.83,0.0,69.359,35.17811,126.90879,,NaN,,140.32257,,0 / 21,7052,2014-12-14 14:47:40:221
0.7071,-9.7124,-0.6529,0.1048,-9.7818,-0.6901,0.3836,-0.0361,-0.0352,9.43,51.96,16.39,146.07,86.0,-178.47,0.0,69.359,35.17811,126.90879,,NaN,,140.32257,,0 / 21,7102,2014-12-14 14:47:40:271
-0.0018,-9.9231,0.6307,0.1868,-9.7836,-0.6454,0.4598,0.0563,0.4812,8.68,50.46,17.26,136.01,85.92,-171.37,0.0,69.359,35.17811,126.90879,,NaN,,140.32257,,0 / 21,7152,2014-12-14 14:47:40:321