sep=;
ACCELEROMETER X (m/s²);ACCELEROMETER Y (m/s²);ACCELEROMETER Z (m/s²);GRAVITY X (m/s²);GRAVITY Y (m/s²);GRAVITY Z (m/s²);LINEAR ACCELERATION X (m/s²);LINEAR ACCELERATION Y (m/s²);LINEAR ACCELERATION Z (m/s²);GYROSCOPE X (rad/s);GYROSCOPE Y (rad/s);GYROSCOPE Z (rad/s);LIGHT (lux);MAGNETIC FIELD X (μT);MAGNETIC FIELD Y (μT);MAGNETIC FIELD Z (μT);ORIENTATION X (°);ORIENTATION Y (°);ORIENTATION Z (°);PROXIMITY (i);ATMOSPHERIC PRESSURE (hPa);SOUND LEVEL (dB);LOCATION Latitude : ;LOCATION Longitude : ;LOCATION Altitude ( m);LOCATION Speed ( Kmh);LOCATION Accuracy ( m);Satellites in range;Temperature (F);Level (%);Voltage (Volt);Time since start in ms ;YYYY-MO-DD HH-MI-SS_SSS
0.124498;-9.950302;1.082179;0.898608;-9.732542;0.800314;-0.774109;-0.217759;0.281865;-0.268781;0.140499;-0.090713;213.0;24.9;38.88;6.84;332.36;82.8059;-43.9855;0.0;1017.81;42.92336;;;;;;0 / 0;85.8;45.0;3.667;31;2014-11-17 16:56:05:607
-0.038307;-9.873688;1.407791;0.949087;-9.734002;0.720277;-0.987395;-0.139685;0.687513;-0.125227;0.065668;-0.051924;213.0;24.6;38.58;6.9;337.7999;82.9517;-48.3112;0.0;1017.81;42.92336;;;;;;0 / 0;85.8;45.0;3.667;112;2014-11-17 16:56:05:688
0.201113;-9.969456;1.790863;0.990202;-9.730342;0.714396;-0.789089;-0.239114;1.076467;-0.013134;0.181427;-0.020159;213.0;24.3;39.06;7.86;345.3081;82.8477;-54.1909;0.0;1017.78;42.92336;;;;;;0 / 0;85.8;45.0;3.667;176;2014-11-17 16:56:05:752
-0.23942;-10.390836;3.648764;0.993278;-9.722062;0.815661;-1.232698;-0.668774;2.833102;0.70952;0.102015;0.302073;213.0;24.12;39.54;8.4;342.4801;82.4691;-50.6078;0.0;1017.78;42.92336;;;;;;0 / 0;85.8;45.0;3.667;241;2014-11-17 16:56:05:817
-0.019154;-11.45386;3.754108;0.853691;-9.691356;1.232557;-0.872845;-1.762505;2.521551;1.184773;0.255953;0.497855;216.0;24.06;39.78;8.4;342.4801;82.4691;-50.6078;0.0;1017.78;52.86927;;;;;;0 / 0;85.8;45.0;3.667;302;2014-11-17 16:56:05:878
0.679953;-8.580818;0.162806;0.449805;-9.469778;2.50826;0.230148;0.888959;-2.345454;1.232726;-0.072082;0.37782;224.0;25.2;40.14;7.86;329.056;81.2056;-34.7072;0.0;1017.8;52.86927;;;;;;0 / 0;85.8;45.0;3.667;371;2014-11-17 16:56:05:947
0.679953;-8.580818;0.162806;0.449805;-9.469778;2.50826;0.230148;0.888959;-2.345454;0.594066;0.112705;0.387289;227.0;25.62;40.44;7.14;311.4084;74.9388;-10.1668;0.0;1017.8;52.86927;;;;;;0 / 0;85.8;45.0;3.667;421;2014-11-17 16:56:05:997
-0.009577;-8.619126;1.541866;0.256981;-9.373998;2.869233;-0.266557;0.754872;-1.327367;0.277333;0.061697;0.354302;227.0;27.12;40.98;4.56;305.8468;72.9173;-5.118;0.0;1017.8;52.86927;;;;;;0 / 0;85.8;45.0;3.667;478;2014-11-17 16:56:06:054
-0.335188;-9.088388;2.375048;0.056707;-9.312016;3.07466;-0.391896;0.223626;-0.699612;0.228769;0.031154;0.411723;230.0;27.54;41.22;3.48;305.8468;72.9173;-5.118;0.0;1017.91;52.86927;;;;;;0 / 0;85.8;45.0;3.667;528;2014-11-17 16:56:06:104
-0.842759;-7.268796;2.422932;-0.146463;-9.288894;3.140926;-0.696296;2.020097;-0.717993;-0.209527;-0.131031;0.339336;230.0;28.68;41.52;2.76;297.3027;71.2988;2.6698;0.0;1017.91;52.86927;;;;;;0 / 0;85.8;45.0;3.667;593;2014-11-17 16:56:06:169
-0.584185;-8.532934;2.844312;-0.255415;-9.320918;3.037373;-0.32877;0.787983;-0.193062;-0.235489;-0.631024;0.20861;223.0;29.76;42.12;2.88;294.1341;71.8914;4.8067;0.0;1017.91;55.25151;;;;;;0 / 0;85.8;45.0;3.667;649;2014-11-17 16:56:06:225
-0.612916;-8.887276;3.1795;-0.2145;-9.35867;2.922269;-0.398415;0.471395;0.257231;-0.317344;-0.78038;0.151495;216.0;30.42;42.72;3.06;294.1341;71.8914;4.8067;0.0;1017.75;55.25151;;;;;;0 / 0;85.8;45.0;3.667;708;2014-11-17 16:56:06:284
0.459687;-9.854534;3.667917;-0.132061;-9.41606;2.736924;0.591748;-0.438473;0.930993;-0.346971;-0.754113;0.174097;204.0;30.66;44.16;3.18;293.9593;72.615;4.1981;0.0;1017.75;55.25151;;;;;;0 / 0;85.8;45.0;3.667;768;2014-11-17 16:56:06:344
-0.794875;-9.461884;3.897761;-0.098679;-9.453056;2.607749;-0.696196;-0.008828;1.290011;-0.276416;-0.759916;0.216857;200.0;30.72;44.52;3.12;294.2543;73.7748;2.7625;0.0;1017.75;55.25151;;;;;;0 / 0;85.8;45.0;3.667;822;2014-11-17 16:56:06:398
0.038307;-14.882358;4.951209;-0.010569;-9.51062;2.391309;0.048876;-5.371736;2.5599;-0.726319;-0.639881;-0.121868;198.0;31.08;46.44;2.88;294.2857;75.8862;0.2532;0.0;1017.87;55.25151;;;;;;0 / 0;85.8;45.0;3.667;878;2014-11-17 16:56:06:454
0.861913;-4.453215;-5.324704;0.179202;-9.556866;2.191934;0.682711;5.103652;-7.516639;-0.651793;-0.57177;0.096211;200.0;31.38;47.34;2.4;294.2857;75.8862;0.2532;0.0;1017.87;55.25151;;;;;;0 / 0;85.8;45.0;3.667;945;2014-11-17 16:56:06:521
0.296881;-11.21444;-1.723825;0.165056;-9.69814;1.445414;0.131825;-1.5163;-3.169239;-1.346958;-0.04215;-0.22602;195.0;32.34;49.02;2.64;295.6666;77.0406;-4.6738;0.0;1017.87;55.25151;;;;;;0 / 0;85.8;45.0;3.667;1004;2014-11-17 16:56:06:580
-0.517148;-8.90643;-1.723825;0.287981;-9.77932;0.672568;-0.805129;0.872891;-2.396393;-1.058324;-0.034208;-0.092546;197.0;32.58;51.18;5.4;295.4849;81.4687;-6.5146;0.0;1017.88;56.65468;;;;;;0 / 0;85.8;45.0;3.667;1071;2014-11-17 16:56:06:647
0.153229;-9.816226;-1.953669;0.379377;-9.799276;0.02505;-0.226148;-0.01695;-1.978718;-1.040303;-0.204945;-0.108429;197.0;32.4;52.02;7.38;8.0722;87.7781;-86.2223;0.0;1017.88;56.65468;;;;;;0 / 0;85.8;45.0;3.667;1132;2014-11-17 16:56:06:708
0.986411;-9.23204;-0.574608;0.480879;-9.778066;-0.5732;0.505532;0.546025;-0.001408;-1.042747;0.451735;0.165239;194.0;32.34;53.16;11.28;62.9216;85.6244;-140.0054;0.0;1017.88;56.65468;;;;;;0 / 0;85.8;45.0;3.667;1190;2014-11-17 16:56:06:766
-0.612916;-8.944736;-3.074155;0.487298;-9.727674;-1.142505;-1.100214;0.782936;-1.93165;-1.029919;0.771217;-0.125533;194.0;32.46;53.7;13.38;62.9216;85.6244;-140.0054;0.0;1017.87;56.65468;;;;;;0 / 0;85.8;45.0;3.667;1251;2014-11-17 16:56:06:827
-0.679953;-9.337386;-1.580173;0.640099;-9.628542;-1.746959;-1.320053;0.291155;0.166786;-0.964251;0.141721;-0.129503;198.0;32.58;54.48;18.3;82.0998;82.7235;-156.9009;0.0;1017.87;56.65468;;;;;;0 / 0;85.8;45.0;3.667;1317;2014-11-17 16:56:06:893
1.972822;-9.23204;-2.260126;0.789344;-9.499178;-2.304977;1.183478;0.267138;0.04485;-1.172556;0.238237;-0.156076;195.0;32.7;55.02;20.58;82.8407;75.6146;-161.0961;0.0;1017.87;56.65468;;;;;;0 / 0;85.8;45.0;3.667;1372;2014-11-17 16:56:06:948
-1.790863;-9.509768;-1.197101;0.952112;-9.31015;-2.930014;-2.742974;-0.199618;1.732913;-0.938594;0.768163;-0.178067;197.0;32.28;55.32;23.16;82.8407;75.6146;-161.0961;0.0;1017.72;62.35349;;;;;;0 / 0;85.8;45.0;3.667;1422;2014-11-17 16:56:06:998
-0.143652;-10.323798;-4.434061;1.17592;-9.118486;-3.411857;-1.319572;-1.205311;-1.022205;-0.840245;0.559553;-0.036652;201.0;31.98;55.86;27.84;84.7922;71.6901;-161.9984;0.0;1017.72;62.35349;;;;;;0 / 0;85.8;45.0;3.667;1481;2014-11-17 16:56:07:057
-3.725378;-13.560758;1.292869;1.212777;-9.037238;-3.609419;-4.938155;-4.52352;4.902288;-0.667065;0.816421;-0.004276;200.0;31.86;55.8;30.3;82.9548;67.1525;-161.4275;0.0;1017.72;62.35349;;;;;;0 / 0;85.8;45.0;3.667;1537;2014-11-17 16:56:07:113
1.417368;-11.386824;3.045425;1.093546;-9.226884;-3.136744;0.323821;-2.15994;6.182169;1.668884;0.266032;1.04855;200.0;33.6;56.64;31.5;88.1074;70.1999;-160.7802;0.0;1017.72;62.35349;;;;;;0 / 0;85.8;45.0;3.667;1603;2014-11-17 16:56:07:179
6.215348;-12.794614;-4.635174;0.675959;-9.617536;-1.79345;5.539389;-3.177078;-2.841724;2.97186;1.02045;0.95295;208.0;40.02;57.3;23.16;85.1448;78.7296;-159.3484;0.0;1017.72;62.35349;;;;;;0 / 0;85.8;45.0;3.667;1678;2014-11-17 16:56:07:254
-0.344765;-9.615114;-2.585738;-0.214086;-9.739526;1.125241;-0.130679;0.124413;-3.710979;2.342363;0.445321;0.892169;215.0;48.0;53.94;9.48;277.21;83.2925;10.7722;0.0;1017.72;62.35349;;;;;;0 / 0;85.8;45.0;3.667;1762;2014-11-17 16:56:07:338
0.363919;-7.872135;-2.413355;-0.652404;-9.510858;2.299635;1.016323;1.638724;-4.712991;2.108707;-0.082467;0.865902;223.0;50.94;50.4;3.18;277.21;83.2925;10.7722;0.0;1017.9;62.27672;;;;;;0 / 0;85.8;45.0;3.667;1817;2014-11-17 16:56:07:393
0.42138;-6.521805;-1.810016;-0.831592;-9.250142;3.148606;1.252972;2.728338;-4.958622;1.564731;-1.145067;0.740369;224.0;52.8;46.02;-1.74;264.6966;75.8919;15.8386;0.0;1017.9;62.27672;;;;;;0 / 0;85.8;45.0;3.667;1873;2014-11-17 16:56:07:449
0.42138;-6.521805;-1.810016;-0.831592;-9.250142;3.148606;1.252972;2.728338;-4.958622;0.198226;0.193339;0.603535;224.0;53.34;39.18;-8.34;264.6966;75.8919;15.8386;0.0;1017.9;62.27672;;;;;;0 / 0;85.8;45.0;3.667;1925;2014-11-17 16:56:07:501
-0.881066;-6.301539;0.976834;-1.07739;-9.117208;3.447629;0.196324;2.815669;-2.470794;-0.340863;0.362854;0.547641;230.0;52.44;31.8;-12.78;256.2601;68.3875;17.3541;0.0;1017.9;62.27672;;;;;;0 / 0;85.8;45.0;3.667;1976;2014-11-17 16:56:07:552
-0.957681;-7.891289;2.911349;-1.387398;-9.165714;3.199247;0.429717;1.274427;-0.287897;-0.876592;-0.073304;0.460898;227.0;52.02;29.28;-13.5;244.6276;69.1705;23.4446;0.0;1017.9;62.27672;;;;;;0 / 0;85.8;45.0;3.667;2035;2014-11-17 16:56:07:611
-2.700659;-10.955866;8.111555;-1.476119;-9.219728;2.998011;-1.224541;-1.736138;5.113544;-0.10965;-1.34146;-6.11E-4;227.0;50.88;26.52;-13.26;240.1688;70.0769;26.2141;0.0;1017.9;62.27672;;;;;;0 / 0;85.8;45.0;3.667;2100;2014-11-17 16:56:07:676
0.632069;-9.59596;5.401319;-1.160953;-9.233272;3.093426;1.793022;-0.362689;2.307894;-0.061087;-1.218982;-0.098655;218.0;49.86;24.9;-13.68;240.1688;70.0769;26.2141;0.0;1017.84;58.81026;;;;;;0 / 0;85.8;45.0;3.667;2150;2014-11-17 16:56:07:726
1.551443;-7.987056;-5.899313;-0.831968;-9.286962;3.038179;2.383411;1.299906;-8.93749;-0.915076;-0.327118;-0.07086;202.0;44.64;21.42;-16.62;241.7076;70.3104;20.571;0.0;1017.84;58.81026;;;;;;0 / 0;85.8;45.0;3.667;2202;2014-11-17 16:56:07:778
-2.020706;-12.995726;1.130063;-0.707226;-9.437894;2.568341;-1.31348;-3.557833;-1.438278;-0.674395;-0.106291;-0.048869;200.0;41.88;19.56;-17.16;239.6444;74.2378;15.3956;0.0;1017.84;58.81026;;;;;;0 / 0;85.8;45.0;3.667;2271;2014-11-17 16:56:07:847
5.48751;-5.96635;-3.878607;-0.546619;-9.57538;2.045398;6.03413;3.609031;-5.924005;-1.645366;0.249233;-0.172875;194.0;36.42;17.16;-17.1;234.7956;77.5321;14.9623;0.0;1017.76;58.81026;;;;;;0 / 0;85.8;45.0;3.667;2337;2014-11-17 16:56:07:913
-0.871489;-10.515334;-1.474828;-0.405667;-9.739068;1.075348;-0.465822;-0.776266;-2.550176;-1.3943;0.242514;-0.43402;191.0;35.1;17.4;-15.9;234.7956;77.5321;14.9623;0.0;1017.76;58.81026;;;;;;0 / 0;85.8;45.0;3.667;2387;2014-11-17 16:56:07:963
-0.45011;-9.423578;-1.991976;-0.301754;-9.798104;0.276506;-0.148356;0.374526;-2.268481;-1.198823;0.674701;-0.012828;191.0;33.24;18.12;-14.04;228.1554;83.2696;20.6686;0.0;1017.76;58.81026;;;;;;0 / 0;85.8;45.0;3.667;2443;2014-11-17 16:56:08:019
-1.130063;-9.59596;-0.833182;-0.275443;-9.79319;-0.433541;-0.85462;0.197229;-0.399641;-1.112691;1.130406;0.039401;195.0;33.72;19.02;-12.54;99.9461;86.9977;147.5709;0.0;1017.85;58.81026;;;;;;0 / 0;85.8;45.0;3.667;2503;2014-11-17 16:56:08:079
-0.967257;-9.136272;-1.187524;-0.209555;-9.745824;-1.070248;-0.757703;0.609551;-0.117276;-0.958142;0.930653;-0.063835;200.0;34.56;19.68;-9.18;83.1748;83.6151;168.9216;0.0;1017.85;63.26403;;;;;;0 / 0;85.8;45.0;3.667;2563;2014-11-17 16:56:08:139
-1.426944;-9.289502;-1.541866;-0.037818;-9.666548;-1.651307;-1.389126;0.377047;0.109441;-0.998765;0.662483;-0.180816;205.0;35.34;20.1;-7.2;83.1748;83.6151;168.9216;0.0;1017.85;63.26403;;;;;;0 / 0;85.8;45.0;3.667;2618;2014-11-17 16:56:08:194
0.909797;-9.414;-0.699107;0.170024;-9.55381;-2.205948;0.739772;0.13981;1.506841;-1.069625;0.22266;-0.191201;200.0;35.1;20.76;-4.32;76.4107;80.3034;178.6881;0.0;1017.81;63.26403;;;;;;0 / 0;85.8;45.0;3.667;2680;2014-11-17 16:56:08:256
-1.944092;-9.097966;-3.131616;0.343653;-9.40048;-2.771875;-2.287745;0.302514;-0.359741;-0.901332;0.368046;-0.312458;200.0;34.56;20.64;-3.36;69.3328;73.4521;-172.9326;0.0;1017.81;63.26403;;;;;;0 / 0;85.8;45.0;3.667;2750;2014-11-17 16:56:08:326
1.158794;-9.816226;-2.432509;0.600739;-9.231546;-3.253929;0.558055;-0.58468;0.82142;-0.810007;0.035736;-0.057727;200.0;32.76;20.52;-2.1;65.5689;70.2805;-169.5398;0.0;1017.81;63.26403;;;;;;0 / 0;85.8;45.0;3.667;2807;2014-11-17 16:56:08:383
1.177947;-11.128248;-2.317587;0.716687;-9.090672;-3.607824;0.46126;-2.037577;1.290237;-0.637743;0.641103;-0.090713;191.0;31.62;20.4;-1.56;65.5689;70.2805;-169.5398;0.0;1017.94;63.26403;;;;;;0 / 0;85.8;45.0;3.667;2860;2014-11-17 16:56:08:436
-5.813122;-13.110648;0.114922;0.793292;-9.050496;-3.691829;-6.606414;-4.060152;3.80675;-0.482584;1.040914;-0.053145;191.0;30.12;20.1;-0.54;64.6803;67.9705;-168.7646;0.0;1017.94;61.04204;;;;;;0 / 0;85.8;45.0;3.667;2915;2014-11-17 16:56:08:491
4.405331;-11.262324;4.060566;0.770606;-9.265248;-3.119569;3.634725;-1.997076;7.180136;1.369865;0.647212;0.948979;200.0;26.52;17.28;1.98;69.738;70.8726;-166.1244;0.0;1017.94;61.04204;;;;;;0 / 0;85.8;45.0;3.667;2982;2014-11-17 16:56:08:558
3.313575;-12.717998;-4.999093;0.321377;-9.64856;-1.724054;2.992199;-3.069438;-3.275039;2.704301;0.665538;0.701884;208.0;22.08;12.66;5.28;86.3065;79.6982;-169.4408;0.0;1017.96;61.04204;;;;;;0 / 0;85.8;45.0;3.667;3056;2014-11-17 16:56:08:632
0.68953;-12.785036;-3.438074;0.0015;-9.803466;-0.249836;0.688031;-2.98157;-3.188237;2.819449;-0.389732;0.656069;216.0;18.3;9.06;9.9;118.1402;88.5401;-179.6561;0.0;1017.96;61.04204;;;;;;0 / 0;85.8;45.0;3.667;3121;2014-11-17 16:56:08:697
-0.287304;-9.442732;-2.806004;-0.320433;-9.714406;1.303083;0.033129;0.271674;-4.109087;2.434298;-0.66004;0.588263;224.0;17.46;8.76;12.36;118.1402;88.5401;-179.6561;0.0;1017.96;61.04204;;;;;;0 / 0;85.8;45.0;3.667;3174;2014-11-17 16:56:08:750
0.316035;-5.928043;-1.570596;-0.786461;-9.117342;3.525044;1.102496;3.1893;-5.09564;1.502423;-0.947147;0.798095;229.0;17.46;11.16;16.56;307.9676;74.1922;11.7305;0.0;1017.9;61.04204;;;;;;0 / 0;85.8;45.0;3.667;3267;2014-11-17 16:56:08:843
0.545878;-5.430049;0.105345;-0.959387;-8.957542;3.874583;1.505265;3.527493;-3.769238;0.092852;-0.116675;0.370795;227.0;18.9;15.6;17.58;308.7903;65.9816;13.9073;0.0;1017.9;64.66486;;;;;;0 / 0;85.8;45.0;3.667;3340;2014-11-17 16:56:08:916
0.545878;-8.590396;5.152323;0.36345;-9.767126;-0.800982;0.182428;1.17673;5.953305;-0.650571;-0.161268;0.09499;222.0;19.32;17.7;17.52;308.7903;65.9816;13.9073;0.0;1017.85;64.66486;;;;;;0 / 0;85.8;45.0;3.667;3400;2014-11-17 16:56:08:976
-3.706224;-11.520898;7.49864;-0.05563;-9.805414;0.1454;-3.650595;-1.715484;7.35324;0.017104;-0.901637;0.252593;222.0;19.44;20.4;18.54;103.9896;84.854;-155.5936;0.0;1017.85;64.66486;;;;;;0 / 0;85.8;45.0;3.667;3477;2014-11-17 16:56:09:053
-2.911349;-7.412448;2.231396;-0.370802;-9.792166;0.382587;-2.540547;2.379717;1.848809;-0.355524;-1.00976;0.243124;222.0;20.34;24.36;20.4;273.3128;86.8855;44.1038;0.0;1017.85;64.66486;;;;;;0 / 0;85.8;45.0;3.667;3543;2014-11-17 16:56:09:119
3.610456;-19.201498;11.147404;-0.394993;-9.796554;0.204694;4.005449;-9.404942;10.942708;-0.258701;-2.169793;-0.153938;208.0;21.0;26.46;20.28;253.2475;87.3998;62.6058;0.0;1017.84;64.66486;;;;;;0 / 0;85.8;45.0;3.667;3600;2014-11-17 16:56:09:176
3.122039;-3.916914;-7.335834;0.371182;-9.788838;0.459629;2.750857;5.871926;-7.795463;-1.231504;-1.642006;0.426079;201.0;22.32;28.92;20.04;253.2475;87.3998;62.6058;0.0;1017.84;63.04077;;;;;;0 / 0;85.8;45.0;3.667;3651;2014-11-17 16:56:09:227
-1.599327;-11.971008;-2.384625;0.206665;-9.80425;0.066173;-1.805992;-2.166757;-2.450798;-1.831985;0.211665;-0.448375;195.0;23.76;31.44;20.4;21.5925;88.7319;-72.2452;0.0;1017.84;63.04077;;;;;;0 / 0;85.8;45.0;3.667;3713;2014-11-17 16:56:09:289
-0.612916;-8.647856;-2.020706;0.105805;-9.805652;-0.091499;-0.71872;1.157796;-1.929207;-1.153314;-0.123089;-0.032681;194.0;24.42;33.36;23.4;83.8281;89.1827;-130.853;0.0;1017.93;63.04077;;;;;;0 / 0;85.8;45.0;3.667;3783;2014-11-17 16:56:09:359
-0.833182;-9.5385;0.277727;0.032357;-9.805544;-0.143629;-0.865539;0.267045;0.421356;-1.281595;0.793514;-0.093768;191.0;23.82;34.32;27.9;105.9463;88.6387;-147.7589;0.0;1017.93;63.04077;;;;;;0 / 0;85.8;45.0;3.667;3860;2014-11-17 16:56:09:436
-0.833182;-9.5385;0.277727;0.032357;-9.805544;-0.143629;-0.865539;0.267045;0.421356;-0.983493;0.961197;-0.108429;194.0;23.46;34.62;29.76;105.9463;88.6387;-147.7589;0.0;1017.93;63.04077;;;;;;0 / 0;85.8;45.0;3.667;3910;2014-11-17 16:56:09:486
-1.465251;-9.155426;-1.733402;-0.116268;-9.801928;-0.281253;-1.348984;0.646501;-1.452149;-0.788932;0.50091;-0.065057;197.0;22.98;34.68;31.68;166.3747;88.2216;157.5403;0.0;1017.77;63.04077;;;;;;0 / 0;85.8;45.0;3.667;3960;2014-11-17 16:56:09:536
1.11091;-9.17458;-1.944092;0.006605;-9.795652;-0.464264;1.104305;0.621073;-1.479828;-0.967611;0.160963;-0.043371;197.0;22.08;35.46;35.22;145.7082;87.2863;-179.185;0.0;1017.77;61.82035;;;;;;0 / 0;85.8;45.0;3.667;4014;2014-11-17 16:56:09:590
1.340753;-9.471462;-2.30801;0.158152;-9.781444;-0.684665;1.182601;0.309981;-1.623345;-1.320385;0.460898;-0.385761;193.0;21.84;35.82;36.9;145.7082;87.2863;-179.185;0.0;1017.77;61.82035;;;;;;0 / 0;85.8;45.0;3.667;4068;2014-11-17 16:56:09:644
-2.336741;-9.844956;-1.742979;-0.078094;-9.77352;-0.801626;-2.258647;-0.071437;-0.941353;-0.937984;0.477391;-0.244652;190.0;21.06;36.24;40.2;135.1611;85.891;-166.9933;0.0;1017.81;61.82035;;;;;;0 / 0;85.8;45.0;3.667;4128;2014-11-17 16:56:09:704
0.919373;-11.540052;-3.265691;-0.008923;-9.754678;-1.00825;0.928297;-1.785374;-2.257441;-0.770301;0.572992;-0.043677;191.0;20.58;36.66;41.82;151.6042;84.0986;179.4929;0.0;1017.81;61.82035;;;;;;0 / 0;85.8;45.0;3.667;4186;2014-11-17 16:56:09:762
-3.093309;-13.579912;1.532289;-0.313226;-9.775762;-0.711871;-2.780083;-3.80415;2.244161;-0.460287;0.82925;0.166766;184.0;20.52;37.02;43.32;151.6042;84.0986;179.4929;0.0;1017.81;61.82035;;;;;;0 / 0;85.8;45.0;3.667;4238;2014-11-17 16:56:09:814
3.083732;-11.894394;1.11091;-0.057481;-9.801128;-0.323971;3.141213;-2.093265;1.434881;1.83168;0.254425;0.896445;186.0;22.08;40.2;43.8;178.1132;85.4513;156.2504;0.0;1017.87;61.82035;;;;;;0 / 0;85.8;45.0;3.667;4312;2014-11-17 16:56:09:888
5.00867;-12.047622;-3.562572;0.407771;-9.785838;-0.491394;4.600899;-2.261783;-3.071178;2.610227;0.5791;0.62125;202.0;27.36;45.42;36.54;159.086;88.0772;169.9389;0.0;1017.87;64.1037;;;;;;0 / 0;85.8;45.0;3.667;4379;2014-11-17 16:56:09:955
1.455675;-11.66455;-3.275268;0.506628;-9.766516;-0.727249;0.949047;-1.898035;-2.548019;2.466063;0.558636;0.680504;213.0;30.96;47.52;30.72;94.4343;84.8146;-145.1375;0.0;1017.87;64.1037;;;;;;0 / 0;85.8;45.0;3.667;4439;2014-11-17 16:56:10:015
-0.430956;-9.988608;-2.193089;0.408505;-9.761064;-0.851534;-0.839461;-0.227544;-1.341555;2.116954;-0.242819;0.614225;227.0;37.38;48.42;18.36;83.8984;84.4735;-154.3717;0.0;1017.85;64.1037;;;;;;0 / 0;85.8;45.0;3.667;4492;2014-11-17 16:56:10:068
0.612916;-7.900865;-2.202665;0.421591;-9.74419;-1.02147;0.191325;1.843325;-1.181195;1.772731;-0.754419;0.686918;229.0;39.6;47.4;13.32;83.8984;84.4735;-154.3717;0.0;1017.85;64.1037;;;;;;0 / 0;85.8;45.0;3.667;4551;2014-11-17 16:56:10:127
-0.009577;-6.569689;-0.536301;0.389165;-9.741364;-1.060545;-0.398742;3.171676;0.524243;0.969749;-0.357662;0.650877;224.0;42.78;43.26;4.5;72.0512;83.5299;-157.5726;0.0;1017.85;64.1037;;;;;;0 / 0;85.8;45.0;3.667;4609;2014-11-17 16:56:10:185
-0.086191;-6.224924;1.101333;0.364;-9.75174;-0.970293;-0.450191;3.526816;2.071626;-0.152411;0.086132;0.408669;223.0;43.92;41.04;2.04;66.9379;83.9339;-159.4367;0.0;1017.87;64.1037;;;;;;0 / 0;85.8;45.0;3.667;4671;2014-11-17 16:56:10:247
-0.287304;-7.249643;2.154782;0.33612;-9.773174;-0.736529;-0.623424;2.523532;2.89131;-0.686307;-0.397062;-0.049175;227.0;46.2;37.86;0.42;62.087;85.2645;-155.4701;0.0;1017.87;64.1037;;;;;;0 / 0;85.8;45.0;3.667;4748;2014-11-17 16:56:10:324
-0.507571;-9.433154;5.00867;-0.004451;-9.779894;0.723907;-0.50312;0.346739;4.284764;-0.04948;-1.131933;0.043982;224.0;47.4;36.24;0.9;287.6882;88.8374;-15.6244;0.0;1017.87;59.38472;;;;;;0 / 0;85.8;45.0;3.667;4817;2014-11-17 16:56:10:393
1.963245;-11.66455;-2.470816;0.168988;-9.796952;0.401951;1.794258;-1.867598;-2.872767;-0.169515;-0.537867;0.230602;219.0;47.1;35.46;0.54;287.6882;88.8374;-15.6244;0.0;1017.77;59.38472;;;;;;0 / 0;85.8;45.0;3.667;4872;2014-11-17 16:56:10:448
1.963245;-11.66455;-2.470816;0.168988;-9.796952;0.401951;1.794258;-1.867598;-2.872767;-0.71288;-0.302684;-0.294742;213.0;47.28;34.5;0.42;294.5092;87.4516;-22.8028;0.0;1017.77;59.38472;;;;;;0 / 0;85.8;45.0;3.667;4925;2014-11-17 16:56:10:501
-0.095768;-8.580818;-3.648763;0.178258;-9.80491;-0.04832;-0.274026;1.224092;-3.600443;-0.359189;-1.521054;-0.03879;211.0;46.56;33.18;0.0;14.9734;88.9208;-105.1666;0.0;1017.77;59.38472;;;;;;0 / 0;85.8;45.0;3.667;4976;2014-11-17 16:56:10:552
2.509123;-8.255207;-3.936067;0.38072;-9.78455;-0.536668;2.128404;1.529344;-3.3994;-1.641395;0.24679;-0.280998;204.0;45.96;33.06;0.72;14.9734;88.9208;-105.1666;0.0;1017.75;59.38472;;;;;;0 / 0;85.8;45.0;3.667;5026;2014-11-17 16:56:10:602
-0.162806;-10.572794;-0.143652;0.5112;-9.693422;-1.395217;-0.674006;-0.879373;1.251566;-1.35215;0.019548;-0.259312;202.0;45.42;33.36;1.86;54.9436;86.1528;-144.6475;0.0;1017.75;59.38472;;;;;;0 / 0;85.8;45.0;3.667;5083;2014-11-17 16:56:10:659
0.402226;-9.299078;-2.202665;0.619289;-9.5658;-2.069385;-0.217063;0.266722;-0.133281;-1.310611;-0.074526;-0.140194;197.0;44.4;34.5;6.84;72.0806;77.2754;-163.3395;0.0;1017.75;61.58348;;;;;;0 / 0;85.8;45.0;3.667;5162;2014-11-17 16:56:10:738
-0.507571;-9.528922;-1.513135;0.723789;-9.383032;-2.75775;-1.23136;-0.14589;1.244615;-1.242805;0.897972;-0.06353;195.0;44.04;34.56;8.76;74.3841;73.0979;-165.294;0.0;1017.82;61.58348;;;;;;0 / 0;85.8;45.0;3.667;5216;2014-11-17 16:56:10:792
-0.71826;-9.32781;-0.804452;0.953145;-9.180988;-3.312306;-1.671405;-0.146821;2.507855;-1.104444;0.807258;-0.306043;200.0;43.68;34.92;11.1;74.3841;73.0979;-165.294;0.0;1017.82;61.58348;;;;;;0 / 0;85.8;45.0;3.667;5269;2014-11-17 16:56:10:845
-1.503559;-9.56723;-1.331176;1.199873;-8.982542;-3.747619;-2.703431;-0.584687;2.416443;-0.846048;0.153022;-0.26481;200.0;43.2;34.98;16.62;76.4812;69.4229;-163.9464;0.0;1017.82;61.58348;;;;;;0 / 0;85.8;45.0;3.667;5333;2014-11-17 16:56:10:909
1.982399;-8.657434;-1.455675;1.342754;-8.798436;-4.117635;0.639645;0.141004;2.66196;-1.102001;0.396146;-0.149662;197.0;42.3;34.86;21.12;78.5367;66.343;-162.2465;0.0;1017.74;61.58348;;;;;;0 / 0;85.8;45.0;3.667;5410;2014-11-17 16:56:10:986
-0.986411;-9.165004;-2.30801;1.504077;-8.55024;-4.560869;-2.490488;-0.614763;2.252859;-1.107193;0.545197;-0.258396;194.0;41.82;34.5;23.04;78.5191;60.6781;-161.7485;0.0;1017.74;61.58348;;;;;;0 / 0;85.8;45.0;3.667;5464;2014-11-17 16:56:11:040
-0.067038;-9.461884;-2.355894;1.735921;-8.294057;-4.936154;-1.802959;-1.167828;2.58026;-0.831693;0.551306;0.05284;189.0;40.5;33.06;27.72;81.9645;57.7533;-160.6245;0.0;1017.74;57.78763;;;;;;0 / 0;85.8;45.0;3.667;5516;2014-11-17 16:56:11:092
-2.700659;-13.369222;-1.283292;1.718579;-8.275555;-4.973136;-4.419238;-5.093667;3.689844;-0.525039;1.168585;0.125227;180.0;39.42;32.28;30.78;81.9645;57.7533;-160.6245;0.0;1017.74;57.78763;;;;;;0 / 0;85.8;45.0;3.667;5581;2014-11-17 16:56:11:157
-2.126051;-12.56477;1.647211;1.770112;-8.448836;-4.653415;-3.896163;-4.115933;6.300626;1.105361;0.422108;0.714712;180.0;37.38;30.6;35.58;88.3774;57.5512;-160.9363;0.0;1017.74;57.78763;;;;;;0 / 0;85.8;45.0;3.667;5648;2014-11-17 16:56:11:224
6.991069;-11.798626;-2.346318;1.557001;-8.98342;-3.611692;5.434068;-2.815205;1.265375;2.719572;0.729373;0.879035;197.0;35.76;31.02;37.32;96.1906;66.3558;-156.6791;0.0;1017.74;57.78763;;;;;;0 / 0;85.8;45.0;3.667;5713;2014-11-17 16:56:11:289
-0.191536;-10.28549;-2.193089;0.757956;-9.75838;-0.608206;-0.949492;-0.52711;-1.584883;2.338698;0.632551;0.86132;230.0;35.04;33.18;36.42;98.3393;76.1785;-150.7849;0.0;1017.91;57.78763;;;;;;0 / 0;85.8;45.0;3.667;5789;2014-11-17 16:56:11:365
-0.593762;-8.45632;-2.240973;0.378323;-9.775568;0.682305;-0.972085;1.319247;-2.923278;2.352137;0.147219;0.705549;230.0;34.2;35.28;34.86;80.5803;84.3128;-128.7446;0.0;1017.91;64.44426;;;;;;0 / 0;85.8;45.0;3.667;5842;2014-11-17 16:56:11:418
0.727837;-7.814674;-0.679953;0.202214;-9.650212;1.732881;0.525624;1.835539;-2.412834;1.751351;-1.401325;0.577879;237.0;34.86;40.56;28.38;339.0952;85.437;-29.0074;0.0;1017.91;64.44426;;;;;;0 / 0;85.8;45.0;3.667;5902;2014-11-17 16:56:11:478
-0.038307;-6.885724;0.507571;-0.019733;-9.50644;2.40782;-0.018574;2.620717;-1.900249;0.848797;-0.403782;0.683558;234.0;35.52;42.66;24.06;339.0952;85.437;-29.0074;0.0;1017.91;64.44426;;;;;;0 / 0;85.8;45.0;3.667;5956;2014-11-17 16:56:11:532
-0.038307;-6.885724;0.507571;-0.019733;-9.50644;2.40782;-0.018574;2.620717;-1.900249;0.234572;0.307265;0.590096;229.0;36.84;44.16;20.64;309.7058;75.7864;0.4696;0.0;1017.91;64.44426;;;;;;0 / 0;85.8;45.0;3.667;6007;2014-11-17 16:56:11:583
-0.383072;-5.90889;1.063026;-0.35188;-9.450876;2.593741;-0.031192;3.541988;-1.530716;-0.122173;0.114537;0.370795;227.0;38.46;45.36;17.22;300.2819;74.5195;7.7259;0.0;1017.91;64.44426;;;;;;0 / 0;85.8;45.0;3.667;6060;2014-11-17 16:56:11:636
0.009577;-13.752294;1.513135;0.015839;-9.549708;2.230071;-0.006262;-4.202586;-0.716936;0.375377;-1.64506;0.024435;224.0;39.72;48.9;19.74;299.8191;74.5195;7.7259;0.0;1017.85;56.80577;;;;;;0 / 0;85.8;45.0;3.667;6270;2014-11-17 16:56:11:846
1.991976;-8.791508;-3.524265;0.280926;-9.556186;2.184215;1.71105;0.764677;-5.70848;0.165544;-0.619417;-0.106596;180.0;40.38;51.0;18.9;313.0434;77.0228;-7.329;0.0;1017.85;56.80577;;;;;;0 / 0;85.8;45.0;3.667;6328;2014-11-17 16:56:11:904
3.332729;-7.948749;-2.06859;0.344675;-9.637394;1.781082;2.988054;1.688644;-3.849672;-1.360091;0.439823;0.250455;176.0;40.92;52.86;18.18;313.0434;77.0228;-7.329;0.0;1017.85;56.80577;;;;;;0 / 0;85.8;45.0;3.667;6393;2014-11-17 16:56:11:969
-0.325611;-10.7356;0.919373;0.413238;-9.754832;0.918073;-0.738849;-0.980767;0.001301;-1.290453;0.279165;-0.320399;180.0;41.76;55.2;19.32;313.5478;79.3395;-10.9525;0.0;1017.8;56.80577;;;;;;0 / 0;85.8;45.0;3.667;6463;2014-11-17 16:56:12:039
-0.823605;-9.749188;-0.335188;0.530183;-9.784224;0.397851;-1.353788;0.035034;-0.733039;-0.631635;-0.881479;-0.118202;176.0;40.56;56.04;24.3;325.2944;84.1074;-24.2332;0.0;1017.8;56.80577;;;;;;0 / 0;85.8;45.0;3.667;6531;2014-11-17 16:56:12:107
0.679953;-9.749188;-0.019154;0.6449;-9.78532;0.04453;0.035054;0.036132;-0.063684;-0.550084;-0.766636;-0.100793;166.0;40.14;56.58;27.12;28.0583;86.2204;-86.05;0.0;1017.8;56.80577;;;;;;0 / 0;85.8;45.0;3.667;6597;2014-11-17 16:56:12:173
1.11091;-9.318232;-1.11091;0.715923;-9.775196;-0.321503;0.394987;0.456963;-0.789406;-0.733344;0.259923;0.034514;154.0;40.14;56.94;29.1;55.8211;85.4098;-114.1836;0.0;1017.83;60.73305;;;;;;0 / 0;85.8;45.0;3.667;6664;2014-11-17 16:56:12:240
-1.120486;-10.151414;1.426944;0.736086;-9.756142;-0.668015;-1.856573;-0.395272;2.094959;-0.475253;-0.025351;-0.166155;153.0;39.9;56.7;32.34;74.6845;84.1824;-132.2245;0.0;1017.83;60.73305;;;;;;0 / 0;85.8;45.0;3.667;6718;2014-11-17 16:56:12:294
0.526724;-9.701304;-0.383072;0.831521;-9.731586;-0.880451;-0.304796;0.030281;0.497378;-0.386372;-0.510378;-0.076358;150.0;39.78;56.82;34.32;74.6845;84.1824;-132.2245;0.0;1017.83;60.73305;;;;;;0 / 0;85.8;45.0;3.667;6783;2014-11-17 16:56:12:359
-1.130063;-11.2719;1.474828;0.917641;-9.679912;-1.275782;-2.047704;-1.591989;2.75061;-0.19059;0.136528;-0.092241;132.0;39.0;57.3;37.08;86.131;81.7274;-142.3433;0.0;1017.79;60.73305;;;;;;0 / 0;85.8;45.0;3.667;6871;2014-11-17 16:56:12:447
2.710236;-11.674128;1.474828;0.763259;-9.75574;-0.642923;1.946977;-1.918387;2.117751;1.846951;0.470672;0.688751;133.0;39.3;57.42;38.52;89.6197;80.7786;-144.2734;0.0;1017.79;60.73305;;;;;;0 / 0;85.8;45.0;3.667;6936;2014-11-17 16:56:12:512
2.336741;-11.329362;-0.68953;0.666921;-9.7651;0.606965;1.66982;-1.564261;-1.296495;2.182316;1.17897;0.067806;128.0;40.38;59.76;36.42;359.7104;84.7239;-47.6947;0.0;1017.95;60.94658;;;;;;0 / 0;85.8;45.0;3.667;7003;2014-11-17 16:56:12:579
-0.287304;-9.739612;-1.82917;0.420039;-9.646386;1.714989;-0.707343;-0.093225;-3.544158;1.435228;2.249817;0.493274;133.0;40.44;61.74;34.2;359.7104;84.7239;-47.6947;0.0;1017.95;60.94658;;;;;;0 / 0;85.8;45.0;3.667;7064;2014-11-17 16:56:12:640
0.632069;-8.734048;-1.608903;0.047999;-9.529242;2.315518;0.58407;0.795195;-3.924422;0.639576;-0.425468;0.103236;131.0;39.6;65.64;29.22;328.7382;79.6274;-13.7621;0.0;1017.95;60.94658;;;;;;0 / 0;85.8;45.0;3.667;7145;2014-11-17 16:56:12:721
1.810017;-6.799533;0.105345;0.065634;-9.461816;2.576847;1.744383;2.662283;-2.471502;-0.310625;0.412029;0.147524;125.0;39.78;67.38;25.74;319.3531;74.7607;-1.459;0.0;1017.91;60.94658;;;;;;0 / 0;85.8;45.0;3.667;7207;2014-11-17 16:56:12:783
1.005565;-6.253655;-0.833182;0.044128;-9.535154;2.291127;0.961436;3.2815;-3.124309;-1.18966;-0.156076;-0.230296;125.0;39.9;67.32;25.32;315.8551;76.4866;-1.1034;0.0;1017.91;60.94658;;;;;;0 / 0;85.8;45.0;3.667;7267;2014-11-17 16:56:12:843
-0.670376;-8.90643;-1.225831;0.210893;-9.671278;1.610057;-0.88127;0.764848;-2.835888;-1.512502;0.341168;-0.208305;125.0;39.36;66.84;26.16;315.8551;76.4866;-1.1034;0.0;1017.91;60.94658;;;;;;0 / 0;85.8;45.0;3.667;7317;2014-11-17 16:56:12:893
0.976834;-13.637372;1.149217;0.14688;-9.758522;0.959194;0.829954;-3.87885;0.190023;0.171959;-0.174402;0.248928;129.0;38.58;64.74;32.16;321.7541;80.4689;-7.4624;0.0;1017.81;62.81972;;;;;;0 / 0;85.8;45.0;3.667;7373;2014-11-17 16:56:12:949
4.098873;-7.479486;1.455675;0.395675;-9.769008;0.761789;3.703198;2.289522;0.693885;0.240986;-0.177762;-0.138361;122.0;38.22;62.94;36.66;341.256;84.9782;-27.4475;0.0;1017.81;62.81972;;;;;;0 / 0;85.8;45.0;3.667;7441;2014-11-17 16:56:13:017
-3.332729;-10.869676;2.662352;0.436995;-9.766662;0.769244;-3.769724;-1.103013;1.893109;-0.660956;0.460898;-0.032987;120.0;38.16;62.58;37.56;346.0108;84.8241;-29.6002;0.0;1017.81;62.81972;;;;;;0 / 0;85.8;45.0;3.667;7495;2014-11-17 16:56:13:071
1.675941;-9.615114;1.273715;0.432736;-9.778512;0.603171;1.243206;0.163398;0.670544;-0.196088;0.497244;0.111788;122.0;37.32;62.46;38.4;346.0108;84.8241;-29.6002;0.0;1017.81;62.81972;;;;;;0 / 0;85.8;45.0;3.667;7548;2014-11-17 16:56:13:124
0.248997;-9.672574;0.699107;0.392352;-9.773426;0.704682;-0.143355;0.100851;-0.005575;-0.142332;0.211665;0.058948;117.0;36.96;62.64;39.24;352.7732;85.6586;-35.657;0.0;1017.81;62.81972;;;;;;0 / 0;85.8;45.0;3.667;7623;2014-11-17 16:56:13:199
0.296881;-9.739612;1.034295;0.403767;-9.776806;0.649195;-0.106886;0.037193;0.3851;0.033292;0.036346;0.04612;115.0;36.84;62.88;39.42;349.325;85.5288;-31.8796;0.0;1017.81;62.81972;;;;;;0 / 0;85.8;45.0;3.667;7683;2014-11-17 16:56:13:259
0.517148;-9.375694;0.584185;0.40718;-9.77493;0.674784;0.109967;0.399237;-0.090599;-0.065363;0.012523;0.081245;111.0;36.72;62.58;39.84;349.2943;85.3904;-31.1078;0.0;1017.83;62.03411;;;;;;0 / 0;85.8;45.0;3.667;7747;2014-11-17 16:56:13:323
0.727837;-10.237606;0.948104;0.4132;-9.77647;0.648296;0.314638;-0.461136;0.299808;-0.034208;0.019853;0.032681;114.0;36.6;62.64;40.2;349.2943;85.3904;-31.1078;0.0;1017.83;62.03411;;;;;;0 / 0;85.8;45.0;3.667;7799;2014-11-17 16:56:13:375
0.507571;-9.270348;0.344765;0.417178;-9.776256;0.648982;0.090393;0.505907;-0.304217;-0.020464;-0.032681;0.061392;114.0;36.54;62.52;40.68;351.4111;85.4878;-32.7337;0.0;1017.83;62.03411;;;;;;0 / 0;85.8;45.0;3.667;7859;2014-11-17 16:56:13:435
0.670377;-9.911994;0.526724;0.413664;-9.776158;0.65267;0.256713;-0.135836;-0.125946;-0.029932;-0.050702;0.085827;113.0;36.54;62.76;40.86;351.0742;85.4807;-32.3666;0.0;1017.83;62.03411;;;;;;0 / 0;85.8;45.0;3.667;7922;2014-11-17 16:56:13:498
0.555455;-9.5385;0.823605;0.404197;-9.775834;0.663376;0.151258;0.237335;0.160229;0.013744;-0.050396;0.077885;111.0;36.66;62.88;40.56;351.0742;85.4807;-32.3666;0.0;1017.83;62.03411;;;;;;0 / 0;85.8;45.0;3.667;7979;2014-11-17 16:56:13:555
0.373495;-9.65342;0.574608;0.364346;-9.776816;0.671937;0.009149;0.123395;-0.097328;-0.042455;0.030238;0.07025;111.0;36.3;62.52;40.68;349.3527;85.417;-29.6938;0.0;1017.83;62.03411;;;;;;0 / 0;85.8;45.0;3.667;8057;2014-11-17 16:56:13:633
0.373495;-9.65342;0.574608;0.364346;-9.776816;0.671937;0.009149;0.123395;-0.097328;-0.006109;-0.041233;0.074526;113.0;36.36;62.22;41.1;349.3527;85.417;-29.6938;0.0;1017.83;43.27341;;;;;;0 / 0;85.8;45.0;3.667;8114;2014-11-17 16:56:13:690
-0.191536;-9.730036;1.388637;0.341225;-9.775282;0.705558;-0.532761;0.045247;0.683079;0.092852;-0.127976;0.140499;113.0;36.66;62.04;41.16;345.0279;85.4161;-25.8095;0.0;1017.83;43.27341;;;;;;0 / 0;85.8;45.0;3.667;8166;2014-11-17 16:56:13:742
0.92895;-9.452308;-0.277727;0.335547;-9.779782;0.643146;0.593404;0.327474;-0.920873;0.115148;0.088575;0.057421;111.0;37.14;62.1;40.86;345.0279;85.4161;-25.8095;0.0;1017.83;43.27341;;;;;;0 / 0;85.8;45.0;3.667;8219;2014-11-17 16:56:13:795