sep=;
ACCELEROMETER X (m/s²);ACCELEROMETER Y (m/s²);ACCELEROMETER Z (m/s²);GRAVITY X (m/s²);GRAVITY Y (m/s²);GRAVITY Z (m/s²);LINEAR ACCELERATION X (m/s²);LINEAR ACCELERATION Y (m/s²);LINEAR ACCELERATION Z (m/s²);GYROSCOPE X (rad/s);GYROSCOPE Y (rad/s);GYROSCOPE Z (rad/s);LIGHT (lux);MAGNETIC FIELD X (μT);MAGNETIC FIELD Y (μT);MAGNETIC FIELD Z (μT);ORIENTATION X (°);ORIENTATION Y (°);ORIENTATION Z (°);PROXIMITY (i);ATMOSPHERIC PRESSURE (hPa);SOUND LEVEL (dB);LOCATION Latitude : ;LOCATION Longitude : ;LOCATION Altitude ( m);LOCATION Speed ( Kmh);LOCATION Accuracy ( m);Satellites in range;Temperature (F);Level (%);Voltage (Volt);Time since start in ms ;YYYY-MO-DD HH-MI-SS_SSS
-1.072602;-6.569689;1.283292;-0.17923;-9.21874;3.339624;-0.893373;2.649052;-2.056331;-0.201891;-0.142026;0.28955;274.0;35.22;40.14;-19.32;264.1633;71.4176;-1.1843;0.0;1018.04;65.33267;;;;;;0 / 0;83.8;44.0;3.687;46;2014-11-17 16:58:15:114
-0.172383;-7.326257;3.591303;-0.237742;-9.25928;3.221738;0.065359;1.933023;0.369565;-0.614836;-0.741896;0.1518;274.0;35.28;36.84;-18.36;258.9293;70.06;3.072;0.0;1018.04;60.28617;;;;;;0 / 0;83.8;44.0;3.687;103;2014-11-17 16:58:15:171
0.373495;-8.848968;5.238514;-0.161647;-9.350376;2.952073;0.535143;0.501407;2.286441;-0.404393;0.032987;0.126144;260.0;35.1;36.6;-17.34;258.6074;72.4536;3.1342;0.0;1018.04;60.28617;;;;;;0 / 0;83.8;44.0;3.687;164;2014-11-17 16:58:15:232
-1.120486;-9.366116;4.29041;-0.243957;-9.412716;2.74074;-0.876529;0.046598;1.549669;-0.513127;0.398895;0.288023;260.0;33.96;36.84;-15.0;258.1066;73.705;5.0866;0.0;1018.03;60.28617;;;;;;0 / 0;83.8;44.0;3.687;219;2014-11-17 16:58:15:287
-1.608903;-10.572794;4.10845;-0.486181;-9.45612;2.552605;-1.122723;-1.116673;1.555845;-0.276722;-0.355524;0.258396;263.0;33.18;36.48;-12.0;255.5386;74.6347;10.7837;0.0;1018.03;60.28617;;;;;;0 / 0;83.8;44.0;3.687;291;2014-11-17 16:58:15:359
-1.082179;-9.097966;0.507571;-0.513617;-9.492674;2.407428;-0.568562;0.394708;-1.899857;-0.254425;-0.898583;0.186314;249.0;32.58;36.3;-10.62;255.5386;74.6347;10.7837;0.0;1018.03;60.28617;;;;;;0 / 0;83.8;44.0;3.687;343;2014-11-17 16:58:15:411
2.06859;-12.334928;2.786851;-0.27368;-9.570876;2.119861;2.34227;-2.76405;0.66699;-0.253815;-0.625221;-0.078802;241.0;31.2;36.3;-8.34;260.9644;77.4108;7.3563;0.0;1018.0;60.28617;;;;;;0 / 0;83.8;44.0;3.687;410;2014-11-17 16:58:15:478
-0.038307;-10.036492;-1.493982;-0.081558;-9.774892;0.78437;0.043251;-0.261601;-2.278352;-1.652696;0.502437;-0.064141;233.0;29.34;36.48;-6.0;265.6869;79.9126;5.1436;0.0;1018.0;58.39569;;;;;;0 / 0;83.8;44.0;3.687;486;2014-11-17 16:58:15:554
-0.038307;-10.036492;-1.493982;-0.081558;-9.774892;0.78437;0.043251;-0.261601;-2.278352;-1.229061;0.407447;-0.081551;230.0;28.02;37.74;-1.38;268.3029;85.3877;5.9362;0.0;1018.0;58.39569;;;;;;0 / 0;83.8;44.0;3.687;537;2014-11-17 16:58:15:605
0.354342;-9.251194;-1.8579;0.07743;-9.805912;0.092067;0.276912;0.554718;-1.949967;-1.053742;0.583071;0.001222;222.0;27.66;38.34;1.56;268.3029;85.3877;5.9362;0.0;1018.09;58.39569;;;;;;0 / 0;83.8;44.0;3.687;600;2014-11-17 16:58:15:668
-0.708684;-9.998186;-1.493982;0.125013;-9.789864;-0.559723;-0.833697;-0.208321;-0.934259;-1.011593;0.932791;0.033598;224.0;27.3;39.54;6.84;81.1081;86.6473;-167.4097;0.0;1018.09;58.39569;;;;;;0 / 0;83.8;44.0;3.687;656;2014-11-17 16:58:15:724
-0.181959;-9.097966;-1.838747;0.33816;-9.638188;-1.778018;-0.52012;0.540223;-0.060729;-1.097114;0.876897;-0.072082;229.0;27.12;39.84;9.78;90.991;83.0321;-170.4493;0.0;1018.09;58.39569;;;;;;0 / 0;83.8;44.0;3.687;730;2014-11-17 16:58:15:798
0.574608;-9.452308;-2.087744;0.562421;-9.50739;-2.337435;0.012188;0.055081;0.249691;-1.031446;0.532369;-0.226631;233.0;26.88;40.56;13.68;91.9504;79.3647;-169.2315;0.0;1017.98;58.39569;;;;;;0 / 0;83.8;44.0;3.687;796;2014-11-17 16:58:15:864
-1.158794;-9.088388;-0.861913;0.787665;-9.363634;-2.805765;-1.946458;0.275245;1.943853;-0.92821;0.507018;-0.226631;233.0;25.92;40.62;17.7;91.9504;79.3647;-169.2315;0.0;1017.98;63.34435;;;;;;0 / 0;83.8;44.0;3.687;846;2014-11-17 16:58:15:914
-1.158794;-9.088388;-0.861913;0.787665;-9.363634;-2.805765;-1.946458;0.275245;1.943853;-0.57574;0.776715;-0.114537;233.0;24.36;40.62;22.92;89.5141;72.7124;-164.3189;0.0;1017.98;63.34435;;;;;;0 / 0;83.8;44.0;3.687;897;2014-11-17 16:58:15:965
-0.430956;-10.28549;-3.332729;1.020979;-9.238814;-3.126071;-1.451936;-1.046675;-0.206658;-0.496328;0.728457;0.047037;233.0;22.86;40.14;25.26;94.3389;70.4067;-161.9129;0.0;1018.02;63.34435;;;;;;0 / 0;83.8;44.0;3.687;962;2014-11-17 16:58:16:030
-0.622492;-12.440272;0.220267;1.11037;-9.182656;-3.25826;-1.732863;-3.257616;3.478527;0.282831;1.010982;0.276111;230.0;20.46;39.84;30.06;102.8162;69.4507;-161.1816;0.0;1018.02;63.34435;;;;;;0 / 0;83.8;44.0;3.687;1021;2014-11-17 16:58:16:089
-3.150769;-11.520898;3.677494;1.121975;-9.279014;-2.968415;-4.272744;-2.241885;6.645909;1.766928;0.046731;0.715323;230.0;19.32;40.14;31.5;102.8162;69.4507;-161.1816;0.0;1018.02;63.34435;;;;;;0 / 0;83.8;44.0;3.687;1080;2014-11-17 16:58:16:148
4.10845;-11.980584;-2.260126;0.822372;-9.577704;-1.939492;3.286078;-2.40288;-0.320634;2.24157;0.246179;0.826501;244.0;20.46;43.5;31.02;112.9906;77.5952;-157.0224;0.0;1018.13;63.34435;;;;;;0 / 0;83.8;44.0;3.687;1139;2014-11-17 16:58:16:207
2.30801;-12.660538;-2.336741;0.417912;-9.775904;-0.65377;1.890099;-2.884634;-1.68297;2.243403;0.378736;0.862542;252.0;22.44;46.08;28.5;104.6146;85.4618;-147.4119;0.0;1018.13;63.01541;;;;;;0 / 0;83.8;44.0;3.687;1193;2014-11-17 16:58:16:261
0.268151;-10.52491;-2.557007;-0.033715;-9.783762;0.668749;0.301866;-0.741148;-3.225756;2.29777;-0.525955;0.87873;269.0;25.56;48.66;24.48;104.6146;85.4618;-147.4119;0.0;1018.13;63.01541;;;;;;0 / 0;83.8;44.0;3.687;1256;2014-11-17 16:58:16:324
0.6608;-9.050082;-2.240973;-0.446293;-9.60446;1.930165;1.107092;0.554379;-4.171138;2.01555;-0.598037;0.901943;266.0;32.52;51.24;14.58;305.009;86.0847;2.8861;0.0;1018.16;63.01541;;;;;;0 / 0;83.8;44.0;3.687;1313;2014-11-17 16:58:16:381
0.679953;-7.153875;-1.532289;-0.77671;-9.318112;2.956329;1.456663;2.164239;-4.488618;1.505172;-0.891863;0.869567;266.0;36.12;50.88;8.94;292.6392;71.8388;14.7205;0.0;1018.16;63.01541;;;;;;0 / 0;83.8;44.0;3.687;1368;2014-11-17 16:58:16:436
0.488417;-5.707777;-0.038307;-1.005841;-9.052994;3.633453;1.494258;3.345217;-3.67176;-0.014355;-0.263894;0.457538;266.0;41.46;48.66;-0.84;281.311;67.3908;15.4736;0.0;1018.16;63.01541;;;;;;0 / 0;83.8;44.0;3.687;1418;2014-11-17 16:58:16:486
-1.723825;-5.870582;0.344765;0.165033;-9.778292;-0.726778;-1.888858;3.907709;1.071543;-0.579406;-0.172264;0.300851;262.0;43.32;47.7;-4.2;281.311;67.3908;15.4736;0.0;1018.07;63.01541;;;;;;0 / 0;83.8;44.0;3.687;1471;2014-11-17 16:58:16:539
-2.27928;-11.3964;9.825804;-0.081275;-9.800936;0.324684;-2.198005;-1.595464;9.501122;-0.373544;-0.796568;-0.070555;252.0;46.38;47.1;-6.24;65.5571;85.6415;-167.2065;0.0;1018.07;63.01541;;;;;;0 / 0;83.8;44.0;3.687;1547;2014-11-17 16:58:16:615
-1.848324;-9.86411;5.286398;-0.227508;-9.761682;0.910036;-1.620816;-0.102428;4.376361;-0.290772;-1.236391;-0.018937;244.0;48.18;47.1;-8.1;252.843;84.511;14.0362;0.0;1018.07;60.28614;;;;;;0 / 0;83.8;44.0;3.687;1622;2014-11-17 16:58:16:690
5.707777;-10.888828;-4.146757;0.344257;-9.792968;0.386873;5.363521;-1.095861;-4.53363;-0.804204;-0.456316;-0.041539;230.0;48.9;46.68;-10.62;301.3962;86.973;-41.6641;0.0;1018.07;60.28614;;;;;;0 / 0;83.8;44.0;3.687;1675;2014-11-17 16:58:16:743
-5.774814;-9.787496;-4.003105;-0.228718;-9.803498;-0.097371;-5.546096;0.016002;-3.905734;-0.578184;-0.780686;-0.220217;227.0;48.84;46.14;-12.66;301.3962;86.973;-41.6641;0.0;1018.07;60.28614;;;;;;0 / 0;83.8;44.0;3.687;1725;2014-11-17 16:58:16:793
4.616021;-8.542512;-1.695095;0.188349;-9.797948;-0.36756;4.427672;1.255437;-1.327534;-1.335351;-0.443488;-0.411418;220.0;48.36;45.96;-13.02;140.9294;88.5473;113.0606;0.0;1018.07;60.28614;;;;;;0 / 0;83.8;44.0;3.687;1781;2014-11-17 16:58:16:849
-0.21069;-9.86411;-2.231396;0.222976;-9.789112;-0.542171;-0.433666;-0.074998;-1.689225;-1.139875;-0.086132;-0.211665;216.0;47.94;46.26;-12.36;51.1739;86.5729;-157.6443;0.0;1018.07;60.28614;;;;;;0 / 0;83.8;44.0;3.687;1839;2014-11-17 16:58:16:907
0.785298;-9.509768;-2.537854;0.261596;-9.772814;-0.77076;0.523702;0.263044;-1.767094;-1.331075;0.817032;-0.121562;215.0;47.82;47.64;-9.3;56.8003;85.2391;-161.2528;0.0;1018.07;60.28614;;;;;;0 / 0;83.8;44.0;3.687;1909;2014-11-17 16:58:16:977
-1.16837;-9.83538;-0.804452;0.118726;-9.775248;-0.775139;-1.287097;-0.060133;-0.029313;-1.196074;1.102001;0.004276;218.0;47.58;48.3;-7.08;56.8003;85.2391;-161.2528;0.0;1018.07;63.28809;;;;;;0 / 0;83.8;44.0;3.687;1964;2014-11-17 16:58:17:032
-1.158794;-9.404424;-1.312023;-0.006058;-9.77153;-0.829186;-1.152735;0.367105;-0.482837;-1.107804;1.055575;-0.189674;220.0;49.32;49.74;-0.9;72.1285;85.4135;-171.2918;0.0;1018.07;63.28809;;;;;;0 / 0;83.8;44.0;3.687;2021;2014-11-17 16:58:17:089
-1.273715;-9.586384;-1.149217;-0.123075;-9.76829;-0.857758;-1.15064;0.181907;-0.291458;-0.775188;0.520152;-0.17654;224.0;49.74;50.22;1.98;95.3722;84.9306;171.8347;0.0;1018.07;63.28809;;;;;;0 / 0;83.8;44.0;3.687;2077;2014-11-17 16:58:17:145
1.398214;-9.308656;-1.388637;0.023887;-9.763062;-0.923268;1.374326;0.454408;-0.465369;-0.884838;0.578489;-0.131641;224.0;50.4;50.52;6.18;89.8638;84.5959;-178.5179;0.0;1018.07;63.28809;;;;;;0 / 0;83.8;44.0;3.687;2145;2014-11-17 16:58:17:213
-1.455675;-9.107542;-3.543418;-0.106216;-9.73204;-1.202695;-1.349458;0.624498;-2.340723;-0.937984;0.467312;-0.321315;224.0;50.16;50.4;7.38;89.8638;84.5959;-178.5179;0.0;1018.03;63.28809;;;;;;0 / 0;83.8;44.0;3.687;2202;2014-11-17 16:58:17:270
0.383072;-10.055646;-1.790863;-0.066874;-9.7244;-1.265699;0.449947;-0.331247;-0.525164;-0.511905;0.49419;-0.020464;224.0;50.64;49.56;9.24;97.1018;82.9279;174.953;0.0;1018.03;63.28809;;;;;;0 / 0;83.8;44.0;3.687;2275;2014-11-17 16:58:17:343
-2.413355;-13.350068;0.746991;-0.308985;-9.74927;-1.013229;-2.10437;-3.600798;1.76022;0.4273;1.133461;0.537256;222.0;50.52;48.3;10.02;112.6229;83.7989;163.0409;0.0;1018.03;60.97573;;;;;;0 / 0;83.8;44.0;3.687;2343;2014-11-17 16:58:17:411
3.792416;-12.53604;-3.399766;-0.194753;-9.79077;-0.522769;3.987169;-2.745271;-2.876997;2.58396;-0.424246;1.02717;235.0;51.54;43.92;8.1;148.5351;85.7573;128.289;0.0;1018.03;60.97573;;;;;;0 / 0;83.8;44.0;3.687;2428;2014-11-17 16:58:17:496
2.576161;-13.302184;-2.633622;0.075392;-9.782844;-0.678736;2.50077;-3.51934;-1.954886;2.442239;0.420886;0.88942;247.0;51.96;36.48;3.48;148.5351;85.7573;128.289;0.0;1018.03;60.97573;;;;;;0 / 0;83.8;44.0;3.687;2492;2014-11-17 16:58:17:560
0.038307;-10.208876;-2.681506;0.057646;-9.773182;-0.807467;-0.019338;-0.435694;-1.874039;2.687196;-0.818865;0.824668;255.0;48.78;23.34;-2.4;81.356;86.0068;-173.6618;0.0;1018.03;60.97573;;;;;;0 / 0;83.8;44.0;3.687;2563;2014-11-17 16:58:17:631
0.143652;-8.24563;-2.394202;0.067743;-9.754768;-1.005129;0.07591;1.509139;-1.389073;1.798998;-0.693332;0.830166;258.0;45.78;17.4;-3.18;80.4909;85.265;-175.9165;0.0;1018.03;60.97573;;;;;;0 / 0;83.8;44.0;3.687;2622;2014-11-17 16:58:17:690
1.149217;-7.010222;-2.135628;0.156209;-9.7322;-1.195948;0.993007;2.721978;-0.93968;1.423316;-1.093143;0.805426;256.0;39.12;9.48;-2.34;78.11;82.9354;-172.5584;0.0;1018.03;62.22914;;;;;;0 / 0;83.8;44.0;3.687;2683;2014-11-17 16:58:17:751
0.45011;-5.707777;-0.248997;-0.242177;-9.784102;-0.618918;0.692287;4.076326;0.369921;0.420581;-0.126449;0.553444;253.0;34.14;5.58;0.0;110.684;86.114;158.63;0.0;1018.07;62.22914;;;;;;0 / 0;83.8;44.0;3.687;2752;2014-11-17 16:58:17:820
-0.335188;-5.45878;1.024718;-0.447797;-9.775912;-0.633553;0.112608;4.317133;1.658272;-0.977384;-0.049786;0.091935;251.0;31.98;4.44;1.2;110.684;86.114;158.63;0.0;1018.07;62.22914;;;;;;0 / 0;83.8;44.0;3.687;2811;2014-11-17 16:58:17:879
-3.734954;-12.057198;10.371682;-0.180829;-9.804976;-0.012949;-3.554126;-2.252223;10.384632;-1.015258;-0.244041;-0.132558;241.0;28.44;3.3;3.3;128.5063;85.4625;144.7473;0.0;1018.07;62.22914;;;;;;0 / 0;83.8;44.0;3.687;2867;2014-11-17 16:58:17:935
-2.145205;-9.586384;5.736508;-0.389383;-9.77532;0.679609;-1.755822;0.188936;5.056899;-0.016188;-0.91416;0.224188;238.0;26.34;3.12;4.08;249.486;85.4189;29.8106;0.0;1017.98;62.22914;;;;;;0 / 0;83.8;44.0;3.687;2931;2014-11-17 16:58:17:999
5.592855;-13.235146;-1.493982;0.195047;-9.796508;0.400942;5.397808;-3.438638;-1.894924;-1.446223;-0.189368;-0.468839;227.0;22.5;3.24;5.94;310.7823;87.3941;-25.9416;0.0;1017.98;62.22914;;;;;;0 / 0;83.8;44.0;3.687;2989;2014-11-17 16:58:18:057
-1.790863;-6.263232;-8.149862;0.034268;-9.796458;-0.445626;-1.825131;3.533228;-7.704236;-1.254717;0.05681;0.526566;219.0;20.4;3.96;7.32;310.7823;87.3941;-25.9416;0.0;1017.98;63.17877;;;;;;0 / 0;83.8;44.0;3.687;3066;2014-11-17 16:58:18:134
-0.421379;-9.461884;-1.723825;0.221422;-9.747556;-1.051907;-0.642802;0.28567;-0.671918;-1.514335;0.344223;-0.411723;213.0;18.9;5.52;9.96;97.8292;83.9399;-165.0187;0.0;1017.99;63.17877;;;;;;0 / 0;83.8;44.0;3.687;3132;2014-11-17 16:58:18:200
-0.421379;-9.461884;-1.723825;0.221422;-9.747556;-1.051907;-0.642802;0.28567;-0.671918;-1.1582;0.138972;-0.010079;213.0;18.36;6.48;11.4;107.7308;83.7069;-168.113;0.0;1017.99;63.17877;;;;;;0 / 0;83.8;44.0;3.687;3187;2014-11-17 16:58:18:255
0.248997;-9.739612;-0.995988;0.208208;-9.747712;-1.053164;0.040789;0.008101;0.057176;-1.189355;1.166753;-0.113926;209.0;18.72;7.26;13.74;113.3585;83.7151;-168.817;0.0;1017.99;63.17877;;;;;;0 / 0;83.8;44.0;3.687;3241;2014-11-17 16:58:18:309
-1.493982;-9.691728;-0.794875;0.049788;-9.7529;-1.02413;-1.543769;0.061172;0.229255;-1.020756;1.216844;-0.018631;219.0;18.84;7.5;14.64;113.3585;83.7151;-168.817;0.0;1017.99;63.17877;;;;;;0 / 0;83.8;44.0;3.687;3295;2014-11-17 16:58:18:363
-1.101333;-9.337386;-1.522712;-0.065722;-9.747244;-1.075781;-1.03561;0.409858;-0.446931;-0.946536;0.496023;-0.223882;222.0;17.76;7.44;16.68;133.6265;83.6902;176.504;0.0;1017.99;63.17877;;;;;;0 / 0;83.8;44.0;3.687;3346;2014-11-17 16:58:18:414
-0.067038;-9.17458;-1.675941;-0.054825;-9.73931;-1.145953;-0.012213;0.56473;-0.529988;-0.962418;0.265421;-0.252287;222.0;16.74;7.8;18.48;137.7173;83.2817;177.261;0.0;1017.99;63.17877;;;;;;0 / 0;83.8;44.0;3.687;3404;2014-11-17 16:58:18:472
0.325611;-9.605536;-1.11091;-0.00857;-9.73709;-1.165931;0.334181;0.131553;0.055021;-0.927904;0.330784;-0.312152;222.0;16.26;8.34;21.36;141.634;83.1717;179.5789;0.0;1018.06;62.80121;;;;;;0 / 0;83.8;44.0;3.687;3479;2014-11-17 16:58:18:547
-1.733402;-10.400412;-2.298433;-0.1666;-9.722678;-1.269717;-1.566801;-0.677733;-1.028716;-0.636216;0.37446;-0.029322;216.0;16.14;8.58;22.8;141.634;83.1717;179.5789;0.0;1018.06;62.80121;;;;;;0 / 0;83.8;44.0;3.687;3534;2014-11-17 16:58:18:602
0.746991;-9.62469;-1.484405;-0.114783;-9.723556;-1.268725;0.861774;0.098866;-0.21568;-0.408669;0.555582;0.121562;213.0;15.3;8.58;24.48;151.8427;82.5361;174.8305;0.0;1018.06;62.80121;;;;;;0 / 0;83.8;44.0;3.687;3586;2014-11-17 16:58:18:654
-2.949656;-13.551182;0.153229;-0.389608;-9.740822;-1.065349;-2.560048;-3.81036;1.218578;9.16E-4;1.328937;0.228464;215.0;12.9;9.12;27.84;174.9806;83.3576;159.9121;0.0;1018.06;62.80121;;;;;;0 / 0;83.8;44.0;3.687;3641;2014-11-17 16:58:18:709
-0.938527;-12.133814;2.145205;-0.495674;-9.77505;-0.610772;-0.442853;-2.358763;2.755977;1.586417;0.627359;0.869261;219.0;11.46;9.84;30.24;174.9806;83.3576;159.9121;0.0;1018.06;62.80121;;;;;;0 / 0;83.8;44.0;3.687;3696;2014-11-17 16:58:18:764
4.156334;-12.603078;-3.936067;-0.083868;-9.778722;-0.734831;4.240202;-2.824356;-3.201236;2.367714;-0.192423;0.763887;230.0;10.5;14.94;34.74;201.2639;85.3994;140.9388;0.0;1018.06;62.80121;;;;;;0 / 0;83.8;44.0;3.687;3761;2014-11-17 16:58:18:829
1.388637;-13.034034;-2.288857;0.069948;-9.770258;-0.841167;1.318689;-3.263776;-1.44769;2.415972;0.051924;0.699746;241.0;11.52;19.32;35.94;155.7156;85.0624;-175.2465;0.0;1018.07;62.91556;;;;;;0 / 0;83.8;44.0;3.687;3826;2014-11-17 16:58:18:894
-0.124498;-8.437166;-2.212242;-0.003358;-9.74028;-1.139006;-0.12114;1.303113;-1.073236;2.014939;-0.605062;0.649044;244.0;17.34;32.46;31.14;150.1086;84.3792;-178.3852;0.0;1018.07;62.91556;;;;;;0 / 0;83.8;44.0;3.687;3921;2014-11-17 16:58:18:989
0.775721;-6.502651;-1.8579;0.051455;-9.721474;-1.288687;0.724266;3.218822;-0.569213;1.128574;-1.173167;0.764803;238.0;21.96;38.1;24.54;133.0489;83.3303;179.8311;0.0;1018.14;62.91556;;;;;;0 / 0;83.8;44.0;3.687;3988;2014-11-17 16:58:19:056
1.388637;-6.062118;-0.067038;0.22072;-9.718376;-1.294136;1.167917;3.656259;1.227099;-0.073304;-0.152716;0.439518;233.0;28.38;41.4;15.0;98.4955;82.3067;-170.3211;0.0;1018.14;62.91556;;;;;;0 / 0;83.8;44.0;3.687;4056;2014-11-17 16:58:19:124
-0.440533;-6.301539;1.331176;0.199185;-9.735726;-1.160303;-0.639718;3.434188;2.491479;-0.955699;0.240375;0.11301;235.0;32.94;42.12;9.36;87.0091;83.1051;-170.2592;0.0;1018.14;62.91556;;;;;;0 / 0;83.8;44.0;3.687;4122;2014-11-17 16:58:19:190
-5.889736;-12.77546;10.0748;-0.42639;-9.797364;-0.014878;-5.463346;-2.978096;10.08968;-0.693027;-0.045815;0.162796;234.0;34.68;42.78;8.34;87.0091;83.1051;-170.2592;0.0;1018.04;58.99393;;;;;;0 / 0;83.8;44.0;3.687;4180;2014-11-17 16:58:19:248
-2.03986;-9.615114;5.00867;-0.595297;-9.772618;0.558508;-1.444563;0.157504;4.450162;0.014355;-0.936762;0.241292;230.0;37.08;44.16;7.86;191.114;87.5065;91.9984;0.0;1018.04;58.99393;;;;;;0 / 0;83.8;44.0;3.687;4244;2014-11-17 16:58:19:312
2.403779;-15.782578;2.25055;-0.423196;-9.768028;0.759536;2.826975;-6.014549;1.491013;-0.368046;-1.276403;-0.136528;219.0;38.52;44.4;6.24;255.1815;84.9133;29.1256;0.0;1018.04;58.99393;;;;;;0 / 0;83.8;44.0;3.687;4303;2014-11-17 16:58:19:371
-0.201113;-4.740519;-8.973468;-0.23568;-9.803254;0.105161;0.034567;5.062735;-9.078628;-0.956615;-1.011287;0.087659;211.0;40.08;44.46;1.38;206.219;88.4921;65.9535;0.0;1018.07;58.99393;;;;;;0 / 0;83.8;44.0;3.687;4368;2014-11-17 16:58:19:436
-0.593762;-11.137826;-2.585738;-0.250969;-9.771544;-0.790158;-0.342793;-1.366281;-1.79558;-1.682628;0.087048;-0.404698;208.0;40.5;44.52;0.0;206.219;88.4921;65.9535;0.0;1018.07;58.99393;;;;;;0 / 0;83.8;44.0;3.687;4422;2014-11-17 16:58:19:490
0.114922;-8.561666;-1.359906;-0.035407;-9.668434;-1.640284;0.150329;1.106769;0.280377;-1.103528;-0.390954;-0.183565;202.0;40.98;45.06;0.66;102.3596;85.1503;162.3792;0.0;1018.07;58.99393;;;;;;0 / 0;83.8;44.0;3.687;4479;2014-11-17 16:58:19:547
-0.45011;-10.199298;-1.417367;0.04769;-9.532676;-2.301357;-0.4978;-0.666623;0.883989;-1.371087;0.673784;-0.097738;201.0;40.86;45.48;2.76;78.3389;76.4247;-178.8128;0.0;1018.01;62.43469;;;;;;0 / 0;83.8;44.0;3.687;4551;2014-11-17 16:58:19:619
-0.584185;-9.394848;-1.225831;0.229479;-9.35061;-2.94683;-0.813665;-0.044238;1.720999;-1.188744;0.98166;-0.045509;208.0;40.44;46.02;7.02;75.8762;72.4581;-175.5472;0.0;1018.01;62.43469;;;;;;0 / 0;83.8;44.0;3.687;4622;2014-11-17 16:58:19:690
-0.68953;-9.308656;-1.810016;0.716111;-8.966878;-3.905472;-1.405641;-0.341777;2.095456;-1.057713;0.459371;-0.357356;212.0;40.98;46.32;12.3;76.3471;69.2472;-172.3853;0.0;1018.01;62.43469;;;;;;0 / 0;83.8;44.0;3.687;4690;2014-11-17 16:58:19:758
-0.68953;-9.308656;-1.810016;0.716111;-8.966878;-3.905472;-1.405641;-0.341777;2.095456;-1.087645;0.529009;-0.112094;211.0;40.98;46.68;14.82;76.3471;69.2472;-172.3853;0.0;1017.99;62.43469;;;;;;0 / 0;83.8;44.0;3.687;4743;2014-11-17 16:58:19:811
1.628057;-9.289502;-0.861913;0.941697;-8.769626;-4.286873;0.68636;-0.519876;3.42496;-1.25655;0.660956;-0.343917;212.0;40.86;46.8;17.16;72.1697;63.4126;-167.6106;0.0;1017.99;62.43469;;;;;;0 / 0;83.8;44.0;3.687;4796;2014-11-17 16:58:19:864
1.915361;-9.481038;-2.442086;1.467556;-8.34352;-4.939877;0.447805;-1.137519;2.497792;-0.705549;0.660651;-0.195477;209.0;39.9;46.5;21.36;72.1543;60.2521;-165.8356;0.0;1017.99;62.43469;;;;;;0 / 0;83.8;44.0;3.687;4876;2014-11-17 16:58:19:944
-3.198653;-13.953406;-0.584185;1.469878;-8.357977;-4.914683;-4.668531;-5.59543;4.330498;-0.726013;0.904386;-0.037568;208.0;39.54;45.42;25.02;74.1015;58.299;-163.4542;0.0;1018.03;63.46251;;;;;;0 / 0;83.8;44.0;3.687;4935;2014-11-17 16:58:20:003
-1.934515;-11.549628;3.620033;1.560575;-8.627212;-4.393885;-3.49509;-2.922416;8.013918;-0.079718;1.496925;0.170431;205.0;39.6;44.58;26.76;74.1015;58.299;-163.4542;0.0;1018.03;63.46251;;;;;;0 / 0;83.8;44.0;3.687;4998;2014-11-17 16:58:20:066
5.209783;-12.469002;-4.13718;1.165513;-9.170736;-3.27255;4.04427;-3.298265;-0.86463;2.356107;0.025962;1.236086;205.0;40.38;42.9;28.38;79.1615;61.6099;-160.4465;0.0;1018.03;63.46251;;;;;;0 / 0;83.8;44.0;3.687;5054;2014-11-17 16:58:20:122
2.193089;-13.67568;-1.886631;0.806106;-9.61454;-1.755336;1.386983;-4.06114;-0.131295;2.322815;1.350623;0.904081;215.0;42.48;38.94;26.94;86.2264;69.2532;-160.3967;0.0;1018.22;63.46251;;;;;;0 / 0;83.8;44.0;3.687;5120;2014-11-17 16:58:20:188
0.076614;-9.730036;-2.528277;0.362955;-9.79555;-0.292998;-0.28634;0.065515;-2.235278;2.550057;0.102931;0.895834;233.0;43.26;36.78;24.9;86.2264;69.2532;-160.3967;0.0;1018.22;63.46251;;;;;;0 / 0;83.8;44.0;3.687;5170;2014-11-17 16:58:20:238
0.076614;-9.730036;-2.528277;0.362955;-9.79555;-0.292998;-0.28634;0.065515;-2.235278;2.597094;-0.544586;0.740674;247.0;43.8;35.04;22.86;64.7947;87.2737;-128.9125;0.0;1018.22;63.46251;;;;;;0 / 0;83.8;44.0;3.687;5220;2014-11-17 16:58:20:288
-0.076614;-8.370129;-2.72939;0.013614;-9.753574;1.018825;-0.090228;1.383445;-3.748215;1.810605;-0.868345;0.769996;255.0;43.32;33.96;18.78;298.2846;84.0362;-0.7656;0.0;1018.07;64.48053;;;;;;0 / 0;83.8;44.0;3.687;5279;2014-11-17 16:58:20:347
0.459687;-7.297527;-1.637634;-0.309921;-9.593206;2.011144;0.769608;2.295681;-3.648777;1.548238;-0.982882;0.869567;255.0;43.32;33.78;16.44;298.2846;84.0362;-0.7656;0.0;1018.07;64.48053;;;;;;0 / 0;83.8;44.0;3.687;5330;2014-11-17 16:58:20:398
0.373495;-5.717354;0.038307;-0.64082;-9.41142;2.680468;1.014316;3.694066;-2.642161;-0.005803;0.074526;0.414167;244.0;43.26;33.0;12.24;287.3884;78.0241;8.7605;0.0;1018.07;64.48053;;;;;;0 / 0;83.8;44.0;3.687;5397;2014-11-17 16:58:20:465
-0.335188;-4.845864;-0.421379;-0.810523;-9.401756;2.668411;0.475335;4.555892;-3.089791;-0.615141;-0.20464;0.009163;247.0;43.26;32.88;11.16;279.5925;73.4783;16.896;0.0;1018.08;64.48053;;;;;;0 / 0;83.8;44.0;3.687;5457;2014-11-17 16:58:20:525
-1.685518;-10.898406;7.556101;-0.052763;-9.797358;-0.423505;-1.632755;-1.101047;7.979606;-1.001208;-0.40928;-0.068417;249.0;42.9;33.06;12.54;112.2066;87.5057;172.8983;0.0;1018.08;64.48053;;;;;;0 / 0;83.8;44.0;3.687;5522;2014-11-17 16:58:20:590
-1.101333;-10.907982;7.28795;-0.159083;-9.794356;0.464379;-0.94225;-1.113626;6.823571;-0.20128;-1.213789;0.078191;241.0;42.54;33.6;13.86;112.2066;87.5057;172.8983;0.0;1018.08;64.48053;;;;;;0 / 0;83.8;44.0;3.687;5584;2014-11-17 16:58:20:652
0.287304;-9.825804;-2.624045;-0.125683;-9.804492;0.162922;0.412988;-0.021311;-2.786967;-0.126144;-1.312138;0.150273;233.0;42.06;34.74;15.3;272.927;87.1309;18.91;0.0;1018.02;64.48053;;;;;;0 / 0;83.8;44.0;3.687;5639;2014-11-17 16:58:20:707
0.574608;-11.310208;-0.785298;-0.01452;-9.806422;0.065292;0.589128;-1.503787;-0.85059;0.121562;-1.24586;-0.095906;222.0;41.76;35.64;15.48;277.4288;89.6093;12.5376;0.0;1018.02;61.11299;;;;;;0 / 0;83.8;44.0;3.687;5691;2014-11-17 16:58:20:759
5.420473;-6.110002;-3.811569;0.486144;-9.784466;-0.445263;4.934329;3.674464;-3.366306;-1.522276;0.435547;-0.206472;211.0;41.58;36.6;15.48;277.4288;89.6093;12.5376;0.0;1018.02;61.11299;;;;;;0 / 0;83.8;44.0;3.687;5747;2014-11-17 16:58:20:815
-1.273715;-12.009314;0.469264;0.389575;-9.791238;-0.387665;-1.663291;-2.218078;0.856928;-0.927904;-0.225104;-0.244957;211.0;40.86;38.52;17.82;61.0211;86.1454;-132.4868;0.0;1018.16;61.11299;;;;;;0 / 0;83.8;44.0;3.687;5809;2014-11-17 16:58:20:877
0.076614;-9.17458;-2.154781;0.319598;-9.787042;-0.5311;-0.242983;0.612461;-1.623681;-1.019839;-0.348804;-0.054978;206.0;40.32;39.06;19.38;67.6781;86.7873;-134.8591;0.0;1018.16;61.11299;;;;;;0 / 0;83.8;44.0;3.687;5865;2014-11-17 16:58:20:933
0.172383;-9.720458;-1.043872;0.304375;-9.783388;-0.602561;-0.131993;0.062929;-0.441311;-1.120938;0.527788;-0.06353;200.0;39.24;39.72;23.4;90.2343;86.0528;-153.2;0.0;1018.16;61.11299;;;;;;0 / 0;83.8;44.0;3.687;5917;2014-11-17 16:58:20:985
-0.71826;-9.289502;-1.369483;0.218906;-9.7795;-0.695599;-0.937166;0.489998;-0.673885;-1.116356;0.789543;-0.185703;200.0;38.52;39.6;25.74;90.2343;86.0528;-153.2;0.0;1018.03;61.11299;;;;;;0 / 0;83.8;44.0;3.687;5981;2014-11-17 16:58:21:049
-1.063026;-9.346964;-2.087744;0.109064;-9.769422;-0.846676;-1.172089;0.422459;-1.241068;-0.971276;-0.226936;-0.279471;197.0;37.86;39.66;28.14;105.3825;85.7355;-162.5312;0.0;1018.03;61.29396;;;;;;0 / 0;83.8;44.0;3.687;6046;2014-11-17 16:58:21:114
2.011129;-9.768342;-0.143652;0.283792;-9.772158;-0.771209;1.727338;0.003816;0.627557;-0.605062;0.277944;-0.118202;191.0;35.88;38.7;35.94;109.5194;85.1932;-159.7973;0.0;1018.03;61.29396;;;;;;0 / 0;83.8;44.0;3.687;6130;2014-11-17 16:58:21:198
-1.043872;-9.481038;-0.45011;0.025716;-9.764338;-0.909658;-1.106118;1.187818;-1.73915;-0.573297;0.377209;-0.094379;191.0;35.46;38.64;36.9;123.4203;84.3531;-170.5752;0.0;1018.06;61.29396;;;;;;0 / 0;83.8;44.0;3.687;6193;2014-11-17 16:58:21:261
-1.043872;-9.481038;-0.45011;0.025716;-9.764338;-0.909658;-1.106118;1.187818;-1.73915;-0.147829;0.862236;0.390648;191.0;34.86;38.34;39.66;123.4203;84.3531;-170.5752;0.0;1018.06;61.29396;;;;;;0 / 0;83.8;44.0;3.687;6243;2014-11-17 16:58:21:311
0.890643;-10.007762;-1.580173;0.08416;-9.762106;-0.929846;0.806483;-0.245657;-0.650327;0.157909;1.322523;0.338114;189.0;32.7;38.52;43.86;137.5407;84.6755;-178.3807;0.0;1018.06;61.29396;;;;;;0 / 0;83.8;44.0;3.687;6296;2014-11-17 16:58:21:364
-0.632069;-13.88637;2.806004;-0.002837;-9.796438;-0.447436;-0.629232;-4.089931;3.253441;1.844813;0.521068;0.623693;200.0;31.5;38.64;45.78;144.4524;87.3849;179.6367;0.0;1018.06;61.29396;;;;;;0 / 0;83.8;44.0;3.687;6347;2014-11-17 16:58:21:415
3.715801;-13.091494;-3.361459;0.321461;-9.788954;-0.493394;3.39434;-3.30254;-2.868066;2.969721;0.175624;0.718683;205.0;30.78;39.66;46.8;144.4524;87.3849;179.6367;0.0;1018.06;63.19124;;;;;;0 / 0;83.8;44.0;3.687;6407;2014-11-17 16:58:21:475
4.252103;-13.22557;-4.242525;0.663231;-9.749962;-0.81776;3.588872;-3.475607;-3.424765;2.365881;0.567188;0.474031;227.0;31.08;46.2;42.66;110.4587;86.5574;-146.9145;0.0;1018.06;63.19124;;;;;;0 / 0;83.8;44.0;3.687;6473;2014-11-17 16:58:21:541
0.335188;-9.816226;-2.595315;0.630755;-9.738612;-0.965364;-0.295567;-0.077614;-1.629951;2.179873;0.293521;0.737925;233.0;31.74;49.62;38.22;99.9309;83.2469;-146.84;0.0;1018.14;63.19124;;;;;;0 / 0;83.8;44.0;3.687;6550;2014-11-17 16:58:21:618
1.254562;-6.933608;-3.677494;0.692339;-9.696522;-1.291716;0.562223;2.762915;-2.385778;0.748921;-0.465479;0.375377;216.0;33.54;55.02;29.34;91.5376;81.4052;-151.8094;0.0;1018.14;63.19124;;;;;;0 / 0;83.8;44.0;3.687;6603;2014-11-17 16:58:21:671
3.284845;-4.79798;-3.055001;1.010106;-9.61476;-1.645127;2.274739;4.816781;-1.409874;-0.051007;-0.039706;0.160658;205.0;34.86;56.52;24.96;91.5376;81.4052;-151.8094;0.0;1018.14;63.19124;;;;;;0 / 0;83.8;44.0;3.687;6655;2014-11-17 16:58:21:723
-1.072602;-6.378153;0.612916;0.892797;-9.629288;-1.627923;-1.9654;3.251135;2.240839;-1.360397;-0.650571;-0.210749;202.0;35.82;57.42;22.2;79.3858;79.0865;-151.2584;0.0;1018.13;63.19124;;;;;;0 / 0;83.8;44.0;3.687;6715;2014-11-17 16:58:21:783
0.861913;-14.42267;10.065224;0.84228;-9.761066;-0.427269;0.019632;-4.661605;10.492494;-0.564439;-0.080023;-0.09163;200.0;35.88;57.06;23.34;53.6414;84.4735;-116.8976;0.0;1018.13;61.21137;;;;;;0 / 0;83.8;44.0;3.687;6776;2014-11-17 16:58:21:844
1.254562;-10.25676;-1.905785;0.853842;-9.75879;-0.455348;0.40072;-0.497969;-1.450437;0.117897;-0.548252;0.176845;197.0;35.58;56.64;25.44;53.6414;84.4735;-116.8976;0.0;1018.13;61.21137;;;;;;0 / 0;83.8;44.0;3.687;6826;2014-11-17 16:58:21:894
0.814029;-8.408436;2.154782;0.890134;-9.763584;-0.22474;-0.076105;1.355147;2.379522;-0.048258;-0.750753;-0.090408;191.0;35.88;55.74;28.56;59.0007;84.3371;-118.0707;0.0;1018.13;61.21137;;;;;;0 / 0;83.8;44.0;3.687;6898;2014-11-17 16:58:21:966
0.593762;-9.873688;2.480393;0.89319;-9.760746;-0.31691;-0.299428;-0.112942;2.797303;-0.340863;0.002138;-0.006109;186.0;36.24;55.74;29.7;48.9403;84.5123;-104.981;0.0;1018.13;61.21137;;;;;;0 / 0;83.8;44.0;3.687;6980;2014-11-17 16:58:22:048
-0.057461;-9.720458;0.909797;0.862397;-9.764006;-0.301399;-0.919858;0.043548;1.211196;-0.075747;0.098349;0.069028;183.0;36.06;55.86;30.42;54.0849;84.4541;-109.535;0.0;1018.13;61.21137;;;;;;0 / 0;83.8;44.0;3.687;7038;2014-11-17 16:58:22:106
-0.057461;-9.720458;0.909797;0.862397;-9.764006;-0.301399;-0.919858;0.043548;1.211196;-0.131336;0.149967;0.102625;178.0;35.94;55.86;30.6;54.9415;84.6548;-109.264;0.0;1018.12;61.21137;;;;;;0 / 0;83.8;44.0;3.687;7088;2014-11-17 16:58:22:156
-0.086191;-9.615114;1.61848;0.791909;-9.771488;-0.247529;-0.8781;0.156375;1.866009;-0.073915;0.230602;0.112705;178.0;35.76;55.86;31.08;54.9415;84.6548;-109.264;0.0;1018.12;58.33402;;;;;;0 / 0;83.8;44.0;3.687;7138;2014-11-17 16:58:22:206
0.42138;-9.634268;0.507571;0.759447;-9.774922;-0.210972;-0.338067;0.140655;0.718543;-0.037568;-0.111788;0.087659;173.0;35.76;56.04;31.5;52.9614;85.3899;-105.5251;0.0;1018.12;58.33402;;;;;;0 / 0;83.8;44.0;3.687;7190;2014-11-17 16:58:22:258
0.92895;-9.56723;0.92895;0.741079;-9.776892;-0.183317;0.187871;0.209662;1.112267;-0.090713;0.02138;0.059254;166.0;36.12;55.8;32.04;51.5408;85.5352;-103.894;0.0;1018.1;58.33402;;;;;;0 / 0;83.8;44.0;3.687;7254;2014-11-17 16:58:22:322
-0.057461;-9.662998;0.948104;0.712761;-9.779534;-0.151906;-0.770222;0.116537;1.10001;-0.044593;0.011606;0.0281;164.0;36.42;56.16;32.16;51.5408;85.5352;-103.894;0.0;1018.1;58.33402;;;;;;0 / 0;83.8;44.0;3.687;7311;2014-11-17 16:58:22:379
0.268151;-9.720458;1.359907;0.694143;-9.781656;-0.088033;-0.425992;0.061198;1.44794;0.016493;-0.031154;0.072082;166.0;36.12;56.28;32.22;45.536;85.9085;-97.2278;0.0;1018.1;58.33402;;;;;;0 / 0;83.8;44.0;3.687;7365;2014-11-17 16:58:22:433
0.287304;-10.247182;1.762132;0.672843;-9.78333;-0.063836;-0.385539;-0.463852;1.825969;-0.382707;-0.255953;0.00336;164.0;35.94;56.22;32.7;44.8022;86.0481;-95.4197;0.0;1018.09;58.33402;;;;;;0 / 0;83.8;44.0;3.687;7422;2014-11-17 16:58:22:490
0.507571;-9.433154;0.871489;0.661067;-9.78434;0.006375;-0.153497;0.351186;0.865115;0.104153;0.054062;0.026267;158.0;35.58;55.86;32.7;44.8022;86.0481;-95.4197;0.0;1018.09;58.33402;;;;;;0 / 0;83.8;44.0;3.687;7476;2014-11-17 16:58:22:544