sep=;
ACCELEROMETER X (m/s²);ACCELEROMETER Y (m/s²);ACCELEROMETER Z (m/s²);GRAVITY X (m/s²);GRAVITY Y (m/s²);GRAVITY Z (m/s²);LINEAR ACCELERATION X (m/s²);LINEAR ACCELERATION Y (m/s²);LINEAR ACCELERATION Z (m/s²);GYROSCOPE X (rad/s);GYROSCOPE Y (rad/s);GYROSCOPE Z (rad/s);LIGHT (lux);MAGNETIC FIELD X (μT);MAGNETIC FIELD Y (μT);MAGNETIC FIELD Z (μT);ORIENTATION X (°);ORIENTATION Y (°);ORIENTATION Z (°);PROXIMITY (i);ATMOSPHERIC PRESSURE (hPa);SOUND LEVEL (dB);LOCATION Latitude : ;LOCATION Longitude : ;LOCATION Altitude ( m);LOCATION Speed ( Kmh);LOCATION Accuracy ( m);Satellites in range;Temperature (F);Level (%);Voltage (Volt);Time since start in ms ;YYYY-MO-DD HH-MI-SS_SSS
0.373495;-9.107542;0.009577;1.092877;-9.56798;1.851973;-0.719382;0.460437;-1.842397;0.763887;-0.419664;0.54703;267.0;32.22;45.42;-20.52;290.2899;78.7536;-40.7212;0.0;1018.05;54.5885;;;;;;0 / 0;83.8;44.0;3.687;17;2014-11-17 16:58:37:061
-0.507571;-8.504204;2.432509;0.755804;-9.546124;2.114399;-1.263375;1.041919;0.31811;0.317039;-0.214108;0.771828;269.0;32.52;39.9;-20.46;282.8018;77.3333;-30.5455;0.0;1018.13;54.5885;;;;;;0 / 0;83.8;44.0;3.687;81;2014-11-17 16:58:37:125
0.6608;-7.431602;2.212242;0.405962;-9.520068;2.318161;0.254838;2.088467;-0.105919;0.203418;-0.510989;0.622472;266.0;32.76;38.4;-20.22;262.8991;76.1144;-9.9331;0.0;1018.13;54.5885;;;;;;0 / 0;83.8;44.0;3.687;135;2014-11-17 16:58:37:179
-0.057461;-7.881712;2.662352;0.189718;-9.517608;2.35575;-0.247179;1.635896;0.306602;-0.164934;-0.307265;0.467006;260.0;33.18;37.2;-19.2;262.8991;76.1144;-9.9331;0.0;1018.13;54.5885;;;;;;0 / 0;83.8;44.0;3.687;193;2014-11-17 16:58:37:237
-1.37906;-7.517793;1.905785;0.052833;-9.542814;2.258826;-1.431893;2.025021;-0.353041;-0.340557;-0.404393;0.229685;252.0;33.0;35.4;-17.7;258.2907;76.0546;-4.6043;0.0;1018.06;54.5885;;;;;;0 / 0;83.8;44.0;3.687;270;2014-11-17 16:58:37:314
0.277727;-10.13226;3.505111;0.026245;-9.580142;2.095372;0.251482;-0.552119;1.409739;-0.502437;-0.768774;9.16E-4;241.0;31.68;33.84;-15.78;256.9757;76.6794;-1.3399;0.0;1018.06;54.5885;;;;;;0 / 0;83.8;44.0;3.687;334;2014-11-17 16:58:37:378
-1.647211;-9.758766;3.524265;0.113608;-9.630048;1.849237;-1.760819;-0.128718;1.675028;-0.397368;-1.059546;-0.134085;224.0;30.78;33.78;-14.52;258.6214;79.1099;-3.5156;0.0;1018.09;52.57443;;;;;;0 / 0;83.8;44.0;3.687;386;2014-11-17 16:58:37:430
0.047884;-16.816874;3.725378;0.304781;-9.66306;1.644004;-0.256896;-7.153812;2.081374;-0.426995;-0.629802;-0.132252;224.0;29.7;33.48;-13.44;258.6214;79.1099;-3.5156;0.0;1018.09;52.57443;;;;;;0 / 0;83.8;44.0;3.687;438;2014-11-17 16:58:37:482
4.165911;-5.24809;-5.468356;0.433487;-9.711966;1.288479;3.732424;4.463876;-6.756836;-0.458149;-0.346055;0.504269;224.0;26.88;33.96;-10.32;268.1295;80.1832;-10.5028;0.0;1018.09;52.57443;;;;;;0 / 0;83.8;44.0;3.687;495;2014-11-17 16:58:37:539
-0.229843;-10.745176;-2.145205;0.313853;-9.774506;0.728651;-0.543696;-0.970672;-2.873856;-1.137126;0.554055;-0.150578;223.0;26.34;34.74;-6.06;281.5098;82.0317;-18.5946;0.0;1018.09;52.57443;;;;;;0 / 0;83.8;44.0;3.687;561;2014-11-17 16:58:37:605
-0.71826;-8.96389;-2.585738;0.548982;-9.791268;0.008452;-1.267242;0.827377;-2.59419;-0.739452;-0.032681;-0.106596;220.0;26.22;35.46;-3.9;351.0239;86.7905;-89.118;0.0;1018.04;52.57443;;;;;;0 / 0;83.8;44.0;3.687;615;2014-11-17 16:58:37:659
-0.067038;-9.902418;-1.80044;0.608783;-9.77537;-0.491876;-0.675821;-0.127048;-1.308563;-1.09803;0.51557;0.054367;216.0;25.8;36.48;0.42;35.3535;85.4223;-128.937;0.0;1018.04;52.57443;;;;;;0 / 0;83.8;44.0;3.687;688;2014-11-17 16:58:37:732
0.641646;-9.030928;-1.80044;0.650333;-9.723114;-1.099327;-0.008687;0.692185;-0.701113;-1.056186;0.93218;0.010996;216.0;25.2;36.6;2.82;35.3535;85.4223;-128.937;0.0;1018.16;52.57443;;;;;;0 / 0;83.8;44.0;3.687;746;2014-11-17 16:58:37:790
-0.986411;-10.170568;-1.015141;0.803632;-9.633674;-1.648316;-1.790043;-0.536895;0.633175;-1.105666;0.578489;-0.227853;219.0;24.96;37.32;7.32;61.302;82.5161;-149.3925;0.0;1018.16;62.27924;;;;;;0 / 0;83.8;44.0;3.687;807;2014-11-17 16:58:37:851
0.641646;-9.165004;-0.995988;1.018813;-9.504944;-2.188253;-0.377167;0.339941;1.192265;-0.921796;0.332005;-0.192117;222.0;24.78;37.5;9.78;68.1251;75.7508;-155.0341;0.0;1018.16;62.27924;;;;;;0 / 0;83.8;44.0;3.687;869;2014-11-17 16:58:37:913
-0.92895;-9.758766;-1.206678;1.199965;-9.368118;-2.639849;-2.128915;-0.390647;1.433172;-0.680504;0.6072;-0.238543;224.0;23.7;38.28;14.22;72.8151;72.8008;-155.5554;0.0;1018.06;62.27924;;;;;;0 / 0;83.8;44.0;3.687;944;2014-11-17 16:58:37:988
-0.229843;-9.299078;-3.055001;1.44217;-9.229684;-2.983866;-1.672014;-0.069394;-0.071135;-0.493579;0.481362;0.07422;224.0;23.34;38.34;16.74;72.8151;72.8008;-155.5554;0.0;1018.06;62.27924;;;;;;0 / 0;83.8;44.0;3.687;994;2014-11-17 16:58:38:038
1.570596;-9.969456;-1.953669;1.545563;-9.144384;-3.187769;0.025033;-0.825071;1.234101;-0.57177;0.774883;0.144164;227.0;22.02;38.34;21.06;77.9954;70.2483;-154.2045;0.0;1018.06;62.27924;;;;;;0 / 0;83.8;44.0;3.687;1046;2014-11-17 16:58:38:090
-4.759673;-13.01488;0.201113;1.640989;-9.122386;-3.203069;-6.400662;-3.892494;3.404182;0.076358;1.36223;0.083994;227.0;21.48;38.1;23.52;84.2513;68.4698;-152.8731;0.0;1018.06;62.27924;;;;;;0 / 0;83.8;44.0;3.687;1101;2014-11-17 16:58:38:145
0.881066;-10.802638;1.810017;1.686575;-9.26643;-2.731143;-0.805509;-1.536208;4.54116;0.890336;0.648128;0.525955;230.0;19.68;38.76;27.06;88.1865;70.8937;-148.3032;0.0;1018.16;62.95119;;;;;;0 / 0;83.8;44.0;3.687;1163;2014-11-17 16:58:38:207
3.610456;-12.124236;-3.715801;1.245807;-9.588492;-1.636819;2.36465;-2.535745;-2.078982;2.274557;-0.009774;0.850935;235.0;20.1;40.02;27.9;88.1865;70.8937;-148.3032;0.0;1018.16;62.95119;;;;;;0 / 0;83.8;44.0;3.687;1220;2014-11-17 16:58:38:264
1.944092;-13.01488;-2.719813;0.798716;-9.767358;-0.362126;1.145376;-3.247521;-2.357687;2.309987;-0.342085;0.877508;247.0;23.16;44.22;24.84;89.5868;77.892;-142.7247;0.0;1018.16;62.95119;;;;;;0 / 0;83.8;44.0;3.687;1285;2014-11-17 16:58:38:329
0.354342;-10.151414;-2.212242;0.323486;-9.75651;0.936081;0.030855;-0.394904;-3.148323;2.194533;-0.198226;0.931264;247.0;25.56;46.26;21.06;331.657;84.2037;-19.0639;0.0;1018.16;62.95119;;;;;;0 / 0;83.8;44.0;3.687;1339;2014-11-17 16:58:38:383
0.220267;-8.092401;-2.126051;-0.140907;-9.58234;2.0807;0.361173;1.489939;-4.206751;1.928807;-0.523512;0.930959;249.0;28.08;47.82;17.1;331.657;84.2037;-19.0639;0.0;1018.16;62.95119;;;;;;0 / 0;83.8;44.0;3.687;1394;2014-11-17 16:58:38:438
0.603339;-5.66947;-1.742979;-0.406628;-9.310132;3.05393;1.009967;3.640662;-4.796909;1.180497;-1.063211;0.719294;249.0;34.38;48.96;7.32;303.4929;77.7218;3.8742;0.0;1018.16;62.95119;;;;;;0 / 0;83.8;44.0;3.687;1462;2014-11-17 16:58:38:506
-0.009577;-5.956774;0.727837;0.260005;-9.755932;-0.961564;-0.269582;3.799159;1.689402;0.018631;-0.1799;0.496023;244.0;39.9;47.76;-0.72;289.6905;71.6897;7.5843;0.0;1018.17;60.4726;;;;;;0 / 0;83.8;44.0;3.687;1536;2014-11-17 16:58:38:580
-0.402226;-7.489063;2.604892;0.229291;-9.78033;-0.680406;-0.631517;2.291268;3.285298;-0.852462;0.086437;0.143553;235.0;41.94;47.16;-2.88;63.1623;85.8013;-161.3766;0.0;1018.17;60.4726;;;;;;0 / 0;83.8;44.0;3.687;1593;2014-11-17 16:58:38:637
-3.715801;-11.520898;7.096414;-0.167613;-9.804338;0.131209;-3.548188;-1.716559;6.965205;-0.108123;-0.492357;0.110567;235.0;44.52;47.16;-3.48;214.9898;88.7562;51.9457;0.0;1018.05;60.4726;;;;;;0 / 0;83.8;44.0;3.687;1646;2014-11-17 16:58:38:690
-1.666364;-9.481038;4.453215;-0.317538;-9.782422;0.611367;-1.348827;0.301384;3.841848;-0.19059;-0.991129;0.072082;235.0;45.18;47.76;-3.84;214.9898;88.7562;51.9457;0.0;1018.05;60.4726;;;;;;0 / 0;83.8;44.0;3.687;1702;2014-11-17 16:58:38:746
4.070143;-10.01734;-6.378153;0.117517;-9.805708;-0.068085;3.952626;-0.211631;-6.310068;-1.658499;-0.322842;-0.526871;227.0;46.08;48.12;-7.32;240.0375;85.9717;27.4469;0.0;1018.05;60.4726;;;;;;0 / 0;83.8;44.0;3.687;1782;2014-11-17 16:58:38:826
-4.089296;-10.390836;-3.916914;-0.256753;-9.788802;-0.532717;-3.832543;-0.602033;-3.384197;-0.677755;-1.791057;-0.232129;227.0;45.9;48.48;-9.96;99.972;86.5428;154.2674;0.0;1018.03;60.4726;;;;;;0 / 0;83.8;44.0;3.687;1835;2014-11-17 16:58:38:879
4.817134;-6.799533;-2.806004;0.199111;-9.764894;-0.881794;4.618023;2.965362;-1.92421;-1.53877;0.090103;-0.414777;219.0;46.08;48.42;-10.62;99.972;86.5428;154.2674;0.0;1018.03;63.10843;;;;;;0 / 0;83.8;44.0;3.687;1902;2014-11-17 16:58:38:946
-0.948104;-10.477026;-0.497994;0.152466;-9.768284;-0.853102;-1.10057;-0.708742;0.355108;-1.087951;0.200364;-0.15913;216.0;45.36;49.86;-8.88;60.319;84.7108;-167.2759;0.0;1018.03;63.10843;;;;;;0 / 0;83.8;44.0;3.687;1957;2014-11-17 16:58:39:001
0.574608;-9.251194;-2.231396;0.15377;-9.757514;-0.968322;0.420839;0.50632;-1.263074;-0.973108;0.194561;-0.036041;213.0;45.42;50.7;-6.9;66.3304;84.2621;-170.9767;0.0;1018.04;63.10843;;;;;;0 / 0;83.8;44.0;3.687;2014;2014-11-17 16:58:39:058
-1.130063;-9.931148;-1.465251;0.040077;-9.752404;-1.029257;-1.17014;-0.178743;-0.435994;-1.042136;0.601091;-0.106901;213.0;46.08;52.74;-3.0;77.3054;83.9708;-177.7702;0.0;1018.04;63.10843;;;;;;0 / 0;83.8;44.0;3.687;2071;2014-11-17 16:58:39:115
-0.612916;-9.011774;-1.187524;-0.028429;-9.748536;-1.065655;-0.584487;0.736762;-0.121869;-0.981966;0.795957;-0.204945;216.0;47.34;53.88;1.56;86.7843;83.7593;178.4719;0.0;1018.04;63.10843;;;;;;0 / 0;83.8;44.0;3.687;2150;2014-11-17 16:58:39:194
-1.273715;-9.720458;-1.40779;-0.138498;-9.743046;-1.106472;-1.135217;0.022587;-0.301318;-0.972192;0.388205;-0.204029;222.0;47.28;54.24;4.26;86.7843;83.7593;178.4719;0.0;1018.04;63.10843;;;;;;0 / 0;83.8;44.0;3.687;2209;2014-11-17 16:58:39:253
1.580173;-9.299078;-1.695095;0.030065;-9.73774;-1.160143;1.550108;0.438661;-0.534952;-0.829555;0.16921;-0.189368;219.0;47.4;54.24;6.24;88.003;83.2036;-178.5155;0.0;1018.04;64.35323;;;;;;0 / 0;83.8;44.0;3.687;2262;2014-11-17 16:58:39:306
-1.886631;-9.461884;-2.288857;-0.144676;-9.719634;-1.295448;-1.741955;0.25775;-0.993408;-0.796874;0.569937;-0.236405;219.0;47.04;54.3;9.3;98.532;82.3616;173.6276;0.0;1018.04;64.35323;;;;;;0 / 0;83.8;44.0;3.687;2315;2014-11-17 16:58:39:359
0.881066;-9.787496;-2.528277;-0.065686;-9.70544;-1.40374;0.946752;-0.082055;-1.124536;-0.726624;0.43066;-0.016799;219.0;47.46;54.3;9.9;98.532;82.3616;173.6276;0.0;1018.12;64.35323;;;;;;0 / 0;83.8;44.0;3.687;2369;2014-11-17 16:58:39:413
-2.499546;-13.120224;-0.086191;-0.286526;-9.722972;-1.24582;-2.21302;-3.397252;1.159629;-0.168599;1.412015;0.002138;219.0;47.52;54.18;10.92;96.4435;81.7612;177.3209;0.0;1018.12;64.35323;;;;;;0 / 0;83.8;44.0;3.687;2428;2014-11-17 16:58:39:472
-2.882619;-11.961432;2.576161;-0.588631;-9.76125;-0.736133;-2.293987;-2.200182;3.312294;0.865902;0.79046;0.642019;219.0;48.42;52.32;11.76;138.7226;84.4847;141.3532;0.0;1018.12;64.35323;;;;;;0 / 0;83.8;44.0;3.687;2482;2014-11-17 16:58:39:526
5.343858;-11.645396;-2.920926;-0.085009;-9.779322;-0.726683;5.428867;-1.866075;-2.194243;2.637716;0.262672;0.951423;227.0;48.72;46.08;6.84;100.8577;85.7214;173.3278;0.0;1018.15;64.35323;;;;;;0 / 0;83.8;44.0;3.687;2553;2014-11-17 16:58:39:597
2.786851;-13.52245;-2.269703;0.197032;-9.769772;-0.826493;2.589818;-3.752678;-1.44321;2.316707;1.101695;0.970054;233.0;48.84;40.68;2.58;100.8577;85.7214;173.3278;0.0;1018.15;64.35323;;;;;;0 / 0;83.8;44.0;3.687;2608;2014-11-17 16:58:39:652
-0.124498;-10.295066;-2.346318;0.144896;-9.761968;-0.923795;-0.269395;-0.533099;-1.422523;2.392454;-0.277944;0.924239;241.0;48.24;34.62;-1.56;70.8425;85.0296;-166.5912;0.0;1018.15;63.2479;;;;;;0 / 0;83.8;44.0;3.687;2668;2014-11-17 16:58:39:712
-0.067038;-8.303091;-2.681506;0.122963;-9.741024;-1.125922;-0.190001;1.437934;-1.555583;2.003333;-0.943481;0.832609;241.0;45.3;22.8;-5.4;74.2703;83.3678;-173.7674;0.0;1018.15;63.2479;;;;;;0 / 0;83.8;44.0;3.687;2725;2014-11-17 16:58:39:769
0.861913;-6.598419;-1.790863;0.183749;-9.721982;-1.272671;0.678164;3.123562;-0.518192;1.517084;-1.16156;0.854295;244.0;42.48;18.24;-6.06;74.2703;83.3678;-173.7674;0.0;1018.08;63.2479;;;;;;0 / 0;83.8;44.0;3.687;2780;2014-11-17 16:58:39:824
0.172383;-6.579266;0.584185;0.199315;-9.730284;-1.205091;-0.026932;3.151018;1.789276;0.544586;-0.461203;0.802677;241.0;37.56;11.82;-6.3;70.757;82.4656;-171.7844;0.0;1018.08;63.2479;;;;;;0 / 0;83.8;44.0;3.687;2838;2014-11-17 16:58:39:882
-0.019154;-5.640739;0.172383;-0.097089;-9.72937;-1.224873;0.077936;4.088631;1.397255;-0.518014;-0.256869;0.253815;241.0;35.58;9.96;-6.18;69.4501;82.845;-170.6086;0.0;1018.08;63.2479;;;;;;0 / 0;83.8;44.0;3.687;2901;2014-11-17 16:58:39:945
-2.470816;-11.310208;8.37013;-0.031234;-9.802936;-0.268072;-2.439582;-1.507273;8.638202;-0.878424;-0.240681;-0.007941;227.0;31.2;8.34;-4.38;88.8901;88.4229;173.3543;0.0;1018.08;63.2479;;;;;;0 / 0;83.8;44.0;3.687;2973;2014-11-17 16:58:40:017
-1.503559;-9.988608;6.368577;-0.172067;-9.792486;0.498025;-1.331491;-0.196123;5.870552;-0.360105;-0.856738;0.009163;216.0;26.58;7.86;-2.7;245.4568;86.9199;19.06;0.0;1018.08;60.07915;;;;;;0 / 0;83.8;44.0;3.687;3042;2014-11-17 16:58:40:086
1.982399;-10.065224;-6.311115;0.041976;-9.80511;-0.168676;1.940423;-0.260114;-6.14244;0.130114;-0.959058;-0.01069;216.0;24.6;7.8;-1.92;245.4568;86.9199;19.06;0.0;1018.08;60.07915;;;;;;0 / 0;83.8;44.0;3.687;3100;2014-11-17 16:58:40:144
-4.156334;-11.808202;-1.771709;-0.335709;-9.792464;-0.406631;-3.820625;-2.015738;-1.365078;-0.810313;-1.178664;0.117592;213.0;20.4;8.16;0.12;125.9942;86.9177;140.4574;0.0;1018.08;60.07915;;;;;;0 / 0;83.8;44.0;3.687;3161;2014-11-17 16:58:40:205
6.234502;-6.445191;-3.41892;0.252136;-9.77116;-0.794505;5.982365;3.325969;-2.624415;-1.664913;0.067195;-0.647517;211.0;19.5;8.58;1.56;76.0286;85.124;-162.3932;0.0;1018.08;60.07915;;;;;;0 / 0;83.8;44.0;3.687;3218;2014-11-17 16:58:40:262
-2.269703;-10.591948;-0.919373;0.097236;-9.769554;-0.846613;-2.366939;-0.822394;-0.07276;-1.201877;0.281609;-0.282525;211.0;18.3;9.78;4.02;93.2576;85.0148;-173.4481;0.0;1018.11;60.07915;;;;;;0 / 0;83.8;44.0;3.687;3283;2014-11-17 16:58:40:327
0.057461;-9.14585;-2.317587;0.04155;-9.758632;-0.968392;0.015911;0.612783;-1.349195;-1.242194;0.280082;0.003665;208.0;17.76;10.26;5.16;93.2576;85.0148;-173.4481;0.0;1018.11;60.07915;;;;;;0 / 0;83.8;44.0;3.687;3333;2014-11-17 16:58:40:377
-0.153229;-9.634268;-1.197101;0.026569;-9.753978;-1.014676;-0.179798;0.119711;-0.182425;-1.209819;0.860098;-0.00672;211.0;17.46;10.56;6.42;104.3401;84.059;-178.5001;0.0;1018.11;65.5168;;;;;;0 / 0;83.8;44.0;3.687;3387;2014-11-17 16:58:40:431
-1.158794;-9.289502;-1.484405;-0.077305;-9.747186;-1.075549;-1.081489;0.457684;-0.408856;-1.163698;1.361008;-0.170431;211.0;17.1;11.4;9.06;118.6842;83.6871;175.889;0.0;1018.11;65.5168;;;;;;0 / 0;83.8;44.0;3.687;3441;2014-11-17 16:58:40:485
-1.532289;-9.662998;-0.593762;-0.220609;-9.750738;-1.02215;-1.31168;0.087741;0.428388;-0.999681;0.751975;-0.208305;219.0;17.16;11.64;10.8;118.6842;83.6871;175.889;0.0;1018.02;65.5168;;;;;;0 / 0;83.8;44.0;3.687;3498;2014-11-17 16:58:40:542
1.149217;-8.96389;-1.580173;-0.096409;-9.747558;-1.070604;1.245626;0.783667;-0.50957;-0.744034;0.267864;-0.06353;222.0;16.74;11.76;12.66;134.7216;83.8789;167.8208;0.0;1018.02;65.5168;;;;;;0 / 0;83.8;44.0;3.687;3563;2014-11-17 16:58:40:607
-2.863465;-9.720458;-2.30801;-0.347592;-9.724018;-1.221903;-2.515873;0.003559;-1.086107;-0.885144;0.515265;-0.361327;219.0;16.2;11.52;13.74;144.389;82.5568;164.1206;0.0;1018.02;65.5168;;;;;;0 / 0;83.8;44.0;3.687;3619;2014-11-17 16:58:40:663
1.177947;-9.940724;-1.446098;-0.22406;-9.726482;-1.231147;1.402007;-0.214242;-0.214951;-0.673173;0.267559;-0.010079;212.0;14.52;11.7;16.56;146.5352;82.6688;169.6855;0.0;1018.06;65.5168;;;;;;0 / 0;83.8;44.0;3.687;3683;2014-11-17 16:58:40:727
-1.187524;-12.785036;0.402226;-0.311588;-9.748294;-1.02178;-0.875936;-3.036742;1.424006;-0.491746;0.992656;0.076969;211.0;14.04;11.82;18.54;146.5352;82.6688;169.6855;0.0;1018.06;69.77721;;;;;;0 / 0;83.8;44.0;3.687;3734;2014-11-17 16:58:40:778
-3.122039;-12.765882;2.451663;-0.617175;-9.771692;-0.550915;-2.504864;-2.994191;3.002577;0.923323;1.150259;0.696081;211.0;11.88;11.88;22.74;162.9164;83.7464;163.0411;0.0;1018.06;69.77721;;;;;;0 / 0;83.8;44.0;3.687;3800;2014-11-17 16:58:40:844
4.855441;-11.769896;-3.265691;-0.148551;-9.787762;-0.589974;5.003993;-1.982134;-2.675717;2.690862;-0.257785;1.010677;215.0;10.74;12.66;25.26;170.073;86.4432;165.8671;0.0;1018.11;69.77721;;;;;;0 / 0;83.8;44.0;3.687;3862;2014-11-17 16:58:40:906
1.225831;-13.426682;-2.75812;-0.001065;-9.77625;-0.771578;1.226897;-3.650432;-1.986542;2.288607;0.524733;0.812756;233.0;10.2;17.22;30.12;160.7913;85.4874;179.9209;0.0;1018.11;69.77721;;;;;;0 / 0;83.8;44.0;3.687;3927;2014-11-17 16:58:40:971
-0.172383;-9.500192;-3.093309;-0.03855;-9.761526;-0.938874;-0.133832;0.261334;-2.154435;2.625499;-0.858876;0.823752;238.0;11.1;21.12;31.26;160.7913;85.4874;179.9209;0.0;1018.11;69.77721;;;;;;0 / 0;83.8;44.0;3.687;3987;2014-11-17 16:58:41:031
-0.497994;-8.063671;-2.700659;-0.085761;-9.736784;-1.165354;-0.412232;1.673114;-1.535305;2.087327;-0.954782;0.738536;249.0;15.9;29.58;28.26;157.2002;84.5015;177.6488;0.0;1018.1;69.77721;;;;;;0 / 0;83.8;44.0;3.687;4043;2014-11-17 16:58:41:087
0.976834;-6.713341;-1.924938;-0.011604;-9.715476;-1.334077;0.988438;3.002135;-0.590861;1.078788;-1.350623;0.891863;249.0;19.2;33.12;25.26;137.4221;82.1811;179.5017;0.0;1018.1;69.77721;;;;;;0 / 0;83.8;44.0;3.687;4104;2014-11-17 16:58:41:148
1.61848;-6.483498;-0.172383;0.178424;-9.714088;-1.33232;1.440056;3.23059;1.159937;0.033292;-0.34972;0.531758;235.0;25.56;37.5;18.06;107.8077;82.1216;-172.3723;0.0;1018.08;66.01232;;;;;;0 / 0;83.8;44.0;3.687;4185;2014-11-17 16:58:41:229
0.153229;-6.770802;0.699107;0.230531;-9.724386;-1.246424;-0.077302;2.953585;1.945531;-0.729984;-0.14111;0.206778;233.0;28.26;38.7;15.42;107.8077;82.1216;-172.3723;0.0;1018.08;66.01232;;;;;;0 / 0;83.8;44.0;3.687;4240;2014-11-17 16:58:41:284
-4.213795;-11.84651;9.011776;-0.22869;-9.802094;-0.192435;-3.985105;-2.044414;9.20421;-0.225104;-0.264505;0.229074;233.0;31.8;40.68;12.72;95.4731;82.5734;-169.5213;0.0;1018.08;66.01232;;;;;;0 / 0;83.8;44.0;3.687;4298;2014-11-17 16:58:41:342
-2.75812;-10.055646;6.493075;-0.482771;-9.781456;0.510312;-2.275349;-0.27419;5.982764;0.069944;-0.924545;0.042761;227.0;33.12;41.58;12.66;252.7903;85.8921;43.4114;0.0;1018.08;66.01232;;;;;;0 / 0;83.8;44.0;3.687;4350;2014-11-17 16:58:41:394
5.114015;-12.459426;-4.261679;-0.100504;-9.803946;0.207312;5.214519;-2.655479;-4.468992;-1.407739;-0.364381;-0.448986;216.0;35.64;43.5;10.5;262.6902;88.6539;25.8638;0.0;1018.08;66.01232;;;;;;0 / 0;83.8;44.0;3.687;4418;2014-11-17 16:58:41:462
-2.719813;-7.422025;-8.178592;0.022561;-9.774704;-0.790589;-2.742374;2.352679;-7.388004;-0.733038;-1.55679;-0.186925;211.0;36.72;44.22;8.7;262.6902;88.6539;25.8638;0.0;1018.08;63.58364;;;;;;0 / 0;83.8;44.0;3.687;4476;2014-11-17 16:58:41:520
3.60088;-8.159439;-4.165911;0.112365;-9.657356;-1.700953;3.488515;1.497918;-2.464958;-1.689959;0.988991;0.375682;211.0;38.16;45.12;6.0;93.3942;85.374;-178.3654;0.0;1018.08;63.58364;;;;;;0 / 0;83.8;44.0;3.687;4528;2014-11-17 16:58:41:572
-1.302446;-9.89284;-1.656788;0.38173;-9.458334;-2.562146;-1.684176;-0.434507;0.905359;-1.2425;0.065668;-0.362854;211.0;38.46;45.42;6.9;74.637;74.6836;-171.5259;0.0;1017.99;63.58364;;;;;;0 / 0;83.8;44.0;3.687;4583;2014-11-17 16:58:41:627
0.335188;-9.366116;-1.522712;0.4981;-9.277632;-3.138122;-0.162912;-0.088486;1.61541;-1.266324;0.447764;-0.050396;211.0;38.46;46.32;11.1;75.3496;71.0947;-170.9809;0.0;1017.99;63.58364;;;;;;0 / 0;83.8;44.0;3.687;4648;2014-11-17 16:58:41:692
-0.296881;-9.56723;-0.986411;0.63507;-9.065064;-3.68669;-0.931951;-0.502165;2.700279;-1.249219;1.164309;0.080634;211.0;38.28;47.04;13.44;75.3496;71.0947;-170.9809;0.0;1017.99;63.58364;;;;;;0 / 0;83.8;44.0;3.687;4707;2014-11-17 16:58:41:751
-0.804452;-9.490616;-1.61848;0.894783;-8.858288;-4.111021;-1.699235;-0.632328;2.492541;-0.96364;1.088257;-0.121868;216.0;37.98;47.1;18.66;76.9401;67.575;-170.2261;0.0;1018.04;63.58364;;;;;;0 / 0;83.8;44.0;3.687;4767;2014-11-17 16:58:41:811
-0.814029;-9.586384;-0.986411;1.170065;-8.69055;-4.39041;-1.984094;-0.895834;3.403999;-0.770301;0.587958;-0.046731;220.0;37.56;47.22;21.6;74.6817;62.3982;-165.0772;0.0;1018.04;63.58364;;;;;;0 / 0;83.8;44.0;3.687;4826;2014-11-17 16:58:41:870
0.670377;-9.270348;-0.861913;1.350397;-8.56278;-4.585369;-0.680021;-0.707568;3.723457;-0.76572;0.667676;-0.103236;218.0;37.5;46.62;26.1;76.5115;60.828;-163.5902;0.0;1018.0;62.7959;;;;;;0 / 0;83.8;44.0;3.687;4908;2014-11-17 16:58:41:952
1.312023;-9.394848;-1.924938;1.790876;-8.292418;-4.919244;-0.478854;-1.102429;2.994306;-0.579711;0.672868;-0.025656;218.0;37.44;46.08;29.46;77.73;59.0757;-162.3104;0.0;1018.0;62.7959;;;;;;0 / 0;83.8;44.0;3.687;4986;2014-11-17 16:58:42:030
-1.704672;-11.674128;0.316035;1.839598;-8.339016;-4.821523;-3.544269;-3.335111;5.137559;-0.503964;0.587958;0.02138;211.0;37.62;45.96;31.38;77.73;59.0757;-162.3104;0.0;1018.0;62.7959;;;;;;0 / 0;83.8;44.0;3.687;5041;2014-11-17 16:58:42:085
-1.704672;-11.674128;0.316035;1.839598;-8.339016;-4.821523;-3.544269;-3.335111;5.137559;0.173486;1.275792;0.355829;211.0;38.04;45.12;32.34;78.2287;58.249;-159.1162;0.0;1018.0;62.7959;;;;;;0 / 0;83.8;44.0;3.687;5093;2014-11-17 16:58:42:137
4.865018;-12.545616;-3.045424;1.531904;-9.109392;-3.292812;3.333114;-3.436224;0.247387;1.52136;0.436463;0.925461;211.0;39.42;43.68;33.06;81.3366;61.5669;-157.2869;0.0;1018.0;62.7959;;;;;;0 / 0;83.8;44.0;3.687;5157;2014-11-17 16:58:42:201
2.710236;-13.532028;-2.96881;1.0954;-9.57893;-1.792918;1.614837;-3.953098;-1.175892;2.670398;-0.205862;0.788627;229.0;40.74;42.0;32.28;81.3366;61.5669;-157.2869;0.0;1018.0;62.7959;;;;;;0 / 0;83.8;44.0;3.687;5218;2014-11-17 16:58:42:262
-1.063026;-10.52491;-2.576161;0.668747;-9.778368;-0.326603;-1.731772;-0.746542;-2.249558;2.710715;-0.369268;0.732122;235.0;43.68;38.82;26.82;84.2686;77.6286;-148.5768;0.0;1018.12;61.29582;;;;;;0 / 0;83.8;44.0;3.687;5282;2014-11-17 16:58:42:326
-1.063026;-10.52491;-2.576161;0.668747;-9.778368;-0.326603;-1.731772;-0.746542;-2.249558;2.426662;-0.743118;0.688445;255.0;44.82;37.44;23.52;51.7021;85.6476;-116.03;0.0;1018.12;61.29582;;;;;;0 / 0;83.8;44.0;3.687;5333;2014-11-17 16:58:42:377
-0.248997;-8.322244;-2.748543;0.313838;-9.748814;1.016148;-0.562835;1.426569;-3.764691;1.982563;-0.802677;0.631635;255.0;44.88;36.42;20.28;51.7021;85.6476;-116.03;0.0;1018.12;61.29582;;;;;;0 / 0;83.8;44.0;3.687;5383;2014-11-17 16:58:42:427
0.90022;-7.220912;-1.752556;0.085563;-9.615506;1.924867;0.814657;2.394595;-3.677422;1.110553;-1.384221;0.647212;252.0;44.34;34.68;14.64;312.2268;83.7741;-17.1633;0.0;1018.13;61.29582;;;;;;0 / 0;83.8;44.0;3.687;5441;2014-11-17 16:58:42:485
0.938527;-5.612008;-0.833182;-0.084108;-9.471406;2.540824;1.022635;3.859398;-3.374006;0.473726;-0.514959;0.550084;247.0;43.8;33.9;12.0;293.1707;74.9754;1.896;0.0;1018.13;61.29582;;;;;;0 / 0;83.8;44.0;3.687;5503;2014-11-17 16:58:42:547
0.23942;-5.401319;-0.21069;-0.248502;-9.46495;2.554086;0.487922;4.063632;-2.764776;-0.823752;-0.013439;0.12706;247.0;43.56;32.64;9.48;286.427;74.8306;5.5572;0.0;1018.13;61.29582;;;;;;0 / 0;83.8;44.0;3.687;5561;2014-11-17 16:58:42:605
-2.604891;-11.597512;9.825804;-0.047572;-9.798404;-0.399228;-2.557319;-1.799108;10.225032;-0.757473;-0.040623;-0.03207;252.0;43.5;32.46;10.14;286.427;74.8306;5.5572;0.0;1018.0;59.23929;;;;;;0 / 0;83.8;44.0;3.687;5613;2014-11-17 16:58:42:657
-2.509123;-11.559206;7.469909;-0.306642;-9.789144;0.499027;-2.202481;-1.770061;6.970883;-0.252898;-0.798706;0.166155;252.0;43.26;32.58;11.58;110.747;87.6503;173.2046;0.0;1018.0;59.23929;;;;;;0 / 0;83.8;44.0;3.687;5666;2014-11-17 16:58:42:710
0.114922;-4.501099;-10.237606;-0.302892;-9.789472;-0.494897;0.417814;5.288373;-9.742708;0.951423;-1.721724;0.297491;249.0;42.54;33.36;13.74;137.7885;86.608;148.5321;0.0;1018.0;59.23929;;;;;;0 / 0;83.8;44.0;3.687;5723;2014-11-17 16:58:42:767
-1.838747;-14.54717;0.469264;-0.345229;-9.784304;-0.564459;-1.493518;-4.762866;1.033723;-0.231212;-1.276403;-0.542143;235.0;42.18;33.66;13.8;137.7885;86.608;148.5321;0.0;1018.0;59.23929;;;;;;0 / 0;83.8;44.0;3.687;5785;2014-11-17 16:58:42:829
5.43005;-6.598419;-1.771709;0.139133;-9.776758;-0.752342;5.290916;3.178339;-1.019367;-1.433395;0.025045;0.481056;230.0;41.22;35.04;14.22;137.7634;86.1313;148.5496;0.0;1018.0;59.23929;;;;;;0 / 0;83.8;44.0;3.687;5841;2014-11-17 16:58:42:885
-1.580173;-11.473014;0.775721;0.057307;-9.788286;-0.597123;-1.63748;-1.684728;1.372844;-1.339933;-0.114537;-0.580017;224.0;40.38;36.3;16.5;104.7031;86.4931;-174.518;0.0;1018.0;59.23929;;;;;;0 / 0;83.8;44.0;3.687;5909;2014-11-17 16:58:42:953
0.612916;-9.011774;-1.264138;0.069902;-9.785378;-0.641804;0.543014;0.773603;-0.622334;-1.03053;-0.020464;0.013439;224.0;39.9;36.84;18.6;104.7031;86.4931;-174.518;0.0;1018.0;62.59909;;;;;;0 / 0;83.8;44.0;3.687;5964;2014-11-17 16:58:43:008
0.411803;-9.902418;-1.101333;0.117945;-9.780384;-0.707521;0.293858;-0.122033;-0.393811;-1.028697;0.013134;0.002138;216.0;39.78;37.38;20.64;108.5098;86.2254;-173.7842;0.0;1018.0;62.59909;;;;;;0 / 0;83.8;44.0;3.687;6072;2014-11-17 16:58:43:116
-0.727837;-9.299078;-1.101333;-0.130371;-9.778284;-0.73386;-0.597467;0.479205;-0.367473;-0.826806;0.216857;-0.240375;216.0;37.62;38.22;27.24;108.5098;86.2254;-173.7842;0.0;1018.0;62.59909;;;;;;0 / 0;83.8;44.0;3.687;6130;2014-11-17 16:58:43:174
1.072602;-8.973468;-1.225831;-0.013152;-9.77499;-0.787279;1.085754;0.801522;-0.438552;-0.728762;-0.197309;-0.116981;211.0;36.18;37.98;32.34;136.637;85.641;169.9265;0.0;1018.0;62.59909;;;;;;0 / 0;83.8;44.0;3.687;6188;2014-11-17 16:58:43:232
0.383072;-8.39886;-2.930503;0.033105;-9.752278;-1.030708;0.349968;1.353419;-1.899795;-0.778853;0.564745;-0.237627;211.0;35.22;37.98;35.1;130.6542;85.3946;179.0429;0.0;1018.0;62.59909;;;;;;0 / 0;83.8;44.0;3.687;6258;2014-11-17 16:58:43:302
0.354342;-9.950302;-1.283292;0.085246;-9.747052;-1.076128;0.269095;-0.203249;-0.207164;-0.884227;0.685696;-0.271224;204.0;33.12;37.62;39.06;132.0244;83.9638;-178.1604;0.0;1018.0;62.59909;;;;;;0 / 0;83.8;44.0;3.687;6329;2014-11-17 16:58:43:373
0.287304;-9.672574;-1.197101;0.082574;-9.74846;-1.063539;0.20473;0.075885;-0.133561;-0.482278;0.692416;0.005192;202.0;30.78;37.32;43.92;134.0901;83.6802;-175.4707;0.0;1018.01;57.94274;;;;;;0 / 0;83.8;44.0;3.687;6396;2014-11-17 16:58:43:440
-2.978387;-14.317326;4.941633;-0.251707;-9.796088;-0.379034;-2.726679;-4.521237;5.320667;0.71624;0.933097;0.595594;200.0;29.76;36.9;46.08;180.4917;87.3407;146.4129;0.0;1018.01;57.94274;;;;;;0 / 0;83.8;44.0;3.687;6454;2014-11-17 16:58:43:498
6.234502;-12.880804;-3.600879;0.308079;-9.793342;-0.407391;5.926423;-3.087463;-3.193488;2.708882;0.470366;0.782213;222.0;29.22;37.8;47.34;180.4917;87.3407;146.4129;0.0;1018.15;57.94274;;;;;;0 / 0;83.8;44.0;3.687;6511;2014-11-17 16:58:43:555
3.294422;-13.474566;-4.55856;0.587154;-9.759146;-0.764675;2.707267;-3.715422;-3.793885;2.444072;1.056186;0.758695;222.0;28.56;42.24;46.32;109.1584;87.0144;-142.9026;0.0;1018.15;57.94274;;;;;;0 / 0;83.8;44.0;3.687;6561;2014-11-17 16:58:43:605
0.995988;-11.377246;-2.011129;0.598663;-9.751186;-0.852256;0.397325;-1.626059;-1.158873;2.429717;0.309709;0.864069;237.0;28.68;45.78;43.56;104.2329;84.3581;-142.4812;0.0;1018.15;57.94274;;;;;;0 / 0;83.8;44.0;3.687;6628;2014-11-17 16:58:43:672
1.781286;-7.268796;-2.384625;0.721586;-9.726786;-1.019483;1.0597;2.457989;-1.365142;1.779756;-0.426078;0.596204;242.0;30.6;52.02;35.34;94.9576;82.6827;-144.7093;0.0;1018.15;57.94274;;;;;;0 / 0;83.8;44.0;3.687;6682;2014-11-17 16:58:43:726
0.440533;-6.41646;-2.844312;0.736105;-9.690766;-1.310573;-0.295572;3.274306;-1.533739;0.67409;-0.604146;0.343917;227.0;31.68;54.54;29.88;94.9576;82.6827;-144.7093;0.0;1018.0;63.72058;;;;;;0 / 0;83.8;44.0;3.687;6750;2014-11-17 16:58:43:794
-0.45011;-7.163451;-0.21069;0.653537;-9.69313;-1.336617;-1.103647;2.529678;1.125928;0.036957;0.00733;0.279776;227.0;34.32;57.96;21.72;85.585;81.183;-150.6785;0.0;1018.0;63.72058;;;;;;0 / 0;83.8;44.0;3.687;6804;2014-11-17 16:58:43:848
-0.517148;-10.13226;5.075708;0.533328;-9.76605;-0.714278;-1.050476;-0.36621;5.789985;-0.08094;-0.194255;0.323759;216.0;34.98;58.8;20.1;80.9771;81.2736;-153.9437;0.0;1018.0;63.72058;;;;;;0 / 0;83.8;44.0;3.687;6865;2014-11-17 16:58:43:909
0.354342;-7.335834;-1.244985;0.533421;-9.76121;-0.777587;-0.179079;2.425377;-0.467398;-0.218079;-0.463341;0.284969;213.0;36.36;58.62;19.8;76.9179;84.4822;-145.5501;0.0;1018.05;63.72058;;;;;;0 / 0;83.8;44.0;3.687;6928;2014-11-17 16:58:43:972
1.963245;-9.318232;2.987964;0.705875;-9.767628;-0.515345;1.257371;0.449395;3.503309;-1.08001;-0.622472;-0.160047;200.0;36.78;58.32;20.28;76.9179;84.4822;-145.5501;0.0;1018.05;63.72058;;;;;;0 / 0;83.8;44.0;3.687;6992;2014-11-17 16:58:44:036
2.260126;-15.591042;6.579266;0.769573;-9.764776;-0.476749;1.490553;-5.826264;7.056016;-0.652404;-0.794736;-0.181427;200.0;37.98;57.3;22.62;59.2682;84.887;-126.1324;0.0;1018.05;63.72058;;;;;;0 / 0;83.8;44.0;3.687;7042;2014-11-17 16:58:44:086
1.991976;-7.211335;2.078167;0.885027;-9.746788;-0.622277;1.106949;2.535453;2.700444;-0.263894;0.386067;-0.067195;191.0;37.74;56.82;24.24;58.4213;84.7033;-121.7781;0.0;1018.05;61.39789;;;;;;0 / 0;83.8;44.0;3.687;7099;2014-11-17 16:58:44:143
-3.323152;-9.35654;1.465252;0.878686;-9.75176;-0.549055;-4.201838;0.395221;2.014306;-0.365908;0.251982;-0.091019;189.0;36.54;56.46;26.82;61.6945;83.9351;-121.9996;0.0;1018.05;61.39789;;;;;;0 / 0;83.8;44.0;3.687;7165;2014-11-17 16:58:44:209
0.670377;-10.266336;3.303998;0.884399;-9.752884;-0.51911;-0.214023;-0.513452;3.823109;-0.229685;0.12706;0.110872;186.0;36.3;56.46;27.48;61.6945;83.9351;-121.9996;0.0;1018.05;61.39789;;;;;;0 / 0;83.8;44.0;3.687;7222;2014-11-17 16:58:44:266
0.411803;-9.375694;1.493982;0.836086;-9.762246;-0.412213;-0.424283;0.386553;1.906195;0.009163;-0.322231;0.04612;183.0;36.0;56.76;28.74;61.8867;83.9975;-120.4114;0.0;1018.02;61.39789;;;;;;0 / 0;83.8;44.0;3.687;7284;2014-11-17 16:58:44:328
-0.229843;-9.710882;1.541866;0.799172;-9.768864;-0.317864;-1.029015;0.057981;1.859731;-0.048564;0.043066;0.072998;175.0;36.06;56.64;29.1;59.4022;84.5454;-116.2445;0.0;1018.02;61.39789;;;;;;0 / 0;83.8;44.0;3.687;7339;2014-11-17 16:58:44:383
0.909797;-9.739612;1.321599;0.774106;-9.77333;-0.230559;0.135691;0.033718;1.552159;-0.016493;-0.046426;0.086132;169.0;36.06;56.94;28.98;50.9984;85.2756;-106.5856;0.0;1018.04;61.39789;;;;;;0 / 0;83.8;44.0;3.687;7412;2014-11-17 16:58:44:456
0.047884;-9.615114;1.398214;0.736795;-9.777894;-0.142453;-0.688911;0.16278;1.540667;-0.061087;-0.010996;0.055894;166.0;35.58;56.88;28.92;50.9984;85.2756;-106.5856;0.0;1018.04;55.4023;;;;;;0 / 0;83.8;44.0;3.687;7477;2014-11-17 16:58:44:521
-0.143652;-9.414;1.244985;0.709697;-9.780626;-0.077892;-0.853349;0.366625;1.322877;-0.041233;-0.150273;0.08491;165.0;35.64;57.42;29.04;45.9834;85.6112;-100.9426;0.0;1018.04;55.4023;;;;;;0 / 0;83.8;44.0;3.687;7539;2014-11-17 16:58:44:583
0.833182;-9.825804;1.857901;0.69116;-9.782256;0.011802;0.142022;-0.043548;1.846098;0.03207;-0.10965;0.07422;165.0;35.94;57.3;29.34;35.0768;85.9579;-89.0217;0.0;1018.04;55.4023;;;;;;0 / 0;83.8;44.0;3.687;7589;2014-11-17 16:58:44:633
0.47884;-9.548076;1.522712;0.668818;-9.783174;0.112176;-0.189978;0.235097;1.410536;0.006414;0.067806;0.069028;165.0;36.48;57.3;29.04;27.1564;86.0346;-80.4788;0.0;1018.08;55.4023;;;;;;0 / 0;83.8;44.0;3.687;7650;2014-11-17 16:58:44:694
0.47884;-9.65342;0.842759;0.658563;-9.78259;0.193914;-0.179722;0.129169;0.648846;0.035125;0.009468;0.080634;161.0;36.12;57.06;28.86;27.1564;86.0346;-80.4788;0.0;1018.08;55.4023;;;;;;0 / 0;83.8;44.0;3.687;7708;2014-11-17 16:58:44:752
0.296881;-10.151414;2.470816;0.640967;-9.783742;0.194765;-0.344086;-0.367672;2.276051;0.047342;-0.151189;0.057421;161.0;35.88;57.06;29.28;20.7406;85.9857;-73.593;0.0;1018.04;55.4023;;;;;;0 / 0;83.8;44.0;3.687;7772;2014-11-17 16:58:44:816