sep=;
ACCELEROMETER X (m/s²);ACCELEROMETER Y (m/s²);ACCELEROMETER Z (m/s²);GRAVITY X (m/s²);GRAVITY Y (m/s²);GRAVITY Z (m/s²);LINEAR ACCELERATION X (m/s²);LINEAR ACCELERATION Y (m/s²);LINEAR ACCELERATION Z (m/s²);GYROSCOPE X (rad/s);GYROSCOPE Y (rad/s);GYROSCOPE Z (rad/s);LIGHT (lux);MAGNETIC FIELD X (μT);MAGNETIC FIELD Y (μT);MAGNETIC FIELD Z (μT);ORIENTATION X (°);ORIENTATION Y (°);ORIENTATION Z (°);PROXIMITY (i);ATMOSPHERIC PRESSURE (hPa);SOUND LEVEL (dB);LOCATION Latitude : ;LOCATION Longitude : ;LOCATION Altitude ( m);LOCATION Speed ( Kmh);LOCATION Accuracy ( m);Satellites in range;Temperature (F);Level (%);Voltage (Volt);Time since start in ms ;YYYY-MO-DD HH-MI-SS_SSS
-1.675941;-11.099518;5.104438;0.981125;-9.684456;1.191255;-2.657066;-1.415062;3.913183;1.174388;0.240681;0.352469;262.0;26.94;36.3;-8.82;317.3505;82.4979;-61.544;0.0;1017.86;62.73928;;;;;;0 / 0;85.8;45.0;3.667;15;2014-11-17 16:57:01:464
1.810017;-10.055646;-0.909797;0.706569;-9.568774;2.027242;1.103448;-0.486873;-2.937038;1.591609;0.387594;0.577268;269.0;27.48;35.1;-7.56;302.5012;80.9457;-39.4751;0.0;1017.86;62.73928;;;;;;0 / 0;85.8;45.0;3.667;66;2014-11-17 16:57:01:515
1.810017;-10.055646;-0.909797;0.706569;-9.568774;2.027242;1.103448;-0.486873;-2.937038;1.226618;-0.062919;0.446543;269.0;27.78;34.02;-7.86;287.3156;77.3545;-19.2153;0.0;1017.86;62.73928;;;;;;0 / 0;85.8;45.0;3.667;120;2014-11-17 16:57:01:569
0.134075;-7.498639;1.369483;0.315733;-9.338006;2.978648;-0.181657;1.839367;-1.609165;0.729679;-0.333838;0.530842;269.0;28.86;32.22;-8.7;277.9554;72.2154;-6.0507;0.0;1017.87;50.59026;;;;;;0 / 0;85.8;45.0;3.667;189;2014-11-17 16:57:01:638
-0.603339;-8.178592;2.078167;0.080374;-9.30899;3.083282;-0.683712;1.130397;-1.005115;0.036652;-0.262977;0.477391;264.0;29.4;31.62;-8.76;277.9554;72.2154;-6.0507;0.0;1017.87;50.59026;;;;;;0 / 0;85.8;45.0;3.667;260;2014-11-17 16:57:01:709
-0.038307;-8.599972;3.955221;-0.021927;-9.331796;3.014549;-0.016381;0.731823;0.940672;-0.29627;-0.336281;0.312763;258.0;29.22;30.9;-7.44;275.6251;71.6685;-1.4932;0.0;1017.85;50.59026;;;;;;0 / 0;85.8;45.0;3.667;337;2014-11-17 16:57:01:786
-0.038307;-8.868122;3.811569;-0.095436;-9.374196;2.878488;0.057129;0.506074;0.933081;-0.057727;-0.117592;0.22205;260.0;28.98;31.02;-5.7;277.1253;72.097;0.4167;0.0;1017.85;50.59026;;;;;;0 / 0;85.8;45.0;3.667;405;2014-11-17 16:57:01:854
-1.446098;-8.820238;2.786851;-0.17664;-9.383436;2.844342;-1.269458;0.563198;-0.057492;-0.129503;-0.311847;0.288634;255.0;29.16;30.96;-5.04;275.0169;73.1061;3.5536;0.0;1017.85;50.59026;;;;;;0 / 0;85.8;45.0;3.667;466;2014-11-17 16:57:01:915
-0.909797;-8.130708;2.27928;-0.245168;-9.40531;2.765937;-0.664629;1.274602;-0.486657;-0.390037;-0.532674;0.245568;252.0;28.68;31.5;-3.78;275.5725;73.5515;5.0654;0.0;1017.78;53.79839;;;;;;0 / 0;85.8;45.0;3.667;520;2014-11-17 16:57:01:969
0.076614;-9.279924;3.782839;-0.248715;-9.469006;2.53899;0.325329;0.18908;1.243849;-0.623999;-0.562301;0.173486;238.0;28.38;31.74;-2.88;275.5725;73.5515;5.0654;0.0;1017.78;53.79839;;;;;;0 / 0;85.8;45.0;3.667;572;2014-11-17 16:57:02:021
3.620033;-11.042058;-0.938527;-0.127081;-9.570712;2.134414;3.747114;-1.471346;-3.072941;-0.833831;-0.823141;0.145997;235.0;27.84;32.82;-1.08;277.7519;74.9214;5.5947;0.0;1017.78;53.79839;;;;;;0 / 0;85.8;45.0;3.667;631;2014-11-17 16:57:02:080
-1.771709;-11.128248;-3.916914;0.141528;-9.700472;1.432203;-1.913237;-1.427776;-5.349117;-0.921796;-0.685391;0.343001;227.0;26.4;34.44;1.2;285.8255;81.5611;-5.6436;0.0;1017.78;53.79839;;;;;;0 / 0;85.8;45.0;3.667;713;2014-11-17 16:57:02:162
5.449203;-6.493075;-2.183512;0.164544;-9.76746;0.860252;5.284659;3.274385;-3.043764;-1.481043;0.516792;-0.649655;222.0;25.86;35.34;3.3;293.6292;84.876;-10.8284;0.0;1017.78;53.79839;;;;;;0 / 0;85.8;45.0;3.667;781;2014-11-17 16:57:02:230
-2.700659;-10.381258;-0.909797;0.36512;-9.799744;-0.045863;-3.06578;-0.581514;-0.863934;-0.891863;0.90744;-0.045204;219.0;25.98;36.66;8.58;25.0443;87.8493;-97.1595;0.0;1017.78;53.79839;;;;;;0 / 0;85.8;45.0;3.667;844;2014-11-17 16:57:02:293
0.411803;-9.787496;-1.35033;0.441343;-9.73474;-1.10021;-0.02954;-0.052756;-0.25012;-0.937067;0.054978;-0.009774;222.0;25.8;37.8;13.38;85.6073;83.0571;-158.1421;0.0;1017.86;61.78031;;;;;;0 / 0;85.8;45.0;3.667;913;2014-11-17 16:57:02:362
0.268151;-9.299078;-2.059013;0.467762;-9.671674;-1.552509;-0.199612;0.372596;-0.506505;-0.826195;0.878424;0.141721;223.0;25.74;37.98;14.28;85.6073;83.0571;-158.1421;0.0;1017.86;61.78031;;;;;;0 / 0;85.8;45.0;3.667;968;2014-11-17 16:57:02:417
-1.331176;-9.394848;-1.513135;0.551465;-9.594514;-1.952335;-1.882641;0.199666;0.439199;-0.705549;0.831388;-0.015577;226.0;25.5;38.34;17.76;92.7714;80.4829;-163.2327;0.0;1017.8;61.78031;;;;;;0 / 0;85.8;45.0;3.667;1042;2014-11-17 16:57:02:491
0.861913;-9.184156;-1.810016;0.62146;-9.52866;-2.233564;0.240452;0.344502;0.423547;-0.598037;0.380875;0.044288;226.0;25.14;38.22;21.66;97.5831;78.0609;-164.2269;0.0;1017.8;61.78031;;;;;;0 / 0;85.8;45.0;3.667;1103;2014-11-17 16:57:02:552
0.162806;-9.346964;-2.145205;0.737765;-9.42613;-2.602725;-0.574959;0.079166;0.457521;-0.851546;0.534813;-0.151495;230.0;24.12;38.82;25.62;102.8671;76.3251;-164.4515;0.0;1017.8;61.78031;;;;;;0 / 0;85.8;45.0;3.667;1176;2014-11-17 16:57:02:625
-0.976834;-9.481038;-2.403778;0.959659;-9.277788;-3.028545;-1.936494;-0.20325;0.624767;-0.645685;0.212887;-0.066279;230.0;23.4;39.06;27.3;99.7026;71.0975;-162.4181;0.0;1017.8;61.78031;;;;;;0 / 0;85.8;45.0;3.667;1243;2014-11-17 16:57:02:692
1.388637;-9.375694;-3.160346;1.063731;-9.161138;-3.333527;0.324906;-0.214555;0.173181;-0.536034;0.328951;0.033903;230.0;22.8;39.24;31.26;102.8387;69.0955;-162.3021;0.0;1017.8;60.01195;;;;;;0 / 0;85.8;45.0;3.667;1293;2014-11-17 16:57:02:742
-0.316035;-10.860098;-0.172383;1.192425;-9.076042;-3.517663;-1.50846;-1.784056;3.345281;-0.478307;1.195158;0.122478;231.0;22.2;39.3;33.18;102.8387;69.0955;-162.3021;0.0;1017.8;60.01195;;;;;;0 / 0;85.8;45.0;3.667;1346;2014-11-17 16:57:02:795
-5.707777;-12.277466;0.814029;1.232709;-9.122744;-3.380284;-6.940486;-3.154722;4.194313;0.23671;1.166447;0.240375;235.0;20.22;40.14;36.3;106.6162;67.7437;-161.2742;0.0;1017.89;60.01195;;;;;;0 / 0;85.8;45.0;3.667;1416;2014-11-17 16:57:02:865
2.528277;-11.961432;-3.399766;0.644407;-9.708362;-1.225894;1.88387;-2.253069;-2.173872;2.579379;-0.691194;0.711047;247.0;21.6;43.68;36.54;109.1381;68.4756;-159.9643;0.0;1017.89;60.01195;;;;;;0 / 0;85.8;45.0;3.667;1508;2014-11-17 16:57:02:957
0.172383;-12.545616;-2.806004;0.281782;-9.801658;0.135829;-0.109399;-2.743958;-2.941833;2.441018;0.328035;0.6634;258.0;24.0;46.44;34.08;108.2784;81.8812;-152.2708;0.0;1017.89;60.01195;;;;;;0 / 0;85.8;45.0;3.667;1571;2014-11-17 16:57:03:020
0.172383;-9.136272;-2.633622;-0.020073;-9.6933;1.486581;0.192456;0.557027;-4.120203;2.458122;-0.571464;0.632551;269.0;31.2;51.96;24.66;12.633;88.1722;-64.2642;0.0;1017.89;64.22449;;;;;;0 / 0;85.8;45.0;3.667;1626;2014-11-17 16:57:03:075
0.21069;-7.881712;-1.991976;-0.319565;-9.4849;2.470811;0.530255;1.60319;-4.462786;1.596496;-0.576046;0.76236;271.0;34.8;53.34;18.66;12.633;88.1722;-64.2642;0.0;1017.89;64.22449;;;;;;0 / 0;85.8;45.0;3.667;1685;2014-11-17 16:57:03:134
0.21069;-7.881712;-1.991976;-0.319565;-9.4849;2.470811;0.530255;1.60319;-4.462786;1.391551;-0.939511;0.811229;271.0;41.94;52.86;5.7;297.6097;75.2826;7.3695;0.0;1017.89;64.22449;;;;;;0 / 0;85.8;45.0;3.667;1735;2014-11-17 16:57:03:184
1.283292;-7.31668;-1.149217;-0.49202;-9.267206;3.16973;1.775312;1.950527;-4.318947;0.390954;-0.333838;0.546114;260.0;44.76;51.48;0.24;282.8689;70.9076;8.8233;0.0;1017.91;64.22449;;;;;;0 / 0;85.8;45.0;3.667;1800;2014-11-17 16:57:03:249
0.92895;-5.899313;0.68953;-0.647459;-9.166648;3.423994;1.57641;3.267336;-2.734464;-0.175318;-0.011606;0.263588;258.0;46.92;49.86;-4.08;282.8689;70.9076;8.8233;0.0;1017.91;64.22449;;;;;;0 / 0;85.8;45.0;3.667;1850;2014-11-17 16:57:03:299
-0.814029;-8.03494;3.332729;-0.698212;-9.236704;3.219657;-0.115817;1.201764;0.113072;-0.990518;-0.044899;-0.002138;248.0;49.62;47.76;-7.92;273.3017;69.1859;10.7079;0.0;1017.91;64.22449;;;;;;0 / 0;85.8;45.0;3.667;1911;2014-11-17 16:57:03:360
-3.045424;-11.63582;6.359;-0.670765;-9.35184;2.874637;-2.37466;-2.28398;3.484363;-0.24343;-0.602619;0.086132;249.0;50.52;47.52;-8.46;265.1825;72.482;13.1343;0.0;1017.83;64.22449;;;;;;0 / 0;85.8;45.0;3.667;1962;2014-11-17 16:57:03:411
-0.373495;-10.10353;5.372589;-0.554884;-9.365556;2.854619;0.181389;-0.737974;2.51797;-0.109345;-0.813367;0.053756;247.0;52.02;47.52;-10.68;263.526;72.7502;11.0;0.0;1017.83;56.66901;;;;;;0 / 0;85.8;45.0;3.667;2021;2014-11-17 16:57:03:470
5.19063;-12.430696;-2.873042;-0.238264;-9.441918;2.638898;5.428894;-2.988777;-5.51194;-2.027767;0.135307;-0.37049;233.0;52.38;46.98;-13.26;263.526;72.7502;11.0;0.0;1017.83;56.66901;;;;;;0 / 0;85.8;45.0;3.667;2082;2014-11-17 16:57:03:531
-3.39019;-8.312668;-5.525817;0.054125;-9.620078;1.903027;-3.444315;1.307411;-7.428845;-1.043969;0.372322;0.600175;227.0;51.78;45.24;-17.88;261.6213;74.3246;5.1592;0.0;1017.79;56.66901;;;;;;0 / 0;85.8;45.0;3.667;2146;2014-11-17 16:57:03:595
4.817134;-7.28795;-4.31914;-0.01373;-9.72973;1.225781;4.830865;2.44178;-5.544921;-1.499369;0.326507;-0.298408;219.0;51.54;44.52;-18.54;255.0753;82.8191;0.6418;0.0;1017.79;56.66901;;;;;;0 / 0;85.8;45.0;3.667;2208;2014-11-17 16:57:03:657
0.632069;-9.165004;-1.503559;0.357447;-9.792112;-0.396419;0.274622;0.627109;-1.107139;-1.14018;-0.093157;-0.073915;213.0;51.12;45.06;-16.56;289.1638;87.7855;-36.8755;0.0;1017.86;56.66901;;;;;;0 / 0;85.8;45.0;3.667;2297;2014-11-17 16:57:03:746
-0.68953;-9.548076;-0.220267;0.442979;-9.73953;-1.056267;-1.132509;0.191453;0.836;-1.197601;0.244652;-0.125838;213.0;51.0;46.32;-14.46;31.2395;86.8798;-137.9594;0.0;1017.86;56.66901;;;;;;0 / 0;85.8;45.0;3.667;2347;2014-11-17 16:57:03:796
-0.68953;-9.548076;-0.220267;0.442979;-9.73953;-1.056267;-1.132509;0.191453;0.836;-1.063516;0.894307;-0.01069;213.0;50.82;47.1;-12.54;31.2395;86.8798;-137.9594;0.0;1017.86;64.65171;;;;;;0 / 0;85.8;45.0;3.667;2397;2014-11-17 16:57:03:846
-1.695095;-9.20331;-2.126051;0.542995;-9.662134;-1.587036;-2.238089;0.458824;-0.539015;-0.882089;0.319483;-0.175318;218.0;52.02;48.36;-7.98;51.4838;83.2926;-157.2477;0.0;1017.86;64.65171;;;;;;0 / 0;85.8;45.0;3.667;2464;2014-11-17 16:57:03:913
-0.047884;-9.969456;-0.92895;0.702176;-9.567756;-2.033564;-0.75006;-0.401699;1.104614;-0.57177;-0.177762;-0.133169;222.0;52.5;48.48;-5.7;55.6172;77.3274;-160.9505;0.0;1017.86;64.65171;;;;;;0 / 0;85.8;45.0;3.667;2518;2014-11-17 16:57:03:967
2.173935;-9.20331;-1.752556;0.793524;-9.487316;-2.351917;1.380412;0.284006;0.599362;-0.746172;0.575741;-0.200058;216.0;52.2;48.42;-4.44;56.3897;75.3383;-161.3559;0.0;1017.86;64.65171;;;;;;0 / 0;85.8;45.0;3.667;2583;2014-11-17 16:57:04:032
-2.48997;-8.7532;-1.944092;0.941229;-9.373076;-2.725783;-3.431198;0.619876;0.781691;-0.504269;0.604757;0.040928;218.0;52.44;48.12;-4.32;56.3897;75.3383;-161.3559;0.0;1017.86;64.65171;;;;;;0 / 0;85.8;45.0;3.667;2634;2014-11-17 16:57:04:083
0.497994;-9.682152;-2.183512;1.099988;-9.273322;-2.994316;-0.601994;-0.408829;0.810804;-0.313374;0.425468;0.086132;219.0;52.92;46.62;-3.0;54.6415;72.899;-160.9499;0.0;1017.87;64.65171;;;;;;0 / 0;85.8;45.0;3.667;2685;2014-11-17 16:57:04:134
-1.436521;-12.938266;-1.120486;1.118172;-9.247916;-3.065308;-2.554693;-3.690349;1.944822;-0.409585;0.99907;0.044288;222.0;53.46;45.18;-2.88;54.5186;70.5659;-159.9589;0.0;1017.87;58.57981;;;;;;0 / 0;85.8;45.0;3.667;2739;2014-11-17 16:57:04:188
-1.953669;-11.645396;2.097321;1.149062;-9.308032;-2.865413;-3.102731;-2.337364;4.962734;0.664011;0.775799;0.433103;222.0;53.7;43.08;-2.28;54.5186;70.5659;-159.9589;0.0;1017.87;58.57981;;;;;;0 / 0;85.8;45.0;3.667;2794;2014-11-17 16:57:04:243
5.238514;-10.984596;-1.398214;0.799227;-9.61595;-1.750751;4.439287;-1.368647;0.352538;2.365881;-0.476169;0.832915;227.0;53.64;35.46;-3.9;55.0005;71.6507;-158.1487;0.0;1017.94;58.57981;;;;;;0 / 0;85.8;45.0;3.667;2861;2014-11-17 16:57:04:310
3.323152;-13.656526;-3.016694;0.44589;-9.786648;-0.439415;2.877262;-3.869878;-2.577278;2.302351;0.58918;0.649961;233.0;52.92;29.58;-5.64;54.3276;78.6823;-155.4631;0.0;1017.94;58.57981;;;;;;0 / 0;85.8;45.0;3.667;2917;2014-11-17 16:57:04:366
-0.651223;-9.854534;-2.221819;0.085017;-9.76768;0.86926;-0.73624;-0.086854;-3.091079;2.024102;-0.209832;0.619417;244.0;49.02;16.26;-7.14;269.1156;84.8903;-5.586;0.0;1017.94;58.57981;;;;;;0 / 0;85.8;45.0;3.667;2983;2014-11-17 16:57:04:432
0.114922;-9.193734;-1.819593;-0.219821;-9.59787;2.000739;0.334742;0.404137;-3.820332;1.587639;-0.762665;0.748005;245.0;43.98;7.26;-3.66;260.6135;78.1561;6.2699;0.0;1017.92;58.57981;;;;;;0 / 0;85.8;45.0;3.667;3046;2014-11-17 16:57:04:495
0.335188;-6.991069;-1.005565;-0.481182;-9.368364;2.858774;0.816371;2.377297;-3.864339;1.138958;-0.680809;0.696692;234.0;40.98;4.62;-1.5;260.6135;78.1561;6.2699;0.0;1017.92;63.66316;;;;;;0 / 0;85.8;45.0;3.667;3119;2014-11-17 16:57:04:568
0.153229;-5.918466;0.632069;-0.850753;-9.185164;3.328566;1.003982;3.266698;-2.696497;0.141721;-0.153022;0.488387;241.0;36.06;2.04;1.68;262.1577;72.8056;9.5543;0.0;1017.87;63.66316;;;;;;0 / 0;85.8;45.0;3.667;3191;2014-11-17 16:57:04:640
-1.838747;-10.572794;7.345411;0.184701;-9.800154;-0.305399;-2.023448;-0.77264;7.65081;-1.125519;0.228464;-0.124922;241.0;32.64;0.6;3.96;261.8679;69.4925;14.3374;0.0;1017.87;63.66316;;;;;;0 / 0;85.8;45.0;3.667;3262;2014-11-17 16:57:04:711
-2.403778;-10.160992;4.395755;-0.118398;-9.801824;0.283994;-2.285381;-0.359168;4.11176;-0.353386;-0.52962;0.13439;238.0;29.76;0.24;6.6;68.0105;87.9144;-148.835;0.0;1017.87;63.66316;;;;;;0 / 0;85.8;45.0;3.667;3332;2014-11-17 16:57:04:781
-1.838747;-8.140285;3.533842;-0.274085;-9.781072;0.652639;-1.564662;1.640786;2.881202;-0.254425;-1.533272;-0.023213;238.0;28.08;-0.06;7.8;263.3173;88.2021;22.6313;0.0;1017.8;63.66316;;;;;;0 / 0;85.8;45.0;3.667;3397;2014-11-17 16:57:04:846
3.41892;-18.004396;4.730943;-0.110075;-9.799894;0.346846;3.528996;-8.204501;4.384097;-1.11941;-1.025643;-0.34972;213.0;24.54;0.54;10.08;274.2699;87.8734;17.6074;0.0;1017.8;63.66316;;;;;;0 / 0;85.8;45.0;3.667;3448;2014-11-17 16:57:04:897
-3.093309;-4.395754;-7.881712;-0.235791;-9.801926;0.192515;-2.857518;5.406172;-8.074227;-0.341168;-1.747991;0.245568;205.0;22.62;1.44;11.28;274.2699;87.8734;17.6074;0.0;1017.8;60.83396;;;;;;0 / 0;85.8;45.0;3.667;3510;2014-11-17 16:57:04:959
1.398214;-9.471462;-5.784391;-0.077231;-9.786738;-0.619805;1.475445;0.315277;-5.164586;-1.235169;0.220217;-0.381485;208.0;20.88;4.38;14.4;250.0149;88.2213;50.7695;0.0;1017.76;60.83396;;;;;;0 / 0;85.8;45.0;3.667;3582;2014-11-17 16:57:05:031
0.306458;-9.768342;-1.877054;0.010734;-9.779368;-0.730907;0.295723;0.011026;-1.146147;-0.939205;-0.214108;-0.21197;202.0;20.88;5.76;15.84;133.7488;86.3483;172.8972;0.0;1017.76;60.83396;;;;;;0 / 0;85.8;45.0;3.667;3636;2014-11-17 16:57:05:085
-0.067038;-9.32781;-1.321599;-0.008855;-9.772582;-0.816677;-0.058183;0.444772;-0.504922;-1.183551;-0.003971;-0.126144;202.0;20.7;7.44;18.12;130.1999;85.2228;179.3788;0.0;1017.76;60.83396;;;;;;0 / 0;85.8;45.0;3.667;3689;2014-11-17 16:57:05:138
-0.21069;-9.758766;-0.325611;-0.024388;-9.773314;-0.807539;-0.186301;0.014548;0.481927;-1.117578;0.991129;-0.031765;205.0;20.76;7.8;18.84;130.1999;85.2228;179.3788;0.0;1017.83;60.83396;;;;;;0 / 0;85.8;45.0;3.667;3758;2014-11-17 16:57:05:207
-1.886631;-9.528922;-1.561019;-0.183607;-9.767242;-0.858864;-1.703023;0.23832;-0.702155;-0.80848;0.238543;-0.249844;208.0;19.98;8.46;21.42;135.6983;85.2744;178.2701;0.0;1017.83;60.83396;;;;;;0 / 0;85.8;45.0;3.667;3825;2014-11-17 16:57:05:274
1.187524;-9.069236;-1.771709;-0.058427;-9.75929;-0.960851;1.245951;0.690055;-0.810858;-0.922101;-0.064141;-0.184787;211.0;19.38;8.94;22.62;142.7578;84.3668;176.5203;0.0;1017.83;60.14632;;;;;;0 / 0;85.8;45.0;3.667;3881;2014-11-17 16:57:05:330
-0.162806;-9.816226;-0.296881;-0.023826;-9.75752;-0.980118;-0.13898;-0.058707;0.683237;-1.252885;0.405615;-0.389121;208.0;18.6;9.42;24.0;142.7578;84.3668;176.5203;0.0;1017.76;60.14632;;;;;;0 / 0;85.8;45.0;3.667;3942;2014-11-17 16:57:05:391
-2.193089;-9.366116;-2.75812;-0.248833;-9.741302;-1.10249;-1.944256;0.375186;-1.65563;-0.778242;0.075747;-0.144775;208.0;16.68;10.56;27.42;144.4188;84.2624;178.6075;0.0;1017.76;60.14632;;;;;;0 / 0;85.8;45.0;3.667;4012;2014-11-17 16:57:05:461
2.72939;-10.141838;-1.292869;-0.030885;-9.744586;-1.101128;2.760275;-0.397251;-0.191741;-0.362243;1.054964;0.235794;204.0;16.32;10.68;28.8;151.5481;83.5504;178.3934;0.0;1017.76;60.14632;;;;;;0 / 0;85.8;45.0;3.667;4068;2014-11-17 16:57:05:517
-2.135628;-13.857638;-0.536301;-0.193555;-9.75618;-0.974626;-1.942073;-4.101459;0.438325;0.577879;1.398576;0.461509;208.0;14.52;12.18;32.52;166.264;84.1845;168.7676;0.0;1017.85;60.14632;;;;;;0 / 0;85.8;45.0;3.667;4134;2014-11-17 16:57:05:583
-2.202665;-12.181698;2.681506;-0.466329;-9.786048;-0.431518;-1.736336;-2.39565;3.113024;1.949882;0.500604;0.981355;219.0;13.38;13.74;34.44;166.264;84.1845;168.7676;0.0;1017.85;60.14632;;;;;;0 / 0;85.8;45.0;3.667;4186;2014-11-17 16:57:05:635
6.722919;-11.587936;-3.150769;0.162032;-9.79707;-0.401973;6.560887;-1.790867;-2.748796;2.667649;-0.435241;0.83994;219.0;12.6;16.68;36.12;208.1947;86.2853;132.7796;0.0;1017.85;64.17716;;;;;;0 / 0;85.8;45.0;3.667;4236;2014-11-17 16:57:05:685
2.030283;-11.990162;-2.796427;0.378468;-9.780372;-0.609482;1.651815;-2.20979;-2.186946;2.195144;1.239751;0.630718;233.0;14.28;25.56;36.06;124.5089;85.8046;-148.1611;0.0;1017.91;64.17716;;;;;;0 / 0;85.8;45.0;3.667;4300;2014-11-17 16:57:05:749
-1.522712;-9.14585;-2.72939;0.180497;-9.772628;-0.795933;-1.703209;0.626779;-1.933457;1.845424;0.018937;0.635911;238.0;18.42;34.98;30.54;133.6026;85.2262;-167.2229;0.0;1017.91;64.17716;;;;;;0 / 0;85.8;45.0;3.667;4369;2014-11-17 16:57:05:818
-0.756568;-7.843405;-2.595315;0.063727;-9.751712;-1.034623;-0.820294;1.908307;-1.560691;1.483181;-0.7028;0.749532;247.0;20.16;37.98;26.64;133.6026;85.2262;-167.2229;0.0;1017.91;64.17716;;;;;;0 / 0;85.8;45.0;3.667;4432;2014-11-17 16:57:05:881
-0.316035;-6.550535;-1.436521;-0.009978;-9.732194;-1.206106;-0.306057;3.181659;-0.230415;0.379958;-1.101695;0.640492;241.0;22.98;40.32;21.54;123.6823;83.9324;-176.4754;0.0;1017.91;64.17716;;;;;;0 / 0;85.8;45.0;3.667;4484;2014-11-17 16:57:05:933
-0.057461;-6.770802;0.651223;0.005754;-9.732556;-1.203219;-0.063215;2.961754;1.854442;-0.116675;-0.54367;0.66004;235.0;28.14;42.18;13.8;107.0507;82.9523;-179.726;0.0;1017.91;64.17716;;;;;;0 / 0;85.8;45.0;3.667;4537;2014-11-17 16:57:05:986
0.201113;-7.967903;1.819593;0.041401;-9.753856;-1.015366;0.159712;1.785953;2.834959;-0.933402;-0.285579;0.501826;231.0;30.48;42.48;11.64;107.0507;82.9523;-179.726;0.0;1017.91;59.25019;;;;;;0 / 0;85.8;45.0;3.667;4589;2014-11-17 16:57:06:038
-1.637634;-10.869676;6.904878;-0.100256;-9.804582;-0.17463;-1.537378;-1.065093;7.079508;-0.580933;-0.2755;0.290772;227.0;33.96;42.66;10.92;99.2545;84.0521;-177.6651;0.0;1017.71;59.25019;;;;;;0 / 0;85.8;45.0;3.667;4663;2014-11-17 16:57:06:112
-0.871489;-10.544064;5.056554;-0.182587;-9.796536;0.40609;-0.688902;-0.747528;4.650464;0.029932;-0.884227;0.199753;219.0;36.42;43.2;10.08;264.3037;87.3976;24.2097;0.0;1017.71;59.25019;;;;;;0 / 0;85.8;45.0;3.667;4744;2014-11-17 16:57:06:193
-2.087744;-8.044517;2.557007;-0.343361;-9.777276;0.676299;-1.744383;1.732759;1.880708;-0.163101;-1.284955;-0.012828;213.0;39.06;44.16;6.48;256.6957;85.5642;26.9172;0.0;1017.71;59.25019;;;;;;0 / 0;85.8;45.0;3.667;4807;2014-11-17 16:57:06:256
2.643199;-18.770542;6.071696;-0.147677;-9.794858;0.457563;2.790876;-8.975684;5.614133;0.477697;-1.205543;-0.337198;197.0;39.48;44.46;4.38;256.6957;85.5642;26.9172;0.0;1017.71;59.25019;;;;;;0 / 0;85.8;45.0;3.667;4857;2014-11-17 16:57:06:306
-2.087744;-2.949656;-10.649408;-0.251358;-9.803386;0.028744;-1.836386;6.853729;-10.678152;-1.166142;1.369865;0.894001;189.0;39.66;44.46;-0.12;189.6681;88.5217;83.4764;0.0;1017.71;59.25019;;;;;;0 / 0;85.8;45.0;3.667;4916;2014-11-17 16:57:06:365
-1.312023;-8.657434;-1.474828;-0.225961;-9.796396;-0.387253;-1.086062;1.138963;-1.087575;-0.810007;0.217773;-0.114232;187.0;40.14;44.04;-0.66;100.4003;88.0879;166.0927;0.0;1017.89;62.81754;;;;;;0 / 0;85.8;45.0;3.667;4992;2014-11-17 16:57:06:441
0.124498;-9.672574;-0.871489;-0.171284;-9.794132;-0.464833;0.295783;0.121557;-0.406657;-0.935846;-0.01069;-0.013134;186.0;41.16;43.68;0.9;119.1786;87.3795;149.7366;0.0;1017.89;62.81754;;;;;;0 / 0;85.8;45.0;3.667;5050;2014-11-17 16:57:06:499
0.124498;-9.672574;-0.871489;-0.171284;-9.794132;-0.464833;0.295783;0.121557;-0.406657;-0.999375;0.328035;-0.085521;186.0;41.4;43.92;2.1;119.1786;87.3795;149.7366;0.0;1017.89;62.81754;;;;;;0 / 0;85.8;45.0;3.667;5100;2014-11-17 16:57:06:549
-0.71826;-9.825804;-1.120486;-0.225477;-9.788038;-0.56024;-0.492783;-0.037765;-0.560246;-1.07665;0.724486;0.034514;186.0;41.4;44.52;5.1;113.9529;86.4694;158.0769;0.0;1017.89;62.81754;;;;;;0 / 0;85.8;45.0;3.667;5155;2014-11-17 16:57:06:604
-0.737414;-9.23204;-0.92895;-0.259602;-9.783138;-0.627054;-0.477812;0.551098;-0.301896;-1.126741;0.889114;-0.243735;191.0;41.28;44.76;7.02;118.3353;86.0317;157.5103;0.0;1017.78;62.81754;;;;;;0 / 0;85.8;45.0;3.667;5221;2014-11-17 16:57:06:670
0.143652;-9.069236;-1.043872;-0.199813;-9.780262;-0.690593;0.343465;0.711027;-0.353279;-1.056186;0.886671;-0.173486;200.0;41.46;45.42;12.6;119.8403;85.7959;163.863;0.0;1017.78;62.81754;;;;;;0 / 0;85.8;45.0;3.667;5271;2014-11-17 16:57:06:720
-0.603339;-9.433154;-1.11091;-0.22483;-9.77541;-0.749148;-0.378509;0.342255;-0.361761;-1.047023;0.55039;-0.307265;198.0;41.34;45.6;15.18;119.8403;85.7959;163.863;0.0;1017.78;62.81754;;;;;;0 / 0;85.8;45.0;3.667;5342;2014-11-17 16:57:06:791
-1.206678;-9.950302;-1.991976;-0.318668;-9.759924;-0.901514;-0.88801;-0.190378;-1.090461;-0.974635;0.407447;-0.085216;198.0;40.8;45.84;19.08;128.5294;84.4046;160.5325;0.0;1017.81;60.20688;;;;;;0 / 0;85.8;45.0;3.667;5401;2014-11-17 16:57:06:850
-1.599327;-13.120224;-2.576161;-0.371153;-9.742816;-1.053662;-1.228174;-3.377409;-1.522499;-0.491441;1.137737;0.059865;198.0;40.74;45.36;20.82;129.2686;84.3052;163.3971;0.0;1017.81;60.20688;;;;;;0 / 0;85.8;45.0;3.667;5469;2014-11-17 16:57:06:918
-1.599327;-13.120224;-2.576161;-0.371153;-9.742816;-1.053662;-1.228174;-3.377409;-1.522499;-0.44807;1.083064;-0.078191;198.0;40.74;44.1;23.94;135.2907;83.459;160.5952;0.0;1017.81;60.20688;;;;;;0 / 0;85.8;45.0;3.667;5523;2014-11-17 16:57:06:972
-3.409343;-12.794614;1.015142;-0.700887;-9.754246;-0.730665;-2.708456;-3.040368;1.745807;1.571756;0.217163;0.865596;200.0;41.28;42.9;25.2;135.2907;83.459;160.5952;0.0;1017.88;60.20688;;;;;;0 / 0;85.8;45.0;3.667;5580;2014-11-17 16:57:07:029
6.83784;-11.66455;0.526724;-0.094307;-9.801276;-0.31059;6.932148;-1.863275;0.837315;2.576019;-0.258091;0.875981;202.0;42.0;41.52;24.9;136.5156;88.1031;163.1097;0.0;1017.88;60.20688;;;;;;0 / 0;85.8;45.0;3.667;5632;2014-11-17 16:57:07:081
4.807557;-12.871228;-3.399766;0.377227;-9.788938;-0.452485;4.430331;-3.082289;-2.947282;2.535091;1.454165;0.661873;219.0;43.74;37.8;21.24;73.1527;86.556;-140.1827;0.0;1017.88;60.20688;;;;;;0 / 0;85.8;45.0;3.667;5685;2014-11-17 16:57:07:134
0.153229;-11.444284;-2.087744;0.36452;-9.784978;-0.540124;-0.211292;-1.659306;-1.54762;2.554639;0.70219;0.613309;233.0;44.28;36.3;19.32;73.1527;86.556;-140.1827;0.0;1017.88;64.39646;;;;;;0 / 0;85.8;45.0;3.667;5741;2014-11-17 16:57:07:190
0.258574;-8.63828;-1.886631;0.341174;-9.77659;-0.687186;-0.082601;1.138311;-1.199445;2.295326;0.105069;0.616974;249.0;43.92;34.14;17.34;75.5441;86.19;-145.9853;0.0;1017.88;64.39646;;;;;;0 / 0;85.8;45.0;3.667;5794;2014-11-17 16:57:07:243
0.220267;-7.833828;-2.03986;0.345666;-9.759186;-0.899537;-0.125399;1.925359;-1.140323;1.579392;-0.584903;0.498771;249.0;43.62;33.6;15.66;84.8919;84.3607;-158.9797;0.0;1017.88;64.39646;;;;;;0 / 0;85.8;45.0;3.667;5850;2014-11-17 16:57:07:299
-0.21069;-5.947197;-0.823605;0.274916;-9.750556;-1.010683;-0.485605;3.803359;0.187077;1.012204;-0.287107;0.623999;244.0;42.9;33.0;12.36;85.8574;83.8688;-164.7831;0.0;1017.88;64.39646;;;;;;0 / 0;85.8;45.0;3.667;5918;2014-11-17 16:57:07:367
-0.622492;-5.6982;0.852336;0.007833;-9.766316;-0.888469;-0.630325;4.068116;1.740805;-0.517708;0.352775;0.309403;251.0;42.66;32.4;11.22;85.8574;83.8688;-164.7831;0.0;1017.88;64.39646;;;;;;0 / 0;85.8;45.0;3.667;5993;2014-11-17 16:57:07:442
-0.842759;-7.967903;2.987964;0.163377;-9.77465;-0.774548;-1.006136;1.806747;3.762512;-1.195769;-0.102625;-0.069333;249.0;42.66;32.1;12.6;101.3771;84.8017;-179.4949;0.0;1017.88;64.39646;;;;;;0 / 0;85.8;45.0;3.667;6045;2014-11-17 16:57:07:494
-1.896208;-12.488156;8.983046;-0.03293;-9.802108;0.2966;-1.863277;-2.686047;8.686444;-0.319177;-0.807258;0.09499;253.0;42.6;31.74;14.1;282.8964;88.2562;6.3354;0.0;1017.86;56.77494;;;;;;0 / 0;85.8;45.0;3.667;6104;2014-11-17 16:57:07:553
-1.551443;-8.868122;5.171476;-0.201526;-9.765414;0.875483;-1.349917;0.897291;4.295994;-0.239154;-0.713491;0.1799;247.0;42.66;32.04;15.48;284.078;88.2562;6.3354;0.0;1017.86;56.77494;;;;;;0 / 0;85.8;45.0;3.667;6196;2014-11-17 16:57:07:645
-0.02873;-9.586384;-3.466804;0.024127;-9.79326;-0.511733;-0.052858;0.206876;-2.955071;-1.143845;0.304822;-0.60384;226.0;42.3;32.64;16.26;284.078;88.2562;6.3354;0.0;1017.88;56.77494;;;;;;0 / 0;85.8;45.0;3.667;6254;2014-11-17 16:57:07:703
-0.02873;-9.586384;-3.466804;0.024127;-9.79326;-0.511733;-0.052858;0.206876;-2.955071;-0.040317;-2.737593;-0.322537;226.0;41.16;34.56;15.6;106.0188;87.0055;-177.3006;0.0;1017.88;56.77494;;;;;;0 / 0;85.8;45.0;3.667;6305;2014-11-17 16:57:07:754
4.510676;-6.86657;-1.561019;0.347057;-9.761694;-0.871355;4.163619;2.895125;-0.689664;-1.381166;0.170737;-0.418137;215.0;40.74;35.58;16.56;86.3595;84.5117;-158.2828;0.0;1017.88;56.77494;;;;;;0 / 0;85.8;45.0;3.667;6360;2014-11-17 16:57:07:809
-1.206678;-10.247182;-0.268151;0.31879;-9.775342;-0.715165;-1.525468;-0.471841;0.447014;-0.683558;-0.30696;0.026573;218.0;40.2;36.66;18.18;86.3595;84.5117;-158.2828;0.0;1017.88;56.77494;;;;;;0 / 0;85.8;45.0;3.667;6410;2014-11-17 16:57:07:859
2.336741;-9.107542;-1.551443;0.460611;-9.761156;-0.823453;1.87613;0.653613;-0.72799;-0.840856;-0.233656;0.005803;208.0;39.6;37.44;21.96;88.7449;85.4205;-155.9747;0.0;1017.94;62.10288;;;;;;0 / 0;85.8;45.0;3.667;6471;2014-11-17 16:57:07:920
-0.440533;-10.151414;-0.584185;0.405154;-9.761712;-0.845696;-0.845687;-0.389702;0.261511;-1.180802;0.978301;-0.104458;205.0;38.7;37.74;23.46;90.3059;84.5128;-154.4019;0.0;1017.94;62.10288;;;;;;0 / 0;85.8;45.0;3.667;6530;2014-11-17 16:57:07:979
-1.426944;-9.433154;-0.651223;0.210184;-9.77005;-0.819981;-1.637128;0.336895;0.168758;-0.895834;0.857349;-0.041539;208.0;37.98;37.68;27.72;108.1448;85.0482;-165.623;0.0;1017.94;62.10288;;;;;;0 / 0;85.8;45.0;3.667;6587;2014-11-17 16:57:08:036
-0.603339;-9.797072;-1.187524;0.140001;-9.770174;-0.833371;-0.743339;-0.026899;-0.354153;-0.432798;-0.235183;-0.150884;211.0;37.26;37.56;29.76;108.1448;85.0482;-165.623;0.0;1017.84;62.10288;;;;;;0 / 0;85.8;45.0;3.667;6640;2014-11-17 16:57:08:089
1.043872;-8.705316;-1.714248;0.224816;-9.76057;-0.922568;0.819056;1.055252;-0.79168;-0.541532;-0.323759;-0.116981;202.0;36.66;37.5;31.86;117.8272;85.0566;-170.4637;0.0;1017.84;62.10288;;;;;;0 / 0;85.8;45.0;3.667;6692;2014-11-17 16:57:08:141
-0.775721;-9.279924;-1.101333;0.129159;-9.755442;-0.992496;-0.90488;0.475517;-0.108837;-0.631329;0.072998;-0.137445;200.0;35.28;37.5;34.62;123.6955;84.1422;-172.5854;0.0;1017.84;62.10288;;;;;;0 / 0;85.8;45.0;3.667;6768;2014-11-17 16:57:08:217
1.254562;-8.580818;-1.953669;0.247309;-9.727094;-1.221813;1.007253;1.146276;-0.731855;-0.524122;0.478613;0.176845;194.0;34.44;37.26;37.8;126.0152;83.3739;-171.9186;0.0;1017.78;58.06235;;;;;;0 / 0;85.8;45.0;3.667;6851;2014-11-17 16:57:08:300
-0.976834;-11.03248;-1.302446;0.153846;-9.73148;-1.202081;-1.130681;-1.301001;-0.100365;-0.382707;0.931264;-0.02138;197.0;33.78;36.84;41.76;125.2477;82.697;-168.5573;0.0;1017.78;58.06235;;;;;;0 / 0;85.8;45.0;3.667;6921;2014-11-17 16:57:08:370
-4.232949;-13.139378;3.093309;-0.331368;-9.776458;-0.693884;-3.901581;-3.36292;3.787193;-0.041539;0.98502;0.17318;198.0;32.7;36.66;44.16;125.2477;82.697;-168.5573;0.0;1017.94;58.06235;;;;;;0 / 0;85.8;45.0;3.667;6977;2014-11-17 16:57:08:426
-4.232949;-13.139378;3.093309;-0.331368;-9.776458;-0.693884;-3.901581;-3.36292;3.787193;0.706771;0.304822;0.558636;198.0;30.78;37.08;48.06;170.7817;85.5028;154.473;0.0;1017.94;58.06235;;;;;;0 / 0;85.8;45.0;3.667;7029;2014-11-17 16:57:08:478
5.784392;-11.69328;-1.685518;0.199897;-9.795156;-0.430477;5.584495;-1.898124;-1.255041;2.636189;-0.10568;0.486554;201.0;30.06;38.34;48.12;121.467;87.2259;-155.0917;0.0;1017.94;58.06235;;;;;;0 / 0;85.8;45.0;3.667;7084;2014-11-17 16:57:08:533
4.481946;-12.248734;-4.539406;0.613628;-9.759068;-0.744636;3.868318;-2.489668;-3.79477;2.166434;1.336573;0.566578;224.0;30.54;40.74;46.56;121.467;87.2259;-155.0917;0.0;1017.94;58.06235;;;;;;0 / 0;85.8;45.0;3.667;7140;2014-11-17 16:57:08:589
-0.459687;-11.980584;-2.748543;0.482573;-9.75521;-0.879426;-0.94226;-2.225374;-1.869118;2.342363;0.29291;0.682947;241.0;31.2;47.7;41.04;100.7378;84.3534;-140.5093;0.0;1017.9;63.70403;;;;;;0 / 0;85.8;45.0;3.667;7205;2014-11-17 16:57:08:654
0.526724;-8.063671;-3.217807;0.487699;-9.726502;-1.152245;0.039026;1.662831;-2.065562;1.474018;-0.592234;0.458149;237.0;31.8;50.82;37.56;109.672;82.6698;-157.059;0.0;1017.9;63.70403;;;;;;0 / 0;85.8;45.0;3.667;7258;2014-11-17 16:57:08:707
0.814029;-7.613561;-1.369483;0.521527;-9.70382;-1.316902;0.292501;2.09026;-0.052581;0.736704;-1.003957;0.425468;231.0;33.66;55.44;28.92;98.5374;81.6955;-158.3951;0.0;1017.9;63.70403;;;;;;0 / 0;85.8;45.0;3.667;7324;2014-11-17 16:57:08:773
0.392649;-7.019799;0.335188;0.529071;-9.711306;-1.25738;-0.136422;2.691507;1.592569;-0.295659;-0.343612;0.03879;219.0;34.8;56.76;24.6;98.5374;81.6955;-158.3951;0.0;1017.9;63.70403;;;;;;0 / 0;85.8;45.0;3.667;7377;2014-11-17 16:57:08:826
-0.421379;-7.374141;1.359907;0.508462;-9.72455;-1.159711;-0.929841;2.35041;2.519618;-0.592234;-0.509767;0.035125;211.0;36.36;57.78;20.64;87.7012;82.0039;-157.18;0.0;1017.9;63.70403;;;;;;0 / 0;85.8;45.0;3.667;7431;2014-11-17 16:57:08:880
0.172383;-9.979032;3.639187;0.337575;-9.749404;-1.002774;-0.165192;-0.229629;4.641961;-0.166766;-0.823752;-0.003054;208.0;37.14;57.72;20.4;91.1755;83.8061;-161.3947;0.0;1017.9;63.70403;;;;;;0 / 0;85.8;45.0;3.667;7497;2014-11-17 16:57:08:946
1.848324;-10.208876;0.038307;0.332753;-9.740468;-1.087622;1.51557;-0.468408;1.125929;-0.65668;-0.082772;0.043371;189.0;38.22;57.42;21.3;93.089;83.3398;-162.9887;0.0;1017.8;63.70403;;;;;;0 / 0;85.8;45.0;3.667;7570;2014-11-17 16:57:09:019
0.363919;-9.260772;3.371036;0.215144;-9.737672;-1.140999;0.148775;0.4769;4.512036;-0.375682;-1.198517;-0.082772;186.0;38.64;57.12;21.66;93.089;83.3398;-162.9887;0.0;1017.8;59.0625;;;;;;0 / 0;85.8;45.0;3.667;7623;2014-11-17 16:57:09:072
-2.145205;-8.705316;1.704672;0.252001;-9.743476;-1.082386;-2.397206;1.038158;2.787058;-0.330173;0.004276;-0.14508;168.0;39.0;56.7;22.74;100.0867;83.2002;-169.3218;0.0;1017.78;59.0625;;;;;;0 / 0;85.8;45.0;3.667;7697;2014-11-17 16:57:09:146
-0.019154;-10.036492;1.628057;0.194833;-9.745398;-1.076861;-0.213987;-0.291094;2.704919;-0.284052;0.230296;0.135612;165.0;38.94;56.4;23.7;99.2178;83.493;-166.8938;0.0;1017.78;59.0625;;;;;;0 / 0;85.8;45.0;3.667;7755;2014-11-17 16:57:09:204
-0.019154;-10.036492;1.628057;0.194833;-9.745398;-1.076861;-0.213987;-0.291094;2.704919;-0.080329;-0.257174;0.08827;165.0;39.24;56.64;24.24;103.4605;83.5929;-169.7446;0.0;1017.78;59.0625;;;;;;0 / 0;85.8;45.0;3.667;7805;2014-11-17 16:57:09:254
1.312023;-9.739612;1.417368;0.164995;-9.760318;-0.937744;1.147028;0.020706;2.355111;-0.076664;0.061087;0.111483;160.0;39.18;56.7;24.66;103.4605;83.5929;-169.7446;0.0;1017.78;59.0625;;;;;;0 / 0;85.8;45.0;3.667;7857;2014-11-17 16:57:09:306
-0.248997;-9.672574;0.47884;0.115538;-9.765318;-0.891979;-0.364535;0.092743;1.37082;-0.207389;0.053145;0.062614;154.0;39.0;56.82;25.92;105.9862;84.4283;-170.021;0.0;1017.89;59.0625;;;;;;0 / 0;85.8;45.0;3.667;7909;2014-11-17 16:57:09:358
0.47884;-9.643844;1.053449;0.114774;-9.768546;-0.855992;0.364066;0.124702;1.909441;-0.039706;-0.043982;0.081856;153.0;38.58;56.94;26.22;110.1921;84.9476;-172.3631;0.0;1017.89;45.51898;;;;;;0 / 0;85.8;45.0;3.667;7980;2014-11-17 16:57:09:429
-0.057461;-9.615114;0.775721;0.072396;-9.782048;-0.690401;-0.129857;0.166935;1.466122;0.004276;0.072388;0.078802;158.0;38.94;57.12;26.52;112.7169;85.4971;-173.0905;0.0;1017.82;45.51898;;;;;;0 / 0;85.8;45.0;3.667;8054;2014-11-17 16:57:09:503
-0.057461;-9.615114;0.775721;0.072396;-9.782048;-0.690401;-0.129857;0.166935;1.466122;-0.041539;0.028405;0.085521;158.0;39.24;57.18;27.12;114.1957;85.9408;-174.0138;0.0;1017.82;45.51898;;;;;;0 / 0;85.8;45.0;3.667;8109;2014-11-17 16:57:09:558
0.584185;-9.662998;1.082179;0.061042;-9.787624;-0.607494;0.523143;0.124627;1.689673;-0.022907;-0.029627;0.06689;157.0;39.18;57.42;27.42;114.1957;85.9408;-174.0138;0.0;1017.82;45.51898;;;;;;0 / 0;85.8;45.0;3.667;8166;2014-11-17 16:57:09:615
0.507571;-9.902418;1.513135;0.061458;-9.789956;-0.568669;0.446113;-0.112462;2.081805;0.07758;0.071166;0.033292;155.0;39.12;57.54;27.6;115.8286;86.6563;-173.8318;0.0;1017.82;45.51898;;;;;;0 / 0;85.8;45.0;3.667;8219;2014-11-17 16:57:09:668