sep=;
ACCELEROMETER X (m/s²);ACCELEROMETER Y (m/s²);ACCELEROMETER Z (m/s²);GRAVITY X (m/s²);GRAVITY Y (m/s²);GRAVITY Z (m/s²);LINEAR ACCELERATION X (m/s²);LINEAR ACCELERATION Y (m/s²);LINEAR ACCELERATION Z (m/s²);GYROSCOPE X (rad/s);GYROSCOPE Y (rad/s);GYROSCOPE Z (rad/s);LIGHT (lux);MAGNETIC FIELD X (μT);MAGNETIC FIELD Y (μT);MAGNETIC FIELD Z (μT);ORIENTATION X (°);ORIENTATION Y (°);ORIENTATION Z (°);PROXIMITY (i);ATMOSPHERIC PRESSURE (hPa);SOUND LEVEL (dB);LOCATION Latitude : ;LOCATION Longitude : ;LOCATION Altitude ( m);LOCATION Speed ( Kmh);LOCATION Accuracy ( m);Satellites in range;Temperature (F);Level (%);Voltage (Volt);Time since start in ms ;YYYY-MO-DD HH-MI-SS_SSS
0.105345;-9.873688;2.030283;1.180432;-9.731044;0.289417;-1.075087;-0.142644;1.740866;-0.263588;0.149662;-0.116675;255.0;27.6;37.92;-7.44;328.8663;83.1898;-68.4429;0.0;1017.78;48.49346;;;;;;0 / 0;85.8;45.0;3.667;27;2014-11-17 16:56:34:549
-1.532289;-11.042058;4.472369;1.231172;-9.724478;0.298629;-2.763461;-1.31758;4.17374;0.482278;0.34911;0.361021;260.0;26.88;38.28;-5.88;337.5574;82.5775;-76.3658;0.0;1017.78;48.49346;;;;;;0 / 0;85.8;45.0;3.667;90;2014-11-17 16:56:34:612
0.785298;-11.147402;3.562572;1.080033;-9.723972;0.66953;-0.294734;-1.42343;2.893042;1.573894;0.279471;0.670425;269.0;26.7;38.1;-5.64;337.5574;82.5775;-76.3658;0.0;1017.78;48.49346;;;;;;0 / 0;85.8;45.0;3.667;151;2014-11-17 16:56:34:673
0.344765;-10.955866;1.810017;0.76453;-9.6556;1.534681;-0.419765;-1.300266;0.275336;1.139569;-0.265116;0.587347;269.0;26.88;36.24;-5.34;323.4631;82.5548;-58.2045;0.0;1017.86;48.49346;;;;;;0 / 0;85.8;45.0;3.667;220;2014-11-17 16:56:34:742
0.6608;-9.375694;-0.430956;0.513183;-9.557126;2.137369;0.147617;0.181433;-2.568325;0.939205;-0.417526;0.635605;269.0;27.96;34.74;-5.34;288.4588;77.0474;-13.5012;0.0;1017.86;48.49346;;;;;;0 / 0;85.8;45.0;3.667;272;2014-11-17 16:56:34:794
0.220267;-8.159439;1.187524;0.238128;-9.450388;2.608421;-0.017862;1.290949;-1.420897;0.587958;-0.162185;0.630718;269.0;28.62;33.66;-5.52;288.4588;77.0474;-13.5012;0.0;1017.86;56.27217;;;;;;0 / 0;85.8;45.0;3.667;322;2014-11-17 16:56:34:844
-0.430956;-8.082824;1.426944;-0.030558;-9.38772;2.83552;-0.400398;1.304895;-1.408575;0.272751;-0.368963;0.537561;269.0;29.58;33.06;-5.28;282.5987;74.5088;-5.2162;0.0;1017.86;56.27217;;;;;;0 / 0;85.8;45.0;3.667;385;2014-11-17 16:56:34:907
0.086191;-7.73806;3.064578;-0.244677;-9.375772;2.864506;0.330868;1.637713;0.200072;-0.284358;-0.238237;0.463952;269.0;29.7;33.0;-4.92;274.7924;72.9526;4.8822;0.0;1017.86;56.27217;;;;;;0 / 0;85.8;45.0;3.667;440;2014-11-17 16:56:34:962
-0.890643;-7.709329;3.064578;-0.386868;-9.4141;2.719458;-0.503775;1.70477;0.345121;-0.375682;-0.406225;0.14111;255.0;29.46;32.82;-4.02;273.0926;73.7339;8.0965;0.0;1017.86;56.27217;;;;;;0 / 0;85.8;45.0;3.667;507;2014-11-17 16:56:35:029
0.172383;-9.979032;5.056554;-0.360018;-9.456448;2.572232;0.5324;-0.522585;2.484322;-0.321315;-0.670119;-0.042455;255.0;29.34;32.88;-3.24;273.0926;73.7339;8.0965;0.0;1017.86;56.27217;;;;;;0 / 0;85.8;45.0;3.667;562;2014-11-17 16:56:35:084
-0.775721;-9.634268;3.86903;-0.154038;-9.48787;2.475272;-0.621683;-0.146398;1.393758;-0.136834;-1.224479;-0.058338;247.0;28.8;33.0;-2.64;277.3433;75.3511;3.561;0.0;1017.76;56.27217;;;;;;0 / 0;85.8;45.0;3.667;612;2014-11-17 16:56:35:134
3.466804;-9.423578;-4.520252;4.07E-4;-9.518382;2.360252;3.466397;0.094805;-6.880504;-0.654848;-0.617279;0.185092;229.0;27.6;33.96;-1.14;284.4536;76.0734;-0.0099;0.0;1017.76;56.27217;;;;;;0 / 0;85.8;45.0;3.667;671;2014-11-17 16:56:35:193
-2.221819;-10.43872;0.277727;0.108982;-9.612422;1.939039;-2.330801;-0.826298;-1.661311;-0.795652;-0.796568;0.351858;222.0;26.04;35.22;0.42;287.8539;78.5777;-3.2169;0.0;1017.83;58.00835;;;;;;0 / 0;85.8;45.0;3.667;747;2014-11-17 16:56:35:269
3.485958;-7.374141;-1.924938;0.092102;-9.69213;1.491475;3.393856;2.31799;-3.416413;-1.29534;0.509462;0.262977;219.0;25.92;36.06;1.92;287.8539;78.5777;-3.2169;0.0;1017.83;58.00835;;;;;;0 / 0;85.8;45.0;3.667;805;2014-11-17 16:56:35:327
1.283292;-10.716446;-0.823605;0.144633;-9.780708;0.698013;1.13866;-0.935739;-1.521619;-1.004568;-0.318872;-0.066584;219.0;25.56;37.32;4.2;293.646;85.8316;-11.7064;0.0;1017.83;58.00835;;;;;;0 / 0;85.8;45.0;3.667;862;2014-11-17 16:56:35:384
-0.363919;-9.030928;-2.451662;0.211386;-9.804162;0.064052;-0.575304;0.773233;-2.515715;-1.027781;0.163101;-0.049786;213.0;25.68;38.64;7.38;358.2672;88.7093;-73.1426;0.0;1017.82;58.00835;;;;;;0 / 0;85.8;45.0;3.667;935;2014-11-17 16:56:35:457
-0.172383;-10.352528;-1.522712;0.261693;-9.788234;-0.540733;-0.434076;-0.564295;-0.981979;-0.830166;0.684475;0.208916;211.0;25.74;39.6;11.64;84.0696;86.488;-154.1748;0.0;1017.82;58.00835;;;;;;0 / 0;85.8;45.0;3.667;993;2014-11-17 16:56:35:515
0.919373;-8.494628;-2.30801;0.240673;-9.746116;-1.060979;0.678701;1.251489;-1.247031;-1.062905;1.112691;0.105985;213.0;25.92;40.2;13.86;84.0696;86.488;-154.1748;0.0;1017.82;60.83603;;;;;;0 / 0;85.8;45.0;3.667;1045;2014-11-17 16:56:35:567
-1.647211;-9.65342;-1.982399;0.334698;-9.660592;-1.652678;-1.981908;0.007172;-0.329721;-0.960586;0.800539;-0.076053;213.0;25.86;40.26;16.08;96.936;80.0989;-168.5514;0.0;1017.82;60.83603;;;;;;0 / 0;85.8;45.0;3.667;1097;2014-11-17 16:56:35:619
0.354342;-9.097966;-2.030283;0.492629;-9.551176;-2.168584;-0.138287;0.45321;0.138301;-0.899805;0.474948;-0.080023;219.0;25.14;40.2;20.46;98.9371;76.8931;-167.2015;0.0;1017.74;60.83603;;;;;;0 / 0;85.8;45.0;3.667;1152;2014-11-17 16:56:35:674
0.057461;-9.490616;-2.173935;0.682571;-9.40259;-2.701076;-0.62511;-0.088025;0.527141;-1.124297;0.348804;-0.346361;219.0;24.48;39.96;22.74;98.9371;76.8931;-167.2015;0.0;1017.74;60.83603;;;;;;0 / 0;85.8;45.0;3.667;1207;2014-11-17 16:56:35:729
-1.905785;-9.682152;-2.269703;0.927783;-9.197018;-3.274818;-2.833567;-0.485133;1.005115;-0.967916;0.142026;-0.389427;222.0;22.62;40.2;27.6;101.9817;73.4955;-165.8181;0.0;1017.74;60.83603;;;;;;0 / 0;85.8;45.0;3.667;1271;2014-11-17 16:56:35:793
1.216255;-10.007762;-2.537854;1.02828;-9.035256;-3.67113;0.187975;-0.972506;1.133277;-0.609643;0.382096;0.045509;219.0;21.48;40.26;29.82;101.668;67.1227;-164.3525;0.0;1017.83;60.83603;;;;;;0 / 0;85.8;45.0;3.667;1326;2014-11-17 16:56:35:848
-3.007117;-12.631808;-0.124498;1.090111;-8.971148;-3.807962;-4.097228;-3.66066;3.683463;-0.481056;1.050688;0.096211;219.0;20.04;40.44;33.78;106.9476;66.1777;-164.0251;0.0;1017.83;60.83603;;;;;;0 / 0;85.8;45.0;3.667;1388;2014-11-17 16:56:35:910
-0.737414;-10.812214;0.699107;1.178445;-9.00909;-3.690252;-1.915859;-1.803124;4.389359;0.957226;0.351858;0.551001;222.0;19.86;41.16;35.34;106.9476;66.1777;-164.0251;0.0;1017.83;60.95371;;;;;;0 / 0;85.8;45.0;3.667;1452;2014-11-17 16:56:35:974
3.907337;-10.812214;-0.47884;0.920864;-9.34479;-2.827947;2.986473;-1.467424;2.349107;2.676506;-0.047647;0.74098;226.0;21.72;44.76;35.58;106.2878;66.7326;-162.2896;0.0;1017.87;60.95371;;;;;;0 / 0;85.8;45.0;3.667;1517;2014-11-17 16:56:36:039
3.026271;-13.034034;-3.89776;0.595793;-9.689904;-1.386049;2.430478;-3.344128;-2.511711;2.411085;0.760222;0.790765;235.0;26.94;50.34;29.1;110.85;81.1503;-156.7395;0.0;1017.87;60.95371;;;;;;0 / 0;85.8;45.0;3.667;1591;2014-11-17 16:56:36:113
0.363919;-11.60709;-2.681506;0.194366;-9.80472;0.007935;0.169553;-1.802369;-2.689441;2.436131;-0.280387;0.832609;238.0;31.86;53.34;20.28;40.6365;88.8634;-87.6622;0.0;1017.88;60.95371;;;;;;0 / 0;85.8;45.0;3.667;1658;2014-11-17 16:56:36:180
0.162806;-9.749188;-1.8579;-0.242089;-9.705996;1.380367;0.404895;-0.043194;-3.238268;2.116037;-0.702495;0.805426;238.0;35.94;53.94;13.74;291.8785;81.7839;9.9474;0.0;1017.88;60.95371;;;;;;0 / 0;85.8;45.0;3.667;1718;2014-11-17 16:56:36:240
0.794875;-7.5561;-1.493982;-0.552887;-9.459762;2.525392;1.347762;1.903661;-4.019374;1.331686;-0.816116;0.786489;244.0;39.48;53.28;6.84;291.8785;81.7839;9.9474;0.0;1017.88;60.95371;;;;;;0 / 0;85.8;45.0;3.667;1768;2014-11-17 16:56:36:290
0.6608;-6.17704;-0.823605;-0.795649;-9.203854;3.290352;1.456449;3.026813;-4.113957;0.648128;-0.37782;0.641103;244.0;44.94;49.5;-4.5;277.0081;74.7152;12.349;0.0;1017.88;62.46372;;;;;;0 / 0;85.8;45.0;3.667;1822;2014-11-17 16:56:36:344
0.191536;-5.832275;0.555455;-0.986074;-9.126828;3.449504;1.17761;3.294554;-2.894049;-0.253204;0.051007;0.231213;241.0;46.74;47.4;-8.46;267.3543;68.5407;15.9531;0.0;1017.88;62.46372;;;;;;0 / 0;85.8;45.0;3.667;1872;2014-11-17 16:56:36:394
0.248997;-8.322244;4.759673;0.460785;-9.777604;-0.597083;-0.211788;1.45536;5.356756;-1.130711;0.291688;-0.080329;241.0;48.12;46.02;-10.56;267.3543;68.5407;15.9531;0.0;1017.88;62.46372;;;;;;0 / 0;85.8;45.0;3.667;1929;2014-11-17 16:56:36:451
-3.907337;-11.262324;5.918467;-0.002687;-9.805292;0.163141;-3.90465;-1.457031;5.755326;-0.302073;-0.229991;0.079107;235.0;50.16;45.54;-11.4;37.3711;85.5892;-142.3417;0.0;1017.88;62.46372;;;;;;0 / 0;85.8;45.0;3.667;1995;2014-11-17 16:56:36:517
-1.810016;-8.954314;5.631162;-0.210642;-9.775454;0.75267;-1.599375;0.82114;4.878493;-0.089492;-0.680809;0.240375;227.0;51.78;45.18;-12.84;256.6322;89.0467;0.9435;0.0;1017.75;62.46372;;;;;;0 / 0;85.8;45.0;3.667;2070;2014-11-17 16:56:36:592
4.213795;-18.799273;9.634268;-0.199721;-9.786592;0.594224;4.413517;-9.012678;9.040044;-1.492038;-0.487165;-0.544586;213.0;52.02;43.32;-16.98;237.9116;86.3349;18.5777;0.0;1017.75;62.46372;;;;;;0 / 0;85.8;45.0;3.667;2132;2014-11-17 16:56:36:654
-1.158794;-2.624045;-10.860098;0.157767;-9.798504;0.36712;-1.31656;7.174459;-11.227218;-1.751961;1.886046;0.476475;208.0;51.06;42.12;-19.02;274.6161;87.6648;-23.2552;0.0;1017.72;62.89249;;;;;;0 / 0;85.8;45.0;3.667;2187;2014-11-17 16:56:36:709
-0.708684;-11.951854;-2.537854;0.059191;-9.805574;-0.132468;-0.767874;-2.146279;-2.405385;-1.182635;-0.147524;-0.410807;206.0;49.44;41.52;-19.2;44.2598;89.1526;-155.9235;0.0;1017.72;62.89249;;;;;;0 / 0;85.8;45.0;3.667;2262;2014-11-17 16:56:36:784
0.507571;-8.360553;-3.39019;0.111627;-9.79844;-0.385395;0.395943;1.437887;-3.004795;-1.035722;-0.086743;-0.045509;205.0;49.2;41.82;-18.3;44.2598;89.1526;-155.9235;0.0;1017.72;62.89249;;;;;;0 / 0;85.8;45.0;3.667;2319;2014-11-17 16:56:36:841
-0.708684;-10.381258;-0.153229;0.015656;-9.797804;-0.416108;-0.72434;-0.583454;0.262879;-0.949285;0.665232;-0.039401;208.0;49.56;43.2;-15.18;68.3081;87.5664;-177.8453;0.0;1017.8;62.89249;;;;;;0 / 0;85.8;45.0;3.667;2374;2014-11-17 16:56:36:896
-0.47884;-9.452308;-0.679953;-0.047261;-9.798432;-0.398618;-0.43158;0.346125;-0.281335;-0.778853;0.967;0.140499;205.0;49.86;43.56;-13.74;79.1741;87.6541;173.2385;0.0;1017.8;62.89249;;;;;;0 / 0;85.8;45.0;3.667;2429;2014-11-17 16:56:36:951
-0.92895;-9.481038;-1.82917;-0.117467;-9.790424;-0.551508;-0.811483;0.309386;-1.277662;-0.802677;0.644157;-0.154854;213.0;50.64;43.86;-11.4;79.1741;87.6541;173.2385;0.0;1017.8;62.89249;;;;;;0 / 0;85.8;45.0;3.667;2492;2014-11-17 16:56:37:014
0.191536;-8.93516;-1.474828;-0.073457;-9.783892;-0.663662;0.264993;0.848732;-0.811166;-1.042441;0.24679;-0.186008;213.0;51.24;44.34;-7.98;88.1398;86.7037;167.9761;0.0;1017.8;59.71431;;;;;;0 / 0;85.8;45.0;3.667;2547;2014-11-17 16:56:37:069
0.105345;-9.289502;-1.005565;-0.043021;-9.777884;-0.749325;0.148366;0.488383;-0.256239;-1.155146;0.485027;-0.404393;213.0;51.78;44.28;-4.68;83.0521;85.6105;176.7141;0.0;1017.8;59.71431;;;;;;0 / 0;85.8;45.0;3.667;2620;2014-11-17 16:56:37:142
-1.991976;-10.151414;-2.030283;-0.212159;-9.763484;-0.894293;-1.779817;-0.387931;-1.13599;-0.786489;0.172569;-0.169821;216.0;51.84;44.28;-3.42;95.4799;84.6221;166.6541;0.0;1017.8;59.71431;;;;;;0 / 0;85.8;45.0;3.667;2682;2014-11-17 16:56:37:204
1.857901;-10.582372;-1.80044;-0.060449;-9.76112;-0.941951;1.918349;-0.821251;-0.858488;-0.543059;0.518014;0.073609;209.0;51.42;44.04;-2.04;86.6679;84.4767;176.3282;0.0;1017.82;59.71431;;;;;;0 / 0;85.8;45.0;3.667;2732;2014-11-17 16:56:37:254
-0.871489;-12.32535;-1.283292;-0.127278;-9.762234;-0.923581;-0.744211;-2.563117;-0.359711;-0.418137;1.569313;0.003971;216.0;50.82;42.48;-1.02;86.6679;84.4767;176.3282;0.0;1017.82;59.71431;;;;;;0 / 0;85.8;45.0;3.667;2787;2014-11-17 16:56:37:309
-5.334281;-11.69328;1.254562;-0.646804;-9.76562;-0.620259;-4.687477;-1.927661;1.874821;1.010371;0.694248;0.632551;219.0;50.76;38.82;-0.9;131.8926;84.7569;133.7998;0.0;1017.82;59.71431;;;;;;0 / 0;85.8;45.0;3.667;2862;2014-11-17 16:56:37:384
3.888184;-13.244724;-3.639186;0.220966;-9.786474;-0.588622;3.667218;-3.458249;-3.050564;2.620612;-0.509767;0.845743;219.0;50.94;32.64;-1.62;112.3356;87.6375;153.9879;0.0;1017.82;65.002;;;;;;0 / 0;85.8;45.0;3.667;2928;2014-11-17 16:56:37:450
3.888184;-13.244724;-3.639186;0.220966;-9.786474;-0.588622;3.667218;-3.458249;-3.050564;2.364659;0.883922;0.821614;238.0;49.44;27.18;-3.06;112.3356;87.6375;153.9879;0.0;1017.82;65.002;;;;;;0 / 0;85.8;45.0;3.667;2978;2014-11-17 16:56:37:500
-0.526724;-11.626244;-2.365471;0.145644;-9.780618;-0.699051;-0.672368;-1.845626;-1.66642;2.552806;-0.369268;0.718072;249.0;44.64;14.76;-3.18;63.2749;86.3242;-159.4241;0.0;1017.82;65.002;;;;;;0 / 0;85.8;45.0;3.667;3032;2014-11-17 16:56:37:554
0.047884;-8.00621;-2.173935;0.142823;-9.768806;-0.848779;-0.094939;1.762595;-1.325156;2.317623;-0.609949;0.588569;249.0;41.16;9.72;-2.1;76.5103;84.9648;-170.4484;0.0;1017.82;65.002;;;;;;0 / 0;85.8;45.0;3.667;3083;2014-11-17 16:56:37:605
0.344765;-8.197746;-1.8579;0.147982;-9.75282;-1.01537;0.196783;1.555075;-0.84253;1.485624;-1.067487;0.74495;244.0;35.52;4.32;2.52;85.8289;83.994;-171.708;0.0;1017.82;65.002;;;;;;0 / 0;85.8;45.0;3.667;3147;2014-11-17 16:56:37:669
0.296881;-6.071695;-0.823605;0.141819;-9.74289;-1.107412;0.155062;3.671196;0.283807;0.430355;-0.222355;0.709215;244.0;33.24;3.12;4.32;85.8289;83.994;-171.708;0.0;1017.82;65.002;;;;;;0 / 0;85.8;45.0;3.667;3207;2014-11-17 16:56:37:729
0.632069;-5.353435;0.229843;-0.20908;-9.760278;-0.929328;0.841149;4.406844;1.159172;-0.258701;-0.108734;0.347888;244.0;31.14;3.0;5.64;93.0136;83.4629;-172.7022;0.0;1017.82;65.002;;;;;;0 / 0;85.8;45.0;3.667;3259;2014-11-17 16:56:37:781
-0.411803;-9.20331;5.889736;0.227302;-9.78898;-0.542785;-0.639105;0.58567;6.432522;-1.11208;-0.105985;0.008247;241.0;27.66;3.12;7.68;82.8835;86.5598;-157.2775;0.0;1017.83;58.69101;;;;;;0 / 0;85.8;45.0;3.667;3313;2014-11-17 16:56:37:835
-2.5187;-12.53604;8.494628;-0.059234;-9.79499;0.474412;-2.459466;-2.74105;8.020216;-0.083689;-0.591012;0.208916;233.0;26.04;3.12;8.58;82.8835;86.5598;-157.2775;0.0;1017.83;58.69101;;;;;;0 / 0;85.8;45.0;3.667;3381;2014-11-17 16:56:37:903
-2.461239;-7.967903;4.10845;-0.310329;-9.760192;0.901516;-2.15091;1.792289;3.206934;0.1799;-1.134682;0.164323;230.0;22.8;2.94;10.98;285.7955;87.2055;7.1169;0.0;1017.83;58.69101;;;;;;0 / 0;85.8;45.0;3.667;3441;2014-11-17 16:56:37:963
2.001553;-5.48751;-6.502651;0.289227;-9.784296;0.595215;1.712326;4.296787;-7.097867;-0.285885;-1.035111;-0.160658;211.0;19.98;4.92;14.1;286.4078;84.5713;16.1274;0.0;1017.73;58.69101;;;;;;0 / 0;85.8;45.0;3.667;3530;2014-11-17 16:56:38:052
2.001553;-5.48751;-6.502651;0.289227;-9.784296;0.595215;1.712326;4.296787;-7.097867;-1.181413;-0.235183;0.478613;211.0;19.44;6.6;15.06;334.6348;86.1307;-25.916;0.0;1017.73;58.69101;;;;;;0 / 0;85.8;45.0;3.667;3583;2014-11-17 16:56:38:105
-0.967257;-8.829816;-2.059013;0.092635;-9.806184;0.024262;-1.059892;0.976368;-2.083276;-1.423621;0.178067;-0.343306;197.0;19.32;9.24;17.46;359.5773;88.2833;-47.7528;0.0;1017.86;58.69101;;;;;;0 / 0;85.8;45.0;3.667;3649;2014-11-17 16:56:38:171
-0.967257;-8.829816;-2.059013;0.092635;-9.806184;0.024262;-1.059892;0.976368;-2.083276;-1.012509;-0.33506;-0.059865;194.0;19.5;9.9;18.72;359.5773;88.2833;-47.7528;0.0;1017.86;62.00708;;;;;;0 / 0;85.8;45.0;3.667;3702;2014-11-17 16:56:38:224
-0.45011;-9.662998;-0.995988;0.035423;-9.804608;-0.19695;-0.485533;0.141611;-0.799038;-1.174083;0.601397;0.001833;194.0;19.62;10.68;20.4;87.5484;89.2509;-132.8392;0.0;1017.86;62.00708;;;;;;0 / 0;85.8;45.0;3.667;3778;2014-11-17 16:56:38:300
-1.225831;-9.222464;-2.202665;-0.066546;-9.797846;-0.410116;-1.159285;0.575381;-1.792549;-1.251968;0.648739;-0.264505;197.0;19.08;11.64;22.92;128.6373;88.8308;-169.8038;0.0;1017.75;62.00708;;;;;;0 / 0;85.8;45.0;3.667;3862;2014-11-17 16:56:38:384
-0.172383;-9.911994;0.392649;-0.067719;-9.799676;-0.363534;-0.104664;-0.112319;0.756183;-0.870483;0.060476;-0.163406;200.0;17.82;11.94;25.62;150.3561;87.5718;170.7835;0.0;1017.75;62.00708;;;;;;0 / 0;85.8;45.0;3.667;3932;2014-11-17 16:56:38:454
0.6608;-9.279924;-2.432509;-0.011714;-9.792952;-0.518028;0.672513;0.513027;-1.914481;-0.988991;0.566578;-0.226936;197.0;17.34;11.82;28.56;156.5288;87.839;169.448;0.0;1017.86;62.00708;;;;;;0 / 0;85.8;45.0;3.667;3993;2014-11-17 16:56:38:515
-1.80044;-9.500192;-1.704672;-0.172914;-9.78259;-0.664411;-1.627525;0.282398;-1.040261;-0.689056;0.654848;-0.013439;202.0;17.1;12.0;29.88;164.6433;85.9856;165.4123;0.0;1017.86;58.29792;;;;;;0 / 0;85.8;45.0;3.667;4047;2014-11-17 16:56:38:569
1.972822;-9.844956;-3.620033;6.66E-4;-9.762264;-0.931959;1.972156;-0.082692;-2.688074;-0.79779;0.90011;0.040623;202.0;16.68;12.3;31.56;164.6433;85.9856;165.4123;0.0;1017.86;58.29792;;;;;;0 / 0;85.8;45.0;3.667;4101;2014-11-17 16:56:38:623
-2.911349;-13.22557;-0.019154;-0.238008;-9.76594;-0.860346;-2.673342;-3.45963;0.841193;-0.757167;1.308473;-0.167377;202.0;14.4;13.8;35.46;155.2566;84.5467;-179.959;0.0;1017.86;58.29792;;;;;;0 / 0;85.8;45.0;3.667;4153;2014-11-17 16:56:38:675
-1.972822;-11.81778;2.432509;-0.472672;-9.788458;-0.36477;-1.50015;-2.029322;2.797279;0.896445;0.772745;0.594066;202.0;12.96;15.06;37.62;214.2388;86.5095;127.6581;0.0;1017.86;58.29792;;;;;;0 / 0;85.8;45.0;3.667;4212;2014-11-17 16:56:38:734
4.434062;-12.018892;-3.888183;0.94021;-9.754422;-0.371004;3.493851;-2.26447;-3.51718;2.449264;0.033903;1.035722;213.0;11.94;21.0;40.74;92.2905;84.0841;-111.534;0.0;1017.86;58.29792;;;;;;0 / 0;85.8;45.0;3.667;4275;2014-11-17 16:56:38:797
0.775721;-10.620678;-2.585738;1.150123;-9.705338;-0.808725;-0.374402;-0.915341;-1.777013;2.446515;0.352164;0.784656;234.0;14.64;31.08;39.78;91.0395;81.9114;-117.5244;0.0;1017.87;58.29792;;;;;;0 / 0;85.8;45.0;3.667;4372;2014-11-17 16:56:38:894
-0.009577;-8.66701;-2.671929;0.529978;-9.68458;-1.448599;-0.539555;1.01757;-1.22333;2.083661;-0.76572;0.781297;234.0;22.44;42.18;28.38;111.4494;80.9503;-159.9047;0.0;1017.87;65.3235;;;;;;0 / 0;85.8;45.0;3.667;4449;2014-11-17 16:56:38:971
0.258574;-6.579266;-1.541866;0.496002;-9.636838;-1.748058;-0.202239;3.273588;1.412669;0.870788;-0.728457;0.809396;233.0;25.98;44.04;22.5;101.3807;79.6611;-163.1608;0.0;1017.87;65.3235;;;;;;0 / 0;85.8;45.0;3.667;4535;2014-11-17 16:56:39:057
0.277727;-5.324704;0.153229;0.282051;-9.683038;-1.526304;0.045644;3.933634;1.828807;0.174707;-0.108734;0.683864;235.0;33.66;45.06;9.78;75.9487;80.2872;-161.5234;0.0;1017.87;65.3235;;;;;;0 / 0;85.8;45.0;3.667;4595;2014-11-17 16:56:39:117
-0.6608;-7.651869;2.882619;0.384608;-9.763776;-0.831367;-1.535523;0.055851;6.848589;-1.035111;0.001833;0.288939;233.0;35.88;44.64;6.6;75.9487;80.2872;-161.5234;0.0;1017.87;65.3235;;;;;;0 / 0;85.8;45.0;3.667;4649;2014-11-17 16:56:39:171
-3.189077;-11.482592;9.394848;-0.200132;-9.742772;1.09942;-2.185082;-2.360679;6.02831;-0.493274;-0.412639;0.094684;233.0;37.56;44.58;5.64;276.2783;83.4568;10.3168;0.0;1017.87;65.3235;;;;;;0 / 0;85.8;45.0;3.667;4705;2014-11-17 16:56:39:227
1.321599;-8.743624;-6.636727;-0.513554;-9.52791;2.263972;-0.234812;0.356172;1.821626;0.059559;-1.386664;0.036957;219.0;41.22;44.46;3.06;283.94;71.9039;13.1579;0.0;1017.82;65.3235;;;;;;0 / 0;85.8;45.0;3.667;4795;2014-11-17 16:56:39:317
-2.719813;-12.737152;0.354342;-0.101666;-9.62373;1.882521;-2.618147;-3.113422;-1.528179;-0.887587;-0.072388;-0.505796;213.0;41.82;44.16;0.36;282.5222;78.7385;2.0475;0.0;1017.82;57.86823;;;;;;0 / 0;85.8;45.0;3.667;4861;2014-11-17 16:56:39:383
2.834735;-3.936067;-6.215348;-0.229896;-9.800018;0.277855;3.064631;5.863951;-6.493202;-1.47585;1.042747;0.559553;200.0;42.06;43.56;-1.86;229.3626;87.8926;39.6043;0.0;1017.73;57.86823;;;;;;0 / 0;85.8;45.0;3.667;4926;2014-11-17 16:56:39:448
-0.957681;-9.251194;-1.101333;0.137298;-9.786704;-0.609888;-1.094979;0.535509;-0.491444;-1.430952;-0.202196;-0.492052;200.0;42.48;43.26;-1.44;44.6818;85.4185;-139.2549;0.0;1017.73;57.86823;;;;;;0 / 0;85.8;45.0;3.667;4988;2014-11-17 16:56:39:510
0.23942;-10.10353;-0.737414;0.130936;-9.761932;-0.926236;0.108484;-0.341598;0.188822;-1.076039;-0.189368;0.016799;194.0;43.26;43.38;0.9;78.7979;84.5472;-172.7866;0.0;1017.73;57.86823;;;;;;0 / 0;85.8;45.0;3.667;5063;2014-11-17 16:56:39:585
-0.497994;-9.184156;-1.838747;0.049018;-9.752118;-1.031602;-0.547012;0.567961;-0.807145;-1.152397;0.740063;0.005803;191.0;43.2;44.4;4.44;86.432;83.9548;-177.2795;0.0;1017.8;57.86823;;;;;;0 / 0;85.8;45.0;3.667;5118;2014-11-17 16:56:39:640
-2.030283;-9.691728;-1.005565;-0.189007;-9.741634;-1.111396;-1.841275;0.049907;0.105832;-1.327105;1.382083;-0.051924;194.0;43.26;44.52;6.72;86.432;83.9548;-177.2795;0.0;1017.8;64.57947;;;;;;0 / 0;85.8;45.0;3.667;5188;2014-11-17 16:56:39:710
-1.091756;-9.557652;-1.474828;-0.465264;-9.724614;-1.177205;-0.626492;0.166962;-0.297623;-0.832304;0.340557;-0.142942;200.0;42.9;44.46;12.54;106.2877;83.3988;170.3484;0.0;1017.8;64.57947;;;;;;0 / 0;85.8;45.0;3.667;5242;2014-11-17 16:56:39:764
1.149217;-9.346964;-1.522712;-0.023286;-9.714228;-1.342971;1.172502;0.367265;-0.179741;-0.867123;0.098655;-0.078496;200.0;43.02;44.46;15.06;116.2004;82.2684;166.0754;0.0;1017.75;64.57947;;;;;;0 / 0;85.8;45.0;3.667;5304;2014-11-17 16:56:39:826
-0.967257;-9.375694;-2.99754;-0.097702;-9.673118;-1.609858;-0.869556;0.297424;-1.387682;-0.923934;0.669508;-0.280693;197.0;42.54;44.1;18.96;108.5788;80.534;176.527;0.0;1017.75;64.57947;;;;;;0 / 0;85.8;45.0;3.667;5360;2014-11-17 16:56:39:882
0.191536;-9.452308;-1.742979;-0.163072;-9.629926;-1.846166;0.354608;0.177617;0.103188;-0.756862;0.727235;-0.004887;194.0;42.66;43.5;20.64;108.5788;80.534;176.527;0.0;1017.75;64.57947;;;;;;0 / 0;85.8;45.0;3.667;5419;2014-11-17 16:56:39:941
1.043872;-10.055646;-3.993528;0.054503;-9.566834;-2.154788;0.989369;-0.488812;-1.83874;-0.654542;1.109026;0.022907;194.0;42.3;42.06;24.72;113.9028;79.1062;174.9522;0.0;1017.92;64.57947;;;;;;0 / 0;85.8;45.0;3.667;5479;2014-11-17 16:56:40:001
-3.610456;-12.852074;0.995988;-0.593946;-9.630174;-1.754249;-3.016511;-3.221901;2.750237;-0.84727;1.336268;-0.201586;195.0;42.18;41.04;27.06;111.909;76.486;179.756;0.0;1017.92;60.22046;;;;;;0 / 0;85.8;45.0;3.667;5531;2014-11-17 16:56:40:053
-1.551443;-10.783484;2.384625;-0.990448;-9.717196;-0.874928;-0.560995;-1.066288;3.259553;1.474018;0.120035;0.75167;194.0;41.4;39.78;29.46;111.909;76.486;179.756;0.0;1017.92;60.22046;;;;;;0 / 0;85.8;45.0;3.667;5588;2014-11-17 16:56:40:110
5.372589;-11.061212;-0.143652;-0.203813;-9.799172;-0.324178;5.576402;-1.262039;0.180526;2.491414;-0.088575;1.053132;200.0;40.92;37.38;31.08;175.105;82.2552;131.4563;0.0;1017.85;60.22046;;;;;;0 / 0;85.8;45.0;3.667;5647;2014-11-17 16:56:40:169
2.231396;-13.129802;-2.48997;0.987319;-9.711226;-0.942172;1.244077;-3.418576;-1.547798;2.632829;1.022894;0.875675;211.0;40.92;36.0;30.66;80.9475;84.3697;-137.7208;0.0;1017.85;60.22046;;;;;;0 / 0;85.8;45.0;3.667;5705;2014-11-17 16:56:40:227
-0.545878;-11.84651;-2.700659;0.765146;-9.716392;-1.084747;-1.311024;-2.130118;-1.615912;2.482556;-0.172875;0.79779;235.0;40.44;34.74;28.38;84.2558;82.2204;-144.8021;0.0;1017.85;60.22046;;;;;;0 / 0;85.8;45.0;3.667;5759;2014-11-17 16:56:40:281
0.469264;-9.136272;-1.896208;0.41223;-9.693282;-1.428534;0.057034;0.55701;-0.467674;1.949271;-1.014036;0.75167;244.0;40.26;34.8;26.7;84.2558;82.2204;-144.8021;0.0;1017.85;60.22046;;;;;;0 / 0;85.8;45.0;3.667;5828;2014-11-17 16:56:40:350
1.005565;-8.561666;-1.216254;0.461466;-9.692986;-1.415428;0.544099;1.131322;0.199173;1.64842;-1.296256;0.865596;249.0;40.26;35.82;20.82;98.2337;81.2795;-163.9035;0.0;1017.85;63.56369;;;;;;0 / 0;85.8;45.0;3.667;5880;2014-11-17 16:56:40:402
-0.057461;-6.464344;1.091756;0.391705;-9.733404;-1.130392;-0.449166;3.269061;2.222148;0.731817;-0.018631;0.810313;249.0;40.38;36.36;17.64;88.9639;81.3841;-161.8667;0.0;1017.85;63.56369;;;;;;0 / 0;85.8;45.0;3.667;5946;2014-11-17 16:56:40:468
0.076614;-6.675034;1.149217;0.352112;-9.77054;-0.76349;-0.275498;3.095507;1.912707;0.295659;-0.188452;0.576351;245.0;41.16;36.48;13.92;80.0918;85.0817;-155.2414;0.0;1017.86;63.56369;;;;;;0 / 0;85.8;45.0;3.667;6001;2014-11-17 16:56:40:523
-1.130063;-8.015787;4.252103;-0.035804;-9.79826;0.403982;-1.094259;1.782473;3.84812;-0.487165;-0.330478;0.234878;244.0;41.04;36.78;13.32;80.0918;85.0817;-155.2414;0.0;1017.86;63.56369;;;;;;0 / 0;85.8;45.0;3.667;6055;2014-11-17 16:56:40:577
-1.810016;-10.113108;6.320693;-0.468783;-9.519952;2.306762;-1.554062;-0.124872;5.420511;-0.516181;-0.71288;0.114843;235.0;41.34;36.78;13.26;284.7715;83.3424;8.2943;0.0;1017.86;63.56369;;;;;;0 / 0;85.8;45.0;3.667;6114;2014-11-17 16:56:40:636
-0.976834;-9.921572;6.023812;-0.495163;-9.419836;2.681768;-0.481672;-0.501735;3.342044;-0.18387;-1.249219;-0.02138;224.0;41.88;37.26;13.26;286.7044;76.1116;11.4873;0.0;1017.89;63.56369;;;;;;0 / 0;85.8;45.0;3.667;6170;2014-11-17 16:56:40:692
4.299987;-15.073894;-2.566584;0.157498;-9.646182;1.759759;4.142488;-5.42771;-4.326343;-0.281303;-1.726;-0.077885;216.0;41.7;39.3;12.9;299.9602;79.6208;-5.1143;0.0;1017.89;63.56369;;;;;;0 / 0;85.8;45.0;3.667;6229;2014-11-17 16:56:40:751
0.823605;-15.44739;4.654328;0.511968;-9.542456;2.202224;0.311638;-5.904933;2.452104;-1.293507;0.090103;-0.580933;202.0;41.22;40.26;12.9;299.9602;79.6208;-5.1143;0.0;1017.89;58.99799;;;;;;0 / 0;85.8;45.0;3.667;6287;2014-11-17 16:56:40:809
3.399767;-8.322244;-0.785298;0.621994;-9.78649;0.089942;2.777773;1.464247;-0.87524;-1.467298;1.189355;0.567188;194.0;40.2;42.72;14.46;281.2679;86.4371;10.2106;0.0;1017.76;58.99799;;;;;;0 / 0;85.8;45.0;3.667;6337;2014-11-17 16:56:40:859
-1.647211;-11.109096;-1.015141;0.344243;-9.797914;-0.229688;-1.991454;-1.31118;-0.785454;-1.052215;-0.611782;-0.372933;198.0;39.66;43.68;16.56;54.761;87.5814;-123.7122;0.0;1017.76;58.99799;;;;;;0 / 0;85.8;45.0;3.667;6397;2014-11-17 16:56:40:919
0.699107;-9.710882;-0.421379;0.208278;-9.798608;-0.338113;0.490829;0.087726;-0.083266;-0.672868;-0.761749;-0.04948;191.0;39.36;44.7;18.48;54.761;87.5814;-123.7122;0.0;1017.76;58.99799;;;;;;0 / 0;85.8;45.0;3.667;6457;2014-11-17 16:56:40:979
-0.622492;-9.452308;-0.871489;0.165102;-9.791892;-0.511834;-0.787594;0.339583;-0.359655;-0.767552;0.101709;-0.006414;183.0;38.52;45.48;22.32;84.3241;87.6791;-148.3669;0.0;1017.83;58.99799;;;;;;0 / 0;85.8;45.0;3.667;6532;2014-11-17 16:56:41:054
-0.890643;-9.481038;-0.785298;-0.065484;-9.787298;-0.61229;-0.825159;0.306259;-0.173008;-0.83658;0.333838;-0.116981;184.0;37.8;45.96;25.38;101.2204;86.8563;-162.1219;0.0;1017.83;58.99799;;;;;;0 / 0;85.8;45.0;3.667;6600;2014-11-17 16:56:41:122
0.134075;-9.758766;-0.402226;-0.062321;-9.78744;-0.610378;0.196396;0.028674;0.208152;-0.616363;-0.353691;-0.244041;178.0;37.62;46.32;29.16;128.6678;86.4;173.8955;0.0;1017.83;59.97994;;;;;;0 / 0;85.8;45.0;3.667;6667;2014-11-17 16:56:41:189
0.220267;-9.634268;-0.584185;0.143376;-9.789136;-0.568018;0.07689;0.154868;-0.016168;-0.665232;-0.299019;-0.117286;173.0;37.02;46.5;30.6;119.5591;86.869;-172.2927;0.0;1017.85;59.97994;;;;;;0 / 0;85.8;45.0;3.667;6729;2014-11-17 16:56:41:251
-0.124498;-9.500192;-2.892196;-0.119241;-9.79083;-0.543903;-0.005258;0.290637;-2.348292;-0.438296;0.312458;-0.068111;169.0;36.6;46.2;33.12;127.1116;88.1777;-176.7447;0.0;1017.85;59.97994;;;;;;0 / 0;85.8;45.0;3.667;6793;2014-11-17 16:56:41:315
0.363919;-8.523358;-3.715801;-0.083654;-9.768104;-0.864637;0.447572;1.244745;-2.851164;-0.111483;0.167377;0.079107;168.0;36.48;46.38;34.56;127.1116;88.1777;-176.7447;0.0;1017.85;59.97994;;;;;;0 / 0;85.8;45.0;3.667;6844;2014-11-17 16:56:41:366
0.430956;-9.528922;-1.455675;0.273788;-9.68271;-1.529887;0.157168;0.153788;0.074212;-0.492663;0.191812;-0.069944;171.0;35.58;46.8;38.46;121.3981;81.7645;-173.0535;0.0;1017.82;59.97994;;;;;;0 / 0;85.8;45.0;3.667;6900;2014-11-17 16:56:41:422
-1.235408;-11.070788;1.187524;0.071279;-9.74098;-1.130759;-1.306687;-1.329807;2.318284;-0.474337;0.814283;0.066279;172.0;35.28;46.92;40.5;131.3639;83.3656;-176.393;0.0;1017.82;59.97994;;;;;;0 / 0;85.8;45.0;3.667;6955;2014-11-17 16:56:41:477
1.608904;-14.010868;-0.402226;0.132868;-9.802202;-0.263682;1.476035;-4.208666;-0.138544;1.55343;0.50091;0.185398;178.0;33.9;47.46;43.92;114.2223;88.2747;-153.2567;0.0;1017.82;60.04929;;;;;;0 / 0;85.8;45.0;3.667;7026;2014-11-17 16:56:41:548
3.093309;-10.113108;-2.99754;1.198719;-9.699116;-0.812768;1.89459;-0.413991;-2.184772;1.929723;0.493274;0.346666;194.0;33.9;48.72;44.16;114.2223;88.2747;-153.2567;0.0;1017.9;60.04929;;;;;;0 / 0;85.8;45.0;3.667;7085;2014-11-17 16:56:41:607
0.105345;-10.275912;-2.470816;1.102142;-9.685656;-1.069458;-0.996797;-0.590258;-1.401358;1.627651;0.898583;0.271835;201.0;33.72;50.94;42.66;78.1233;81.5073;-124.1385;0.0;1017.9;60.04929;;;;;;0 / 0;85.8;45.0;3.667;7137;2014-11-17 16:56:41:659
1.082179;-8.571242;-2.633622;1.04322;-9.636034;-1.49295;0.038959;1.064793;-1.140672;1.681407;-0.10965;0.288634;200.0;33.42;56.28;37.38;88.4509;80.6573;-140.8652;0.0;1017.9;60.04929;;;;;;0 / 0;85.8;45.0;3.667;7192;2014-11-17 16:56:41:714
0.335188;-7.862558;-0.220267;0.952308;-9.659516;-1.399009;-0.61712;1.796958;1.178742;0.970054;-0.008858;0.396452;194.0;33.3;58.5;33.66;88.4509;80.6573;-140.8652;0.0;1017.82;60.04929;;;;;;0 / 0;85.8;45.0;3.667;7255;2014-11-17 16:56:41:777
1.972822;-7.757213;-0.344765;1.159037;-9.654616;-1.270981;0.813786;1.897404;0.926216;0.114537;-0.16921;0.474642;186.0;33.96;61.2;27.42;83.9453;80.0625;-145.7568;0.0;1017.82;60.04929;;;;;;0 / 0;85.8;45.0;3.667;7309;2014-11-17 16:56:41:831
0.201113;-10.036492;1.043872;1.09678;-9.702606;-0.90933;-0.895667;-0.333887;1.953202;-0.150884;0.200364;0.427911;180.0;34.74;61.74;25.44;69.5714;79.898;-137.6376;0.0;1017.82;58.67768;;;;;;0 / 0;85.8;45.0;3.667;7362;2014-11-17 16:56:41:884
-0.603339;-8.647856;1.924938;0.790614;-9.766424;-0.402867;-1.393953;1.118568;2.327805;-0.485638;-0.114232;0.125533;180.0;35.46;61.8;24.78;69.5714;79.898;-137.6376;0.0;1017.82;58.67768;;;;;;0 / 0;85.8;45.0;3.667;7412;2014-11-17 16:56:41:934
-0.47884;-8.657434;0.938527;0.620149;-9.770456;0.569198;-1.098989;1.113024;0.369329;-0.124922;-0.405615;0.249233;169.0;37.32;61.5;25.74;55.7954;84.8086;-117.0017;0.0;1017.8;58.67768;;;;;;0 / 0;85.8;45.0;3.667;7475;2014-11-17 16:56:41:997
1.206678;-9.337386;0.153229;0.58907;-9.769934;0.609748;0.617608;0.432547;-0.456519;-0.504269;-0.140499;0.293521;164.0;37.92;61.08;26.4;352.6411;85.0759;-47.453;0.0;1017.8;58.67768;;;;;;0 / 0;85.8;45.0;3.667;7535;2014-11-17 16:56:42:057
4.644751;-13.656526;2.930503;1.251229;-9.69977;0.720593;3.393522;-3.956756;2.20991;-0.488081;0.026573;0.10568;164.0;39.36;60.42;27.6;4.8923;81.5332;-60.062;0.0;1017.8;58.67768;;;;;;0 / 0;85.8;45.0;3.667;7586;2014-11-17 16:56:42:108
0.430956;-8.7532;1.101333;1.257953;-9.67064;1.032788;-0.826997;0.917439;0.068545;-0.184787;-0.417526;-0.034514;154.0;39.78;60.06;27.54;4.8923;81.5332;-60.062;0.0;1017.8;58.67768;;;;;;0 / 0;85.8;45.0;3.667;7648;2014-11-17 16:56:42:170
-2.528277;-10.687716;1.493982;0.89371;-9.714946;0.995738;-3.421986;-0.972771;0.498243;-0.237016;-0.149357;0.040012;150.0;40.08;59.64;28.74;356.3074;80.4465;-50.6138;0.0;1017.8;58.67768;;;;;;0 / 0;85.8;45.0;3.667;7705;2014-11-17 16:56:42:227
1.244985;-9.394848;1.053449;0.897182;-9.725478;0.88348;0.347803;0.33063;0.169969;-0.083689;-0.062919;0.248011;143.0;39.6;59.64;28.98;352.4895;82.623;-45.4409;0.0;1017.8;53.15288;;;;;;0 / 0;85.8;45.0;3.667;7759;2014-11-17 16:56:42:281
0.076614;-9.969456;0.727837;0.821927;-9.736078;0.838813;-0.745312;-0.233377;-0.110976;-0.126144;-0.25076;0.070555;142.0;39.36;59.58;30.24;352.4895;82.623;-45.4409;0.0;1017.77;53.15288;;;;;;0 / 0;85.8;45.0;3.667;7823;2014-11-17 16:56:42:345
-0.095768;-9.576806;0.775721;0.77601;-9.744078;0.788133;-0.871778;0.167272;-0.012412;-0.188757;0.072082;0.008552;136.0;39.36;59.7;30.72;353.7524;83.1221;-44.4174;0.0;1017.77;53.15288;;;;;;0 / 0;85.8;45.0;3.667;7884;2014-11-17 16:56:42:406
0.153229;-10.084376;0.995988;0.759813;-9.749792;0.731157;-0.606584;-0.334584;0.264831;-0.101404;-0.064752;0.093768;135.0;39.36;60.06;31.26;353.8332;83.524;-44.5559;0.0;1017.77;53.15288;;;;;;0 / 0;85.8;45.0;3.667;7948;2014-11-17 16:56:42:470
0.632069;-9.548076;0.430956;0.746143;-9.755296;0.669217;-0.114073;0.20722;-0.238261;-0.082467;0.054672;0.087354;135.0;39.48;59.94;31.62;357.7428;84.1338;-48.111;0.0;1017.75;53.15288;;;;;;0 / 0;85.8;45.0;3.667;8002;2014-11-17 16:56:42:524
-0.02873;-9.83538;0.153229;0.709682;-9.760678;0.629198;-0.738412;-0.074701;-0.475969;-0.005803;0.023518;0.093462;136.0;39.54;59.64;32.28;357.3839;84.4501;-48.4401;0.0;1017.75;53.15288;;;;;;0 / 0;85.8;45.0;3.667;8068;2014-11-17 16:56:42:590
0.258574;-9.509768;0.181959;0.682472;-9.764584;0.597914;-0.423898;0.254816;-0.415954;-0.064446;0.063225;0.066279;136.0;39.54;59.52;32.58;357.3839;84.4501;-48.4401;0.0;1017.75;42.7546;;;;;;0 / 0;85.8;45.0;3.667;8124;2014-11-17 16:56:42:646
0.143652;-9.89284;0.881066;0.664544;-9.766384;0.588678;-0.520892;-0.126457;0.292389;-0.049786;-0.04215;0.072998;136.0;39.66;59.82;33.18;358.4594;84.6913;-48.7784;0.0;1017.83;42.7546;;;;;;0 / 0;85.8;45.0;3.667;8191;2014-11-17 16:56:42:713
0.45011;-9.5385;0.47884;0.64789;-9.767784;0.583976;-0.19778;0.229285;-0.105135;-0.015882;0.025656;0.069944;136.0;39.9;59.94;33.42;357.7184;84.8972;-47.9701;0.0;1017.83;42.7546;;;;;;0 / 0;85.8;45.0;3.667;8253;2014-11-17 16:56:42:775
0.344765;-10.31422;1.158794;0.627954;-9.770718;0.556001;-0.283189;-0.543503;0.602793;-0.361021;-0.098349;0.029322;136.0;39.78;59.94;33.36;357.7184;84.8972;-47.9701;0.0;1017.83;42.7546;;;;;;0 / 0;85.8;45.0;3.667;8303;2014-11-17 16:56:42:825
0.248997;-9.442732;-0.316035;0.634368;-9.772104;0.523382;-0.385371;0.329373;-0.839417;0.045204;0.163406;0.026878;136.0;39.66;60.0;33.78;358.9419;85.0937;-48.4778;0.0;1017.82;42.7546;;;;;;0 / 0;85.8;45.0;3.667;8362;2014-11-17 16:56:42:884