sep=;
ACCELEROMETER X (m/s²);ACCELEROMETER Y (m/s²);ACCELEROMETER Z (m/s²);GRAVITY X (m/s²);GRAVITY Y (m/s²);GRAVITY Z (m/s²);LINEAR ACCELERATION X (m/s²);LINEAR ACCELERATION Y (m/s²);LINEAR ACCELERATION Z (m/s²);GYROSCOPE X (rad/s);GYROSCOPE Y (rad/s);GYROSCOPE Z (rad/s);LIGHT (lux);MAGNETIC FIELD X (μT);MAGNETIC FIELD Y (μT);MAGNETIC FIELD Z (μT);ORIENTATION X (°);ORIENTATION Y (°);ORIENTATION Z (°);PROXIMITY (i);ATMOSPHERIC PRESSURE (hPa);SOUND LEVEL (dB);LOCATION Latitude : ;LOCATION Longitude : ;LOCATION Altitude ( m);LOCATION Speed ( Kmh);LOCATION Accuracy ( m);Satellites in range;Temperature (F);Level (%);Voltage (Volt);Time since start in ms ;YYYY-MO-DD HH-MI-SS_SSS
-1.541866;-10.726024;4.663905;0.491866;-9.734046;1.084812;-2.033732;-0.991978;3.579094;0.263588;0.047647;0.14111;271.0;31.08;42.84;-13.38;289.5742;84.4166;-37.2818;0.0;1017.79;67.29071;;;;;;0 / 0;83.8;44.0;3.687;25;2014-11-17 16:57:26:455
1.551443;-10.591948;2.806004;0.235803;-9.628114;1.847761;1.31564;-0.963835;0.958243;1.124603;0.223882;0.548252;266.0;31.86;41.58;-12.9;280.4167;83.0236;-24.3901;0.0;1017.79;57.42165;;;;;;0 / 0;83.8;44.0;3.687;92;2014-11-17 16:57:26:522
-0.067038;-9.17458;1.024718;-0.161115;-9.461194;2.574921;0.094077;0.286614;-1.550203;0.722654;-0.046426;0.483805;285.0;32.58;38.7;-13.02;265.6608;76.8038;-1.5424;0.0;1017.79;57.42165;;;;;;0 / 0;83.8;44.0;3.687;173;2014-11-17 16:57:26:603
-0.105345;-8.60955;1.455675;-0.436967;-9.333538;2.97733;0.331622;0.72399;-1.521655;0.260534;-0.245568;0.422108;288.0;32.88;35.7;-12.48;261.1472;72.1302;8.3494;0.0;1017.86;57.42165;;;;;;0 / 0;83.8;44.0;3.687;274;2014-11-17 16:57:26:704
-0.162806;-7.824251;2.049437;-0.497613;-9.322444;3.002465;0.334807;1.498194;-0.953028;-0.047037;-0.315206;0.293826;284.0;32.82;35.04;-12.18;261.1472;72.1302;8.3494;0.0;1017.86;57.42165;;;;;;0 / 0;83.8;44.0;3.687;332;2014-11-17 16:57:26:762
-0.852336;-8.283937;3.457227;-0.614521;-9.343838;2.912982;-0.573003;1.213129;0.199481;-0.383318;-0.340557;0.197615;281.0;32.76;34.26;-11.16;259.1792;72.0375;11.0258;0.0;1017.86;57.42165;;;;;;0 / 0;83.8;44.0;3.687;383;2014-11-17 16:57:26:813
0.316035;-8.408436;3.284845;-0.612908;-9.375262;2.810546;0.928943;0.966826;0.474299;-0.43066;-0.37385;0.20861;270.0;32.34;33.96;-9.24;260.4234;72.9425;12.3021;0.0;1017.86;58.40483;;;;;;0 / 0;83.8;44.0;3.687;433;2014-11-17 16:57:26:863
-1.321599;-8.408436;2.691083;-0.615312;-9.414426;2.675889;-0.667497;0.279197;0.062538;-0.383012;-0.430049;0.135001;258.0;31.92;33.72;-8.16;260.4234;72.9425;12.3021;0.0;1017.86;58.40483;;;;;;0 / 0;83.8;44.0;3.687;499;2014-11-17 16:57:26:929
0.124498;-11.674128;4.405331;-0.57969;-9.46116;2.514119;0.730033;-1.526165;1.799328;-0.507629;-0.482278;0.139277;252.0;30.36;33.66;-6.24;261.5623;74.2916;13.3359;0.0;1017.85;58.40483;;;;;;0 / 0;83.8;44.0;3.687;555;2014-11-17 16:57:26:985
1.56102;-11.051634;-1.656788;-0.453332;-9.492688;2.419449;2.619603;-3.516433;-2.376419;-0.113621;-0.825279;0.076664;242.0;29.58;33.84;-5.58;264.0896;74.8142;12.2657;0.0;1017.85;58.40483;;;;;;0 / 0;83.8;44.0;3.687;619;2014-11-17 16:57:27:049
-1.264138;-11.63582;-1.254562;-0.196593;-9.614428;1.922116;0.659678;-3.417988;0.034189;-0.56505;-0.298408;-0.13775;235.0;28.5;34.02;-4.56;264.0896;74.8142;12.2657;0.0;1017.85;58.40483;;;;;;0 / 0;83.8;44.0;3.687;670;2014-11-17 16:57:27:100
2.930503;-6.483498;-3.227384;-0.141065;-9.693934;1.475851;3.071568;3.210436;-4.703235;-0.931569;-0.305738;0.122173;235.0;26.76;34.98;-1.74;272.328;78.637;5.8399;0.0;1017.85;58.40483;;;;;;0 / 0;83.8;44.0;3.687;729;2014-11-17 16:57:27:159
-1.570596;-10.658986;-0.794875;-0.004661;-9.802512;0.284802;-1.710538;-1.143998;-1.180848;-1.229366;0.14508;-0.405004;227.0;26.58;35.88;2.76;273.3242;83.6147;7.0973;0.0;1017.87;58.01624;;;;;;0 / 0;83.8;44.0;3.687;797;2014-11-17 16:57:27:227
-0.258574;-9.471462;-2.96881;0.035602;-9.802994;-0.265418;-0.379656;0.553311;-2.795432;-0.678977;0.173486;0.016188;230.0;26.82;36.48;5.04;38.4039;89.8042;-118.0717;0.0;1017.87;58.01624;;;;;;0 / 0;83.8;44.0;3.687;861;2014-11-17 16:57:27:291
0.497994;-9.634268;-1.838747;0.055907;-9.787044;-0.617283;0.440253;0.14377;-1.092397;-0.878424;0.381485;0.099876;224.0;26.52;36.84;7.2;38.4039;89.8042;-118.0717;0.0;1017.86;58.01624;;;;;;0 / 0;83.8;44.0;3.687;913;2014-11-17 16:57:27:343
0.153229;-9.002198;-2.183512;0.064805;-9.763742;-0.914061;0.070444;0.741332;-1.075733;-0.934013;0.701884;0.03879;224.0;25.38;37.5;11.28;99.0765;86.3763;-174.8248;0.0;1017.86;58.01624;;;;;;0 / 0;83.8;44.0;3.687;968;2014-11-17 16:57:27:398
-1.273715;-9.442732;-1.551443;0.154499;-9.680138;-1.562525;-1.307514;0.350129;0.169575;-0.950201;0.53298;-0.112705;230.0;24.96;37.62;13.26;102.0044;82.2503;-174.9745;0.0;1017.86;58.01624;;;;;;0 / 0;83.8;44.0;3.687;1021;2014-11-17 16:57:27:451
0.651223;-9.299078;-2.269703;0.269745;-9.564202;-2.150277;-0.215634;0.328179;0.013478;-0.862847;0.36041;-0.045204;231.0;25.08;37.62;15.66;102.0044;82.2503;-174.9745;0.0;1017.86;58.01624;;;;;;0 / 0;83.8;44.0;3.687;1073;2014-11-17 16:57:27:503
-0.181959;-9.701304;-0.861913;0.365661;-9.491296;-2.43967;-0.568095;-0.224922;1.631972;-0.877813;0.178373;-0.204334;233.0;24.36;37.8;20.04;102.4802;77.2331;-172.8498;0.0;1017.87;58.01624;;;;;;0 / 0;83.8;44.0;3.687;1131;2014-11-17 16:57:27:561
-0.354342;-10.113108;-3.275268;0.516588;-9.382908;-2.804375;-0.923365;-0.765881;-0.363914;-0.619723;0.39859;-0.197309;230.0;24.0;37.98;22.2;103.9905;74.2723;-170.5556;0.0;1017.87;57.72472;;;;;;0 / 0;83.8;44.0;3.687;1190;2014-11-17 16:57:27:620
-0.354342;-10.113108;-3.275268;0.516588;-9.382908;-2.804375;-0.923365;-0.765881;-0.363914;-0.545503;0.396452;-0.032376;233.0;22.32;37.98;25.8;110.0247;73.0955;-169.5626;0.0;1017.87;57.72472;;;;;;0 / 0;83.8;44.0;3.687;1242;2014-11-17 16:57:27:672
0.6608;-9.605536;-2.882619;0.722311;-9.232204;-3.227235;-0.061511;-0.373333;0.344616;-0.617279;0.519846;0.02138;231.0;21.3;38.22;27.84;110.0247;73.0955;-169.5626;0.0;1017.89;57.72472;;;;;;0 / 0;83.8;44.0;3.687;1293;2014-11-17 16:57:27:723
-2.652775;-12.162544;-1.072602;0.883999;-9.143186;-3.433815;-3.536775;-3.019359;2.361213;-0.359494;0.99571;0.002138;234.0;19.5;38.52;31.62;107.9523;68.8034;-165.5633;0.0;1017.89;57.72472;;;;;;0 / 0;83.8;44.0;3.687;1359;2014-11-17 16:57:27:789
-1.503559;-11.310208;1.877054;0.955908;-9.195418;-3.27123;-2.459467;-2.114791;5.148284;1.762041;0.142026;0.680198;235.0;19.32;39.18;33.12;112.0762;69.6641;-163.7107;0.0;1017.89;57.72472;;;;;;0 / 0;83.8;44.0;3.687;1416;2014-11-17 16:57:27:846
3.543419;-11.310208;-1.359906;0.683889;-9.518572;-2.258201;2.85953;-1.791636;0.898295;2.219885;0.047647;0.680198;241.0;19.32;40.38;34.14;112.0762;69.6641;-163.7107;0.0;1017.89;57.72472;;;;;;0 / 0;83.8;44.0;3.687;1466;2014-11-17 16:57:27:896
2.528277;-13.139378;-3.44765;0.352167;-9.758746;-0.901786;2.17611;-3.380632;-2.545864;2.302962;0.627969;0.789849;255.0;22.38;45.24;31.26;117.0895;76.078;-163.1512;0.0;1017.89;57.72472;;;;;;0 / 0;83.8;44.0;3.687;1521;2014-11-17 16:57:27:951
-0.507571;-11.540052;-2.164358;-0.060542;-9.794542;0.483381;-0.447029;-1.745509;-2.647739;2.348166;-0.53695;0.838413;266.0;24.66;48.06;27.72;313.6994;87.1526;7.1389;0.0;1017.89;64.14131;;;;;;0 / 0;83.8;44.0;3.687;1589;2014-11-17 16:57:28:019
0.6608;-8.580818;-2.365471;-0.457252;-9.625742;1.818352;1.118051;1.044923;-4.183823;2.084272;-0.694554;0.808175;266.0;31.26;51.24;16.98;298.4203;78.9776;14.1152;0.0;1017.99;64.14131;;;;;;0 / 0;83.8;44.0;3.687;1642;2014-11-17 16:57:28:072
0.679953;-6.320692;-1.867477;-0.777003;-9.361222;2.816763;1.456956;3.040531;-4.68424;1.34482;-0.807258;0.832915;274.0;34.8;51.48;11.04;298.4203;78.9776;14.1152;0.0;1017.99;64.14131;;;;;;0 / 0;83.8;44.0;3.687;1696;2014-11-17 16:57:28:126
0.21069;-6.129156;-0.172383;-1.004321;-9.15298;3.37412;1.215011;3.023825;-3.546503;0.060476;-0.279165;0.540616;266.0;41.1;50.28;1.5;284.2657;72.665;15.4215;0.0;1017.99;64.14131;;;;;;0 / 0;83.8;44.0;3.687;1760;2014-11-17 16:57:28:190
-0.670376;-6.17704;0.842759;-1.132123;-9.144938;3.355408;0.461747;2.967899;-2.512649;-0.405004;-0.478918;0.268781;258.0;43.2;49.08;-1.8;274.4311;68.8318;18.6445;0.0;1017.88;64.14131;;;;;;0 / 0;83.8;44.0;3.687;1824;2014-11-17 16:57:28:254
-1.714248;-10.994174;7.996634;-1.116892;-9.285036;2.951452;-0.597357;-1.709138;5.045182;-1.270294;-0.14508;0.122784;249.0;45.48;48.12;-4.14;265.5354;71.2286;20.7277;0.0;1017.88;64.14131;;;;;;0 / 0;83.8;44.0;3.687;1893;2014-11-17 16:57:28:323
-2.566584;-10.572794;5.707777;-1.176058;-9.343666;2.735542;-1.390526;-1.229129;2.972235;-0.043066;-0.854295;0.32834;245.0;47.4;48.84;-4.86;265.5354;71.2286;20.7277;0.0;1017.88;58.09065;;;;;;0 / 0;83.8;44.0;3.687;1952;2014-11-17 16:57:28:382
-1.283292;-8.322244;2.049437;-1.109716;-9.334322;2.794521;-0.173576;1.012078;-0.745084;-0.072082;-1.282206;0.124006;230.0;48.48;48.66;-5.94;260.4325;72.1451;21.6582;0.0;1017.88;58.09065;;;;;;0 / 0;83.8;44.0;3.687;2003;2014-11-17 16:57:28:433
3.610456;-16.845604;4.625598;-0.758723;-9.39726;2.699305;4.369179;-7.448343;1.926293;-0.802982;-0.632246;-0.397979;226.0;49.5;48.06;-8.16;260.4325;72.1451;21.6582;0.0;1017.88;58.09065;;;;;;0 / 0;83.8;44.0;3.687;2055;2014-11-17 16:57:28:485
1.551443;-4.654328;-6.713341;-0.432251;-9.49734;2.405011;1.983694;4.843014;-9.118352;-0.755029;-1.248914;0.0956;222.0;49.74;46.62;-13.62;257.9082;73.3862;15.6997;0.0;1017.88;58.09065;;;;;;0 / 0;83.8;44.0;3.687;2115;2014-11-17 16:57:28:545
-1.225831;-12.32535;-0.699107;-0.567661;-9.673216;1.508986;-0.65817;-2.652134;-2.208093;-1.492649;-0.239154;-0.663705;218.0;49.2;46.68;-15.12;256.2396;75.5715;10.1889;0.0;1017.82;58.09065;;;;;;0 / 0;83.8;44.0;3.687;2180;2014-11-17 16:57:28:610
-0.047884;-8.69574;-2.882619;-0.288241;-9.767202;0.830095;0.240357;1.071463;-3.712714;-1.050077;0.071471;0.005192;213.0;48.84;47.16;-14.52;237.9399;84.8592;19.149;0.0;1017.82;58.09065;;;;;;0 / 0;83.8;44.0;3.687;2244;2014-11-17 16:57:28:674
-0.402226;-9.816226;-1.742979;-0.267675;-9.80102;0.196889;-0.134551;-0.015207;-1.939868;-1.078177;0.401644;0.040012;213.0;48.96;47.58;-13.2;237.9399;84.8592;19.149;0.0;1017.82;60.24739;;;;;;0 / 0;83.8;44.0;3.687;2296;2014-11-17 16:57:28:726
-0.363919;-9.078812;-2.03986;-0.236156;-9.79391;-0.440372;-0.127762;0.715098;-1.599487;-1.046107;0.91416;-0.010079;216.0;49.44;48.72;-10.32;203.3189;88.0582;53.6636;0.0;1017.88;60.24739;;;;;;0 / 0;83.8;44.0;3.687;2364;2014-11-17 16:57:28:794
-1.225831;-9.959878;-0.68953;-0.108981;-9.747034;-1.074182;-1.11685;-0.212845;0.384652;-0.945008;0.603535;-0.199753;219.0;50.58;49.74;-5.64;106.3779;87.0793;151.7969;0.0;1017.88;60.24739;;;;;;0 / 0;83.8;44.0;3.687;2421;2014-11-17 16:57:28:851
0.612916;-9.23204;-1.61848;0.043932;-9.684708;-1.541073;0.568984;0.452667;-0.077408;-0.642325;0.299935;0.007941;220.0;51.06;50.16;-3.0;76.4589;80.955;-178.3671;0.0;1017.88;60.24739;;;;;;0 / 0;83.8;44.0;3.687;2485;2014-11-17 16:57:28:915
0.114922;-8.983044;-2.844312;0.125768;-9.61768;-1.911762;-0.010846;0.634636;-0.932549;-0.715629;0.539394;-0.051924;222.0;51.06;50.34;-1.32;76.4589;80.955;-178.3671;0.0;1017.77;60.24739;;;;;;0 / 0;83.8;44.0;3.687;2536;2014-11-17 16:57:28:966
-1.283292;-9.682152;-2.087744;0.367232;-9.49962;-2.406803;-1.650524;-0.182531;0.319059;-0.830471;0.637132;-0.250149;222.0;51.54;49.86;1.26;75.6155;78.7339;-176.2361;0.0;1017.77;60.24739;;;;;;0 / 0;83.8;44.0;3.687;2610;2014-11-17 16:57:29:040
0.545878;-9.56723;-2.298433;0.539303;-9.394712;-2.760237;0.006575;-0.172517;0.461803;-0.571159;0.494495;-0.002443;222.0;52.02;48.96;3.18;70.7113;75.6251;-171.3247;0.0;1017.77;59.72592;;;;;;0 / 0;83.8;44.0;3.687;2675;2014-11-17 16:57:29:105
-2.777274;-12.909534;-0.421379;0.636492;-9.3311;-2.948878;-3.413766;-3.578436;2.527499;-0.020159;1.16492;0.069944;224.0;52.2;48.54;4.14;67.1332;72.0837;-167.82;0.0;1017.95;59.72592;;;;;;0 / 0;83.8;44.0;3.687;2739;2014-11-17 16:57:29:169
-1.61848;-12.009314;2.786851;0.69708;-9.405758;-2.686291;-2.31556;-2.603557;5.473142;0.95295;0.5116;0.569632;222.0;52.68;45.0;4.02;67.3843;73.5608;-165.4529;0.0;1017.95;59.72592;;;;;;0 / 0;83.8;44.0;3.687;2796;2014-11-17 16:57:29:226
5.056554;-11.022904;-2.863465;0.344187;-9.673562;-1.572926;4.712367;-1.349341;-1.290539;2.634051;0.027489;0.697914;233.0;53.16;41.76;2.64;67.3843;73.5608;-165.4529;0.0;1017.95;59.72592;;;;;;0 / 0;83.8;44.0;3.687;2852;2014-11-17 16:57:29:282
2.403779;-13.608642;-3.093309;0.003644;-9.806188;-0.095304;2.400135;-3.802454;-2.998005;2.440407;0.915076;0.657596;240.0;52.02;30.6;-2.34;71.5727;80.5499;-167.6571;0.0;1017.96;59.72592;;;;;;0 / 0;83.8;44.0;3.687;2908;2014-11-17 16:57:29:338
-0.746991;-10.151414;-2.269703;-0.344038;-9.709258;1.335027;-0.402953;-0.442156;-3.60473;2.503937;-0.184481;0.623083;258.0;50.58;24.06;-4.08;254.8941;81.9184;14.4508;0.0;1017.96;59.72592;;;;;;0 / 0;83.8;44.0;3.687;2971;2014-11-17 16:57:29:401
-0.201113;-8.542512;-2.06859;-0.649695;-9.42399;2.633758;0.448582;0.881478;-4.702348;1.806329;-0.647212;0.752586;260.0;45.54;12.78;-3.54;256.2141;73.9415;13.8571;0.0;1017.96;63.03485;;;;;;0 / 0;83.8;44.0;3.687;3027;2014-11-17 16:57:29:457
0.593762;-6.847417;-1.790863;-0.866024;-9.090288;3.575896;1.459786;2.242872;-5.366758;1.108415;-0.914771;0.763276;255.0;42.78;9.54;-2.28;256.2141;73.9415;13.8571;0.0;1017.93;63.03485;;;;;;0 / 0;83.8;44.0;3.687;3093;2014-11-17 16:57:29:523
0.459687;-5.286397;0.114922;-1.041128;-8.828876;4.139729;1.500815;3.54248;-4.024807;0.218079;-0.150884;0.561385;253.0;37.32;5.34;0.06;259.729;67.9645;13.614;0.0;1017.93;63.03485;;;;;;0 / 0;83.8;44.0;3.687;3152;2014-11-17 16:57:29:582
-1.35033;-6.617573;1.024718;0.039054;-9.740068;-1.140151;-1.389383;3.122495;2.164869;-1.078483;-0.065973;0.299629;252.0;35.4;4.38;1.08;88.9157;83.3196;-178.0382;0.0;1017.93;63.03485;;;;;;0 / 0;83.8;44.0;3.687;3217;2014-11-17 16:57:29:647
-3.131616;-11.252748;8.858546;-0.28992;-9.801332;-0.142147;-2.841696;-1.451414;9.000694;-1.062295;-0.201891;0.169515;245.0;30.96;2.58;2.7;159.3346;88.1132;116.1185;0.0;1017.87;63.03485;;;;;;0 / 0;83.8;44.0;3.687;3279;2014-11-17 16:57:29:709
-2.03986;-10.697292;6.866571;-0.462822;-9.77411;0.650373;-1.577038;-0.923183;6.216198;-0.282831;-0.996627;0.152716;240.0;28.86;2.34;3.42;159.3346;88.1132;116.1185;0.0;1017.87;63.03485;;;;;;0 / 0;83.8;44.0;3.687;3333;2014-11-17 16:57:29:763
-0.162806;-9.797072;-0.593762;-0.427706;-9.782168;0.544624;0.2649;-0.014904;-1.138386;-0.113926;-1.401325;0.197309;224.0;25.02;1.92;5.04;243.373;85.3311;35.4366;0.0;1017.87;58.40528;;;;;;0 / 0;83.8;44.0;3.687;3394;2014-11-17 16:57:29:824
0.833182;-12.363658;0.134075;-0.249555;-9.792902;0.45512;1.082737;-2.570755;-0.321044;-0.090103;-0.658818;-0.115454;213.0;22.68;2.22;6.3;256.1505;86.9661;28.7372;0.0;1017.93;58.40528;;;;;;0 / 0;83.8;44.0;3.687;3455;2014-11-17 16:57:29:885
6.272809;-6.828263;-2.480393;0.339965;-9.800544;0.064241;5.932844;2.972281;-2.544634;-1.633148;0.351553;-0.095295;208.0;19.68;3.9;8.82;13.4494;87.978;-79.2993;0.0;1017.93;58.40528;;;;;;0 / 0;83.8;44.0;3.687;3519;2014-11-17 16:57:29:949
-2.097321;-11.405976;-0.086191;0.18586;-9.804856;0.025147;-2.28318;-1.60112;-0.111339;-1.470353;-0.134085;-0.536645;205.0;18.9;5.04;10.02;13.4494;87.978;-79.2993;0.0;1017.93;58.40528;;;;;;0 / 0;83.8;44.0;3.687;3569;2014-11-17 16:57:29:999
0.718261;-8.7532;-2.365471;0.191353;-9.803034;-0.185237;0.526908;1.049832;-2.180235;-1.2425;0.378126;0.011912;202.0;18.54;6.54;12.6;22.2534;88.9041;-82.2945;0.0;1017.95;58.40528;;;;;;0 / 0;83.8;44.0;3.687;3645;2014-11-17 16:57:30:075
-1.312023;-9.816226;-0.565032;0.042408;-9.803686;-0.237362;-1.35443;-0.012541;-0.327669;-0.803899;0.886671;0.051924;204.0;18.54;7.08;13.56;115.8718;88.5911;-169.8703;0.0;1017.95;58.40528;;;;;;0 / 0;83.8;44.0;3.687;3705;2014-11-17 16:57:30:135
-1.072602;-9.088388;-1.896208;-0.073272;-9.798812;-0.385109;-0.999331;0.710423;-1.511099;-0.779159;0.692721;-0.032987;208.0;18.24;7.86;15.18;140.0532;87.709;169.2275;0.0;1017.95;60.63799;;;;;;0 / 0;83.8;44.0;3.687;3762;2014-11-17 16:57:30:192
0.277727;-9.873688;-1.13964;-0.019562;-9.794344;-0.490743;0.29729;-0.079344;-0.648897;-0.934624;0.198226;-0.266643;211.0;17.88;8.16;16.26;140.0532;87.709;169.2275;0.0;1017.81;60.63799;;;;;;0 / 0;83.8;44.0;3.687;3814;2014-11-17 16:57:30:244
0.143652;-9.002198;-1.283292;-5.0E-6;-9.789894;-0.573025;0.143657;0.787697;-0.710267;-0.86132;0.202502;-0.185703;209.0;17.1;8.4;18.84;136.5903;87.1293;177.7173;0.0;1017.81;60.63799;;;;;;0 / 0;83.8;44.0;3.687;3875;2014-11-17 16:57:30:305
-0.746991;-9.040504;-2.671929;-0.069751;-9.772814;-0.81093;-0.67724;0.732309;-1.860999;-0.981355;0.502437;-0.228158;211.0;16.44;8.52;20.46;145.209;85.2391;175.0839;0.0;1017.81;60.63799;;;;;;0 / 0;83.8;44.0;3.687;3933;2014-11-17 16:57:30:363
0.21069;-9.89284;-1.292869;-0.032085;-9.767426;-0.875656;0.242775;-0.125416;-0.417213;-0.806953;0.320093;-0.101098;208.0;15.24;9.0;23.34;147.9936;84.8737;177.9016;0.0;1017.85;60.63799;;;;;;0 / 0;83.8;44.0;3.687;4004;2014-11-17 16:57:30:434
0.679953;-10.352528;-2.106897;0.01059;-9.759284;-0.962623;0.669363;-0.593244;-1.144275;-0.663094;0.965167;0.14508;205.0;14.46;10.02;26.94;150.9453;84.3664;-179.3697;0.0;1017.85;60.63799;;;;;;0 / 0;83.8;44.0;3.687;4069;2014-11-17 16:57:30:499
-3.457227;-13.378798;-0.402226;-0.315406;-9.763916;-0.858393;-3.141821;-3.614882;0.456167;0.452346;1.003346;0.394924;212.0;13.56;10.56;29.1;150.9453;84.3664;-179.3697;0.0;1017.85;59.25643;;;;;;0 / 0;83.8;44.0;3.687;4122;2014-11-17 16:57:30:552
1.302446;-11.741164;2.604892;-0.222122;-9.796924;-0.375947;1.524568;-1.944241;2.980838;1.472491;0.338114;0.767858;216.0;12.78;11.58;31.2;187.959;87.4479;149.424;0.0;1017.97;59.25643;;;;;;0 / 0;83.8;44.0;3.687;4179;2014-11-17 16:57:30:609
4.510676;-11.109096;-3.016694;0.207144;-9.793614;-0.461096;4.303532;-1.315481;-2.555598;2.526539;0.185398;0.709825;224.0;11.82;17.28;34.8;135.9007;87.0453;-155.8084;0.0;1017.97;59.25643;;;;;;0 / 0;83.8;44.0;3.687;4242;2014-11-17 16:57:30:672
2.662352;-12.56477;-3.122039;0.437794;-9.773642;-0.674251;2.224558;-2.791127;-2.447788;2.492941;0.853379;0.748005;238.0;14.28;27.12;34.38;121.5915;85.2978;-147.0042;0.0;1017.97;59.25643;;;;;;0 / 0;83.8;44.0;3.687;4309;2014-11-17 16:57:30:739
-1.005565;-10.055646;-2.116474;0.283723;-9.771276;-0.782332;-1.289287;-0.284369;-1.334142;2.270281;-0.079718;0.83322;245.0;16.62;31.56;31.98;121.5915;85.2978;-147.0042;0.0;1017.93;59.25643;;;;;;0 / 0;83.8;44.0;3.687;4364;2014-11-17 16:57:30:794
0.047884;-8.293514;-2.106897;0.246764;-9.757544;-0.948606;-0.19888;1.464029;-1.158292;1.564426;-0.688445;0.891558;245.0;19.14;35.52;28.56;127.2973;84.2637;-165.4186;0.0;1017.93;59.25643;;;;;;0 / 0;83.8;44.0;3.687;4416;2014-11-17 16:57:30:846
0.708684;-7.31668;-0.842759;0.285705;-9.750598;-1.007284;0.422979;2.433918;0.164525;1.30939;-1.024421;0.798401;241.0;25.2;39.9;19.32;103.6889;83.8711;-164.1646;0.0;1017.93;59.25643;;;;;;0 / 0;83.8;44.0;3.687;4471;2014-11-17 16:57:30:901
0.603339;-5.899313;0.593762;-0.136162;-9.797422;-0.402961;0.739501;3.898111;0.996723;0.194561;0.091935;0.57513;238.0;28.02;41.04;15.06;103.6889;83.8711;-164.1646;0.0;1017.96;62.94808;;;;;;0 / 0;83.8;44.0;3.687;4540;2014-11-17 16:57:30:970
-0.71826;-5.956774;0.775721;0.291699;-9.759578;-0.91432;-1.009959;3.802804;1.690041;-0.974635;-0.012523;0.095295;238.0;32.7;41.94;9.96;127.3058;87.5141;161.3297;0.0;1017.96;62.94808;;;;;;0 / 0;83.8;44.0;3.687;4601;2014-11-17 16:57:31:031
-2.336741;-11.779472;10.208876;0.047934;-9.80464;0.192686;-2.384675;-1.974832;10.01619;-0.518625;-0.716239;-0.345139;240.0;33.96;42.54;9.36;300.0195;88.8399;-13.9697;0.0;1017.96;62.94808;;;;;;0 / 0;83.8;44.0;3.687;4655;2014-11-17 16:57:31:085
-0.842759;-10.25676;5.592855;-0.020576;-9.772596;0.816271;-0.822183;-0.484162;4.776584;-0.38454;-1.261131;-0.184176;229.0;35.52;43.86;9.48;300.0195;88.8399;-13.9697;0.0;1017.83;62.94808;;;;;;0 / 0;83.8;44.0;3.687;4705;2014-11-17 16:57:31:135
4.663905;-12.53604;-1.398214;0.40888;-9.78093;0.580188;4.255026;-2.755111;-1.978401;-0.787405;-0.262977;-0.184176;220.0;36.36;44.82;8.94;288.0596;85.2239;1.444;0.0;1017.83;62.94808;;;;;;0 / 0;83.8;44.0;3.687;4762;2014-11-17 16:57:31:192
-1.80044;-7.929596;-3.399766;0.209912;-9.80328;0.148503;-2.010352;1.873685;-3.54827;-0.586431;-0.894001;0.186619;216.0;37.38;46.2;6.84;336.1697;88.4975;-54.7223;0.0;1017.83;62.94808;;;;;;0 / 0;83.8;44.0;3.687;4829;2014-11-17 16:57:31:259
2.652776;-8.63828;-3.313575;0.425549;-9.793636;-0.271979;2.227226;1.155356;-3.041597;-1.038776;0.37446;0.377515;219.0;38.28;46.68;5.64;336.1697;88.4975;-54.7223;0.0;1017.77;61.93714;;;;;;0 / 0;83.8;44.0;3.687;4886;2014-11-17 16:57:31:316
-0.162806;-9.481038;-1.608903;0.425677;-9.788192;-0.424841;-0.588482;0.307153;-1.184062;-1.146594;-0.393703;-0.269086;213.0;39.84;46.92;6.54;39.1465;87.0479;-122.5836;0.0;1017.77;61.93714;;;;;;0 / 0;83.8;44.0;3.687;4942;2014-11-17 16:57:31:372
-0.785298;-9.672574;-1.331176;0.286166;-9.788526;-0.522727;-1.071464;0.115951;-0.808449;-1.133155;0.375071;0.009774;213.0;39.72;47.22;9.9;53.0639;86.484;-134.9437;0.0;1017.77;61.93714;;;;;;0 / 0;83.8;44.0;3.687;5013;2014-11-17 16:57:31:443
-0.842759;-9.366116;-1.264138;0.160483;-9.786964;-0.599956;-1.003242;0.420848;-0.664183;-0.930348;1.028392;0.110261;216.0;39.54;47.52;12.0;87.5498;86.3691;-165.0245;0.0;1017.93;61.93714;;;;;;0 / 0;83.8;44.0;3.687;5083;2014-11-17 16:57:31:513
-0.268151;-9.17458;-1.647211;0.127625;-9.7797;-0.715228;-0.395775;0.605121;-0.931982;-1.066265;0.914771;-0.211054;220.0;40.2;47.76;15.72;96.9525;85.7514;-169.8827;0.0;1017.93;61.93714;;;;;;0 / 0;83.8;44.0;3.687;5139;2014-11-17 16:57:31:569
-1.359906;-9.35654;-1.13964;0.001678;-9.77574;-0.778012;-1.361584;0.419199;-0.361628;-0.980133;0.28222;-0.179289;222.0;40.68;47.64;20.1;111.3468;85.4496;-179.8764;0.0;1017.93;61.93714;;;;;;0 / 0;83.8;44.0;3.687;5202;2014-11-17 16:57:31:632
0.871489;-9.212888;-1.302446;0.078801;-9.770856;-0.833413;0.792688;0.557968;-0.469033;-0.894612;0.114537;-0.170126;216.0;40.62;47.4;22.02;111.3468;85.4496;-179.8764;0.0;1017.86;57.22046;;;;;;0 / 0;83.8;44.0;3.687;5259;2014-11-17 16:57:31:689
-0.6608;-9.011774;-2.614468;0.006079;-9.753852;-1.016219;-0.666879;0.742078;-1.598249;-0.769079;0.68814;-0.12034;215.0;40.14;47.4;23.76;110.8681;85.103;-174.5986;0.0;1017.86;57.22046;;;;;;0 / 0;83.8;44.0;3.687;5311;2014-11-17 16:57:31:741
0.612916;-9.260772;-1.963245;0.066738;-9.741566;-1.125986;0.546178;0.480794;-0.837259;-0.772134;0.786794;-0.057421;211.0;39.96;46.62;26.94;114.6048;83.3952;-176.608;0.0;1017.86;57.22046;;;;;;0 / 0;83.8;44.0;3.687;5365;2014-11-17 16:57:31:795
-1.149217;-12.105082;-0.976834;-0.064703;-9.749574;-1.05453;-1.084514;-2.35551;0.077695;-0.297797;1.02381;0.069333;208.0;39.66;45.96;28.44;114.6048;83.3952;-176.608;0.0;1017.94;57.22046;;;;;;0 / 0;83.8;44.0;3.687;5427;2014-11-17 16:57:31:857
-3.792415;-12.641384;4.041412;-0.461342;-9.783384;-0.49295;-3.331073;-2.858001;4.534363;0.836275;0.838107;0.605062;211.0;39.78;44.4;31.62;125.6881;83.8153;176.4889;0.0;1017.94;57.22046;;;;;;0 / 0;83.8;44.0;3.687;5493;2014-11-17 16:57:31:923
5.027824;-12.210428;-1.522712;0.020028;-9.799972;-0.361271;5.007796;-2.410457;-1.161441;2.549446;-0.024129;0.772745;219.0;41.82;41.76;30.72;170.515;86.0523;136.8971;0.0;1017.94;57.22046;;;;;;0 / 0;83.8;44.0;3.687;5557;2014-11-17 16:57:31:987
3.035848;-13.532028;-3.610456;0.304203;-9.783232;-0.605163;2.731645;-3.748796;-3.005293;2.330451;1.081842;0.770301;229.0;42.9;40.38;28.56;94.2463;86.0396;-153.3123;0.0;1018.0;64.02696;;;;;;0 / 0;83.8;44.0;3.687;5612;2014-11-17 16:57:32:042
-0.114922;-10.802638;-1.944092;0.240027;-9.779798;-0.68432;-0.354949;-1.022839;-1.259772;2.61206;-0.400117;0.863153;249.0;43.92;38.58;23.22;94.9286;85.7591;-160.6715;0.0;1018.0;64.02696;;;;;;0 / 0;83.8;44.0;3.687;5684;2014-11-17 16:57:32:114
-0.076614;-8.293514;-2.260126;0.2173;-9.766978;-0.853976;-0.293915;1.473464;-1.40615;1.915063;-0.780991;0.701579;255.0;44.1;37.56;20.88;94.9286;85.7591;-160.6715;0.0;1018.0;64.02696;;;;;;0 / 0;83.8;44.0;3.687;5741;2014-11-17 16:57:32:171
1.101333;-7.31668;-1.187524;0.296469;-9.754298;-0.967546;0.804864;2.437618;-0.219978;1.243416;-1.043358;0.675922;260.0;43.8;36.12;15.84;95.0806;84.8446;-165.7237;0.0;1017.99;64.02696;;;;;;0 / 0;83.8;44.0;3.687;5796;2014-11-17 16:57:32:226
-0.095768;-6.847417;-0.277727;0.272187;-9.75396;-0.978034;-0.367955;2.906543;0.700307;0.591012;-0.392481;0.650266;258.0;43.62;35.52;13.32;86.254;84.058;-164.4481;0.0;1017.99;64.02696;;;;;;0 / 0;83.8;44.0;3.687;5849;2014-11-17 16:57:32:279
0.047884;-5.746084;0.095768;-0.019899;-9.767382;-0.8765;0.067783;4.021298;0.972268;-0.750753;-0.269697;0.114843;259.0;43.5;35.34;11.76;86.254;84.058;-164.4481;0.0;1017.99;64.02696;;;;;;0 / 0;83.8;44.0;3.687;5915;2014-11-17 16:57:32:345
-0.641646;-8.954314;4.903325;0.221228;-9.79213;-0.485412;-0.862874;0.837817;5.388738;-1.257161;0.021075;0.035125;256.0;43.2;34.86;11.46;101.6296;84.8708;178.6995;0.0;1017.91;64.02696;;;;;;0 / 0;83.8;44.0;3.687;5971;2014-11-17 16:57:32:401
-1.877054;-10.802638;6.138734;0.010113;-9.803374;0.253242;-1.887167;-0.999264;5.885492;-0.36713;-1.067487;0.012523;255.0;42.9;34.8;12.24;78.7075;86.8818;-155.4987;0.0;1017.91;57.63277;;;;;;0 / 0;83.8;44.0;3.687;6037;2014-11-17 16:57:32:467
-0.90022;-9.739612;4.55856;-0.084702;-9.779578;0.723225;-0.815517;0.039966;3.835335;-0.253204;-1.074817;0.089492;248.0;42.66;34.98;15.12;285.6673;85.7417;6.6799;0.0;1017.91;57.63277;;;;;;0 / 0;83.8;44.0;3.687;6092;2014-11-17 16:57:32:522
1.599327;-18.195932;4.884172;-0.014096;-9.792624;0.524114;1.613423;-8.403308;4.360058;-0.809091;-0.760833;-0.347277;235.0;42.0;35.58;15.12;290.4074;86.9353;1.5406;0.0;1017.94;57.63277;;;;;;0 / 0;83.8;44.0;3.687;6162;2014-11-17 16:57:32:592
-0.842759;-4.213795;-8.571242;-0.009285;-9.804986;0.180442;-0.833474;5.591192;-8.751684;-0.800539;-0.691194;0.248622;227.0;41.34;36.42;15.18;290.4074;86.9353;1.5406;0.0;1017.94;57.63277;;;;;;0 / 0;83.8;44.0;3.687;6217;2014-11-17 16:57:32:647
1.312023;-11.109096;-0.6608;0.118699;-9.80559;-0.081927;1.193324;-1.303505;-0.578873;-1.365589;-0.017715;-0.485943;227.0;40.38;38.22;17.22;289.7062;88.9441;2.9458;0.0;1017.94;57.63277;;;;;;0 / 0;83.8;44.0;3.687;6281;2014-11-17 16:57:32:711
-1.187524;-9.088388;-1.867477;0.023954;-9.804748;-0.191655;-1.211478;0.71636;-1.675822;-0.912633;-0.399811;-0.125838;216.0;40.14;38.88;18.9;107.3315;88.8717;-172.8758;0.0;1017.9;57.63277;;;;;;0 / 0;83.8;44.0;3.687;6343;2014-11-17 16:57:32:773
-0.009577;-9.959878;-0.220267;0.005528;-9.80404;-0.226252;-0.015105;-0.155839;0.005986;-1.108415;-0.119424;-0.116675;208.0;39.54;39.9;22.68;117.4757;88.6775;-178.6003;0.0;1017.9;60.9869;;;;;;0 / 0;83.8;44.0;3.687;6400;2014-11-17 16:57:32:830
-0.584185;-9.20331;-0.373495;-0.054219;-9.803502;-0.242453;-0.529966;0.600191;-0.131042;-0.839634;0.677144;-0.060476;211.0;38.4;39.96;24.84;117.4757;88.6775;-178.6003;0.0;1017.9;60.9869;;;;;;0 / 0;83.8;44.0;3.687;6454;2014-11-17 16:57:32:884
-1.120486;-9.452308;-1.82917;-0.151525;-9.797956;-0.384012;-0.968961;0.345648;-1.445158;-0.705855;-0.08491;-0.198226;211.0;37.02;40.2;28.98;137.1437;88.5483;167.3946;0.0;1017.87;60.9869;;;;;;0 / 0;83.8;44.0;3.687;6523;2014-11-17 16:57:32:953
0.90022;-9.030928;-2.049437;-0.043871;-9.790728;-0.556872;0.944091;0.759799;-1.492564;-0.612392;-0.316123;-0.147219;205.0;36.24;40.08;30.96;133.1844;86.7346;175.4955;0.0;1017.87;60.9869;;;;;;0 / 0;83.8;44.0;3.687;6588;2014-11-17 16:57:33:018
0.976834;-9.069236;-1.340753;0.061704;-9.783604;-0.669093;0.91513;0.714369;-0.67166;-0.898277;0.363159;-0.23671;200.0;34.98;40.02;34.38;126.2359;86.0712;-174.7311;0.0;1017.87;60.9869;;;;;;0 / 0;83.8;44.0;3.687;6654;2014-11-17 16:57:33:084
-0.526724;-9.615114;-1.206678;-0.115469;-9.771414;-0.822503;-0.411255;0.156301;-0.384175;-0.630107;0.483805;-0.204334;197.0;33.84;39.72;38.64;139.5976;85.2905;176.8639;0.0;1017.86;60.9869;;;;;;0 / 0;83.8;44.0;3.687;6725;2014-11-17 16:57:33:155
-0.526724;-9.615114;-1.206678;-0.115469;-9.771414;-0.822503;-0.411255;0.156301;-0.384175;-0.157298;0.484111;0.118813;194.0;32.7;39.78;40.56;139.5976;85.2905;176.8639;0.0;1017.86;58.62924;;;;;;0 / 0;83.8;44.0;3.687;6777;2014-11-17 16:57:33:207
-2.317587;-11.329362;1.465252;-0.349225;-9.785218;-0.545859;-1.968362;-1.544145;2.011111;0.191506;0.344528;0.205862;194.0;32.04;39.66;42.6;175.7344;86.2111;147.3901;0.0;1017.86;58.62924;;;;;;0 / 0;83.8;44.0;3.687;6828;2014-11-17 16:57:33:258
3.907337;-13.694834;1.848324;0.030706;-9.805282;-0.161039;3.876632;-3.889552;2.009363;2.526844;-0.186619;0.428827;201.0;31.02;40.68;44.64;134.1224;89.042;-169.2049;0.0;1017.93;58.62924;;;;;;0 / 0;83.8;44.0;3.687;6894;2014-11-17 16:57:33:324
3.878607;-12.852074;-4.070143;0.403325;-9.791284;-0.372094;3.475282;-3.06079;-3.698049;2.611449;0.874148;0.722348;202.0;31.62;42.36;44.22;134.1224;89.042;-169.2049;0.0;1017.93;58.62924;;;;;;0 / 0;83.8;44.0;3.687;6952;2014-11-17 16:57:33:382
1.168371;-13.503298;-3.409343;0.433282;-9.776748;-0.630729;0.735089;-3.726549;-2.778614;2.456289;0.40592;0.814589;241.0;32.46;48.54;39.9;105.1771;85.5246;-145.5127;0.0;1017.93;58.62924;;;;;;0 / 0;83.8;44.0;3.687;7020;2014-11-17 16:57:33:450
0.641646;-8.781932;-1.197101;0.423314;-9.774742;-0.667513;0.218332;0.992811;-0.529588;2.140472;-0.253509;0.848492;244.0;32.64;51.6;36.48;100.215;85.3769;-147.6185;0.0;1017.94;58.62924;;;;;;0 / 0;83.8;44.0;3.687;7073;2014-11-17 16:57:33:503
2.011129;-6.512228;-1.934515;0.605609;-9.74824;-0.880586;1.40552;3.236012;-1.053929;1.367117;-0.885755;0.46273;227.0;35.04;56.94;27.36;85.063;83.7435;-145.4824;0.0;1017.94;61.94266;;;;;;0 / 0;83.8;44.0;3.687;7125;2014-11-17 16:57:33:555
2.106898;-8.015787;-1.82917;0.780936;-9.718492;-1.054234;1.325962;1.702706;-0.774936;0.169821;0.068722;0.357967;222.0;36.3;58.44;22.92;85.063;83.7435;-145.4824;0.0;1017.94;61.94266;;;;;;0 / 0;83.8;44.0;3.687;7189;2014-11-17 16:57:33:619
-0.296881;-5.123591;-1.570596;0.637336;-9.735386;-0.993228;-0.934217;4.611795;-0.577369;-0.839329;0.184481;0.186314;216.0;37.92;59.76;18.72;76.2968;83.0883;-147.3125;0.0;1017.98;61.94266;;;;;;0 / 0;83.8;44.0;3.687;7248;2014-11-17 16:57:33:678
-0.354342;-9.030928;2.442086;0.646114;-9.738834;-0.952897;-1.000456;0.707906;3.394983;-1.158811;-0.745866;-0.283136;219.0;37.98;59.64;18.9;73.3371;83.258;-145.8607;0.0;1017.98;61.94266;;;;;;0 / 0;83.8;44.0;3.687;7311;2014-11-17 16:57:33:741
-0.861913;-16.46253;6.473922;0.458783;-9.794308;-0.177355;-1.320695;-6.668222;6.651277;-0.210443;-0.45204;0.129809;211.0;38.28;59.28;20.46;73.3371;83.258;-145.8607;0.0;1017.98;61.94266;;;;;;0 / 0;83.8;44.0;3.687;7361;2014-11-17 16:57:33:791
0.526724;-6.971915;1.608904;0.482208;-9.794702;0.041066;0.044516;2.822786;1.567838;0.033292;-0.389121;0.062614;205.0;38.7;58.98;23.16;47.791;87.125;-111.1354;0.0;1017.9;61.94266;;;;;;0 / 0;83.8;44.0;3.687;7419;2014-11-17 16:57:33:849
-2.681506;-9.911994;0.258574;0.161317;-9.805004;0.079072;-2.842823;-0.10699;0.179502;-0.284663;-0.124006;-0.100487;202.0;39.24;58.8;23.88;5.3694;88.9502;-63.8876;0.0;1017.9;58.06497;;;;;;0 / 0;83.8;44.0;3.687;7476;2014-11-17 16:57:33:906
1.091756;-10.160992;2.509123;0.230686;-9.79918;0.305379;0.86107;-0.361812;2.203744;-0.257174;-0.122173;0.276111;195.0;39.0;59.28;25.14;340.6583;87.7635;-37.0677;0.0;1017.9;58.06497;;;;;;0 / 0;83.8;44.0;3.687;7535;2014-11-17 16:57:33:965
0.076614;-9.490616;1.56102;0.236396;-9.793368;0.452166;-0.159782;0.302753;1.108853;-0.17318;-0.128282;-0.020464;189.0;39.42;59.1;25.62;340.6583;87.7635;-37.0677;0.0;1017.92;58.06497;;;;;;0 / 0;83.8;44.0;3.687;7605;2014-11-17 16:57:34:035
-1.359906;-9.643844;1.867477;0.075628;-9.789132;0.581001;-1.435535;0.145288;1.286477;-0.199753;0.086437;0.036041;180.0;39.66;58.92;26.28;332.9659;87.0176;-27.6009;0.0;1017.92;58.06497;;;;;;0 / 0;83.8;44.0;3.687;7662;2014-11-17 16:57:34:092
-0.134075;-9.816226;1.695095;0.046887;-9.78147;0.700741;-0.180963;-0.034756;0.994354;-0.004887;-0.235183;0.118508;178.0;39.9;58.56;26.64;311.5373;85.8933;-3.828;0.0;1017.92;58.06497;;;;;;0 / 0;83.8;44.0;3.687;7720;2014-11-17 16:57:34:150
0.459687;-9.959878;1.436521;0.088935;-9.775252;0.779038;0.370752;-0.184626;0.657483;-0.061087;-0.128282;0.100793;169.0;39.96;58.98;26.76;314.4482;85.414;-6.5127;0.0;1017.97;58.06497;;;;;;0 / 0;83.8;44.0;3.687;7788;2014-11-17 16:57:34:218
0.143652;-9.682152;1.302446;0.094344;-9.770878;0.831531;0.049308;0.088726;0.470915;-0.002443;0.030543;0.034208;175.0;39.84;59.34;26.4;313.7713;85.1046;-6.473;0.0;1017.97;63.56479;;;;;;0 / 0;83.8;44.0;3.687;7851;2014-11-17 16:57:34:281
0.02873;-9.730036;1.244985;0.09347;-9.767514;0.870245;-0.064739;0.037478;0.37474;-0.058643;0.034208;0.061392;172.0;39.96;59.64;26.94;313.7713;85.1046;-6.473;0.0;1017.97;63.56479;;;;;;0 / 0;83.8;44.0;3.687;7915;2014-11-17 16:57:34:345
-0.622492;-9.758766;1.283292;0.045353;-9.758922;0.965274;-0.667846;1.56E-4;0.318018;-0.04612;0.058032;0.006109;172.0;40.2;59.88;27.36;315.6683;84.539;-7.026;0.0;1017.95;63.56479;;;;;;0 / 0;83.8;44.0;3.687;7985;2014-11-17 16:57:34:415
-0.622492;-9.758766;1.283292;0.045353;-9.758922;0.965274;-0.667846;1.56E-4;0.318018;-0.06017;0.011912;0.033292;173.0;40.2;59.7;27.66;311.8229;84.3449;-2.6901;0.0;1017.95;63.56479;;;;;;0 / 0;83.8;44.0;3.687;8039;2014-11-17 16:57:34:469
0.095768;-9.902418;1.56102;0.094107;-9.751366;1.035568;0.001661;-0.151052;0.525451;-0.034208;-0.061392;0.01405;175.0;39.66;59.34;27.66;314.8932;84.2614;-5.1225;0.0;1017.95;63.56479;;;;;;0 / 0;83.8;44.0;3.687;8111;2014-11-17 16:57:34:541
0.105345;-9.950302;2.403779;0.089335;-9.737562;1.15856;0.01601;-0.212739;1.245218;-0.124617;0.053756;0.061697;178.0;39.48;59.4;27.9;315.922;83.9133;-5.1925;0.0;1017.93;63.56479;;;;;;0 / 0;83.8;44.0;3.687;8171;2014-11-17 16:57:34:601
0.105345;-9.950302;2.403779;0.089335;-9.737562;1.15856;0.01601;-0.212739;1.245218;-0.034819;-0.020464;0.072082;176.0;39.42;59.58;27.84;315.922;83.9133;-5.1925;0.0;1017.93;63.89153;;;;;;0 / 0;83.8;44.0;3.687;8221;2014-11-17 16:57:34:651
0.21069;-9.883264;1.714248;0.106693;-9.729478;1.223206;0.103997;-0.153786;0.491042;0.06689;0.073609;0.054978;175.0;39.42;59.34;28.08;316.6272;82.8073;-4.9849;0.0;1017.93;63.89153;;;;;;0 / 0;83.8;44.0;3.687;8275;2014-11-17 16:57:34:705