sep=;
ACCELEROMETER X (m/s²);ACCELEROMETER Y (m/s²);ACCELEROMETER Z (m/s²);GRAVITY X (m/s²);GRAVITY Y (m/s²);GRAVITY Z (m/s²);LINEAR ACCELERATION X (m/s²);LINEAR ACCELERATION Y (m/s²);LINEAR ACCELERATION Z (m/s²);GYROSCOPE X (rad/s);GYROSCOPE Y (rad/s);GYROSCOPE Z (rad/s);LIGHT (lux);MAGNETIC FIELD X (μT);MAGNETIC FIELD Y (μT);MAGNETIC FIELD Z (μT);ORIENTATION X (°);ORIENTATION Y (°);ORIENTATION Z (°);PROXIMITY (i);ATMOSPHERIC PRESSURE (hPa);SOUND LEVEL (dB);LOCATION Latitude : ;LOCATION Longitude : ;LOCATION Altitude ( m);LOCATION Speed ( Kmh);LOCATION Accuracy ( m);Satellites in range;Temperature (F);Level (%);Voltage (Volt);Time since start in ms ;YYYY-MO-DD HH-MI-SS_SSS
0.124498;-9.758766;1.838747;0.617346;-9.717792;1.163514;-0.492848;-0.040973;0.675233;-0.276722;0.149967;-0.107207;224.0;26.04;34.98;2.34;306.2331;81.8985;-23.275;0.0;1017.78;41.04321;;;;;;0 / 0;85.8;45.0;3.704;39;2014-11-17 16:55:30:636
-0.565032;-9.911994;2.873042;0.666111;-9.716434;1.147871;-1.231142;-0.195561;1.725171;-0.073304;0.05284;-0.100182;224.0;25.56;35.16;2.7;313.9646;82.2222;-30.1266;0.0;1017.78;41.04321;;;;;;0 / 0;85.8;45.0;3.704;106;2014-11-17 16:55:30:703
-1.359906;-10.55364;4.213795;0.685587;-9.705554;1.225793;-2.045493;-0.848087;2.988002;0.024435;0.138361;-0.015272;224.0;25.44;35.34;3.12;313.9646;82.2222;-30.1266;0.0;1017.78;41.04321;;;;;;0 / 0;85.8;45.0;3.704;160;2014-11-17 16:55:30:757
1.426944;-10.371682;1.934515;0.54146;-9.660904;1.595033;0.885484;-0.710778;0.339482;0.846965;0.314901;0.38454;230.0;25.92;36.0;3.6;315.591;81.7659;-29.2183;0.0;1017.75;41.04321;;;;;;0 / 0;85.8;45.0;3.704;233;2014-11-17 16:55:30:830
1.101333;-10.649408;1.982399;0.345354;-9.586186;2.038662;0.755979;-1.063222;-0.056263;0.684169;0.246484;0.3992;237.0;25.98;35.94;3.66;307.8742;80.1096;-18.7506;0.0;1017.75;41.04321;;;;;;0 / 0;85.8;45.0;3.704;294;2014-11-17 16:55:30:891
0.785298;-8.7532;0.881066;0.225607;-9.49072;2.458808;0.559691;0.737518;-1.577741;0.559247;-0.316123;0.280082;235.0;26.52;36.12;3.3;307.8742;80.1096;-18.7506;0.0;1017.77;52.04639;;;;;;0 / 0;85.8;45.0;3.704;356;2014-11-17 16:55:30:953
-0.047884;-9.299078;1.771709;0.102686;-9.434798;2.672904;-0.15057;0.135719;-0.901195;0.197615;0.200669;0.258701;238.0;26.82;35.64;2.7;298.3222;75.417;-5.2425;0.0;1017.77;52.04639;;;;;;0 / 0;85.8;45.0;3.704;425;2014-11-17 16:55:31:022
-0.584185;-8.619126;1.695095;0.006252;-9.405762;2.775246;-0.590437;0.786635;-1.080151;0.115759;-0.174707;0.232129;230.0;27.6;36.24;2.58;295.3387;74.1713;-2.2001;0.0;1017.77;52.04639;;;;;;0 / 0;85.8;45.0;3.704;495;2014-11-17 16:55:31:092
0.153229;-7.833828;2.059013;-0.056146;-9.389502;2.829212;0.209375;1.555676;-0.770199;-0.073304;-0.098655;0.21197;235.0;27.78;36.66;2.58;294.8903;73.2285;1.1369;0.0;1017.76;52.04639;;;;;;0 / 0;85.8;45.0;3.704;554;2014-11-17 16:55:31:151
0.095768;-8.283937;2.049437;-0.054078;-9.418768;2.730254;0.149846;1.134831;-0.680817;-0.42333;-0.336892;0.016188;230.0;28.26;37.38;2.7;294.2738;73.8315;1.1347;0.0;1017.76;52.04639;;;;;;0 / 0;85.8;45.0;3.704;615;2014-11-17 16:55:31:212
0.057461;-8.820238;2.25055;0.034926;-9.483572;2.496201;0.022534;0.663333;-0.245652;-0.494495;-0.281914;-0.052229;224.0;28.38;37.5;2.82;294.2738;73.8315;1.1347;0.0;1017.76;52.04639;;;;;;0 / 0;85.8;45.0;3.704;670;2014-11-17 16:55:31:267
0.555455;-10.01734;3.361459;0.136493;-9.551894;2.216548;0.418962;-0.465446;1.144912;-0.576657;-0.257174;0.132252;216.0;28.26;38.46;4.08;296.4823;75.2521;-0.8016;0.0;1017.75;48.74892;;;;;;0 / 0;85.8;45.0;3.704;727;2014-11-17 16:55:31:324
-0.248997;-8.791508;2.671929;0.144578;-9.6134;1.931849;-0.393575;0.821892;0.74008;-0.41325;-0.285885;0.046426;209.0;27.84;38.7;4.92;297.988;78.6066;-4.28;0.0;1017.75;48.74892;;;;;;0 / 0;85.8;45.0;3.704;782;2014-11-17 16:55:31:379
2.767697;-13.570334;1.522712;0.256898;-9.663414;1.650091;2.510799;-3.90692;-0.127378;-0.557415;-0.147829;-0.013439;209.0;26.82;39.9;6.48;303.0321;80.1953;-8.8492;0.0;1017.75;48.74892;;;;;;0 / 0;85.8;45.0;3.704;841;2014-11-17 16:55:31:438
-2.75812;-9.739612;-2.480393;0.361207;-9.70824;1.337903;-3.119327;-0.031371;-3.818296;-0.099266;-1.168585;0.216552;202.0;26.46;40.74;7.32;303.0321;80.1953;-8.8492;0.0;1017.72;48.74892;;;;;;0 / 0;85.8;45.0;3.704;910;2014-11-17 16:55:31:507
5.305551;-6.828263;-3.332729;0.281088;-9.74689;1.043791;5.024464;2.918627;-4.37652;-0.844521;0.636827;0.089797;200.0;26.76;42.3;9.24;311.3979;81.8762;-15.1085;0.0;1017.72;48.74892;;;;;;0 / 0;85.8;45.0;3.704;968;2014-11-17 16:55:31:565
-1.024718;-11.45386;-0.296881;0.317628;-9.793684;0.39149;-1.342346;-1.660177;-0.688371;-0.941038;0.448375;-0.15516;200.0;27.24;42.96;10.62;333.1522;87.0532;-39.0535;0.0;1017.72;48.74892;;;;;;0 / 0;85.8;45.0;3.704;1023;2014-11-17 16:55:31:620
-0.90022;-8.858546;-2.394202;0.437745;-9.794574;-0.212338;-1.337965;0.936029;-2.181863;-0.798401;-0.284663;-0.183565;200.0;27.48;43.62;12.42;333.1522;87.0532;-39.0535;0.0;1017.75;60.79657;;;;;;0 / 0;85.8;45.0;3.704;1079;2014-11-17 16:55:31:676
0.277727;-10.419566;-0.593762;0.532744;-9.77004;-0.657944;-0.255016;-0.649527;0.064182;-0.54367;-0.306654;-0.059865;194.0;26.7;44.4;16.02;50.1577;87.1563;-115.8767;0.0;1017.75;60.79657;;;;;;0 / 0;85.8;45.0;3.704;1153;2014-11-17 16:55:31:750
-0.086191;-9.346964;-0.651223;0.524724;-9.745746;-0.956806;-0.610915;0.398782;0.305583;-0.308792;0.195171;0.109039;197.0;25.92;44.88;19.2;78.7924;85.0476;-141.0025;0.0;1017.75;60.79657;;;;;;0 / 0;85.8;45.0;3.704;1226;2014-11-17 16:55:31:823
0.612916;-9.279924;-1.810016;0.495005;-9.67551;-1.519822;0.117911;0.395586;-0.290194;-0.600786;-0.068722;0.014966;197.0;26.16;45.3;21.24;95.8207;82.2869;-158.9559;0.0;1017.74;60.79657;;;;;;0 / 0;85.8;45.0;3.704;1305;2014-11-17 16:55:31:902
0.584185;-9.059658;-2.154781;0.639363;-9.592896;-1.93338;-0.055178;0.533237;-0.221402;-0.637438;-0.101404;-0.230602;191.0;26.52;45.96;22.32;98.5627;80.6194;-161.9596;0.0;1017.74;60.79657;;;;;;0 / 0;85.8;45.0;3.704;1371;2014-11-17 16:55:31:968
-1.331176;-9.509768;-1.656788;0.750532;-9.493546;-2.34087;-2.081708;-0.016224;0.684083;-0.801761;0.193033;-0.208;194.0;26.22;46.5;24.6;96.3069;75.4828;-162.223;0.0;1017.7;60.79657;;;;;;0 / 0;85.8;45.0;3.704;1436;2014-11-17 16:55:32:033
1.11091;-9.682152;-2.662352;0.869492;-9.378676;-2.73035;0.241417;-0.303475;0.067997;-0.693027;0.461203;0.063225;194.0;25.74;46.92;26.04;96.3069;75.4828;-162.223;0.0;1017.7;53.59085;;;;;;0 / 0;85.8;45.0;3.704;1493;2014-11-17 16:55:32:090
-0.402226;-10.94629;0.679953;0.970089;-9.30194;-2.950123;-1.372315;-1.64435;3.630076;-0.259923;1.164615;0.270308;197.0;24.78;47.7;29.52;97.9747;73.0106;-162.3357;0.0;1017.7;53.59085;;;;;;0 / 0;85.8;45.0;3.704;1560;2014-11-17 16:55:32:157
-2.317587;-12.727576;1.015142;0.95168;-9.39773;-2.635793;-3.269267;-3.329846;3.650935;1.065654;0.807258;0.36041;205.0;24.78;48.84;31.8;99.8185;71.538;-161.7976;0.0;1017.7;53.59085;;;;;;0 / 0;85.8;45.0;3.704;1626;2014-11-17 16:55:32:223
4.204219;-10.10353;-0.363919;0.872651;-9.61072;-1.744406;3.331568;-0.492811;1.380487;2.303573;0.01405;0.687223;205.0;25.56;50.1;30.96;98.919;78.5276;-153.4232;0.0;1017.7;53.59085;;;;;;0 / 0;85.8;45.0;3.704;1683;2014-11-17 16:55:32:280
3.15077;-12.306196;-3.878607;0.652694;-9.771748;-0.507231;2.498075;-2.534448;-3.371376;1.950187;0.93157;0.573908;209.0;30.12;53.94;24.36;70.1583;85.1647;-127.852;0.0;1017.7;53.59085;;;;;;0 / 0;85.8;45.0;3.704;1749;2014-11-17 16:55:32:346
0.258574;-11.051634;-1.541866;0.34072;-9.779794;0.640258;-0.082146;-1.271841;-2.182124;1.939192;0.201891;0.752891;223.0;32.94;55.2;19.5;70.1583;85.1647;-127.852;0.0;1017.77;53.59085;;;;;;0 / 0;85.8;45.0;3.704;1809;2014-11-17 16:55:32:406
1.426944;-8.801084;-1.781286;-0.073929;-9.660378;1.685825;1.500873;0.859294;-3.467111;1.742799;-0.135612;0.766941;224.0;39.36;55.38;8.82;322.3408;85.7587;-28.0201;0.0;1017.77;62.29502;;;;;;0 / 0;85.8;45.0;3.704;1868;2014-11-17 16:55:32:465
0.967258;-8.599972;-0.181959;-0.359759;-9.473532;2.508615;1.327016;0.873559;-2.690574;1.142013;-0.327118;0.631635;230.0;42.36;53.88;3.84;285.9197;75.0234;8.1611;0.0;1017.77;62.29502;;;;;;0 / 0;85.8;45.0;3.704;1924;2014-11-17 16:55:32:521
0.392649;-6.856993;0.497994;-0.574499;-9.28443;3.10478;0.967148;2.427438;-2.606786;0.481056;0.274584;0.424246;229.0;46.5;50.1;-3.72;275.3736;71.2177;10.4833;0.0;1017.88;62.29502;;;;;;0 / 0;85.8;45.0;3.704;1991;2014-11-17 16:55:32:588
-0.775721;-7.000645;2.030283;-0.800483;-9.199244;3.302045;0.024762;2.1986;-1.271762;-0.125838;0.482278;0.200975;235.0;48.12;48.3;-6.18;275.3736;71.2177;10.4833;0.0;1017.88;62.29502;;;;;;0 / 0;85.8;45.0;3.704;2059;2014-11-17 16:55:32:656
-0.612916;-8.140285;4.252103;-0.90395;-9.26579;3.081949;0.291034;1.125505;1.170153;-0.748004;0.040317;-0.039706;235.0;50.28;46.8;-7.68;268.845;69.7286;13.6268;0.0;1017.88;62.29502;;;;;;0 / 0;85.8;45.0;3.704;2112;2014-11-17 16:55:32:709
-1.838747;-10.429142;6.234502;-0.854016;-9.352262;2.824226;-0.984731;-1.07688;3.410276;-0.263894;-0.618196;-0.062614;229.0;51.3;46.8;-7.2;262.2995;72.4902;16.8248;0.0;1017.76;62.29502;;;;;;0 / 0;85.8;45.0;3.704;2171;2014-11-17 16:55:32:768
-0.459687;-8.887276;4.338294;-0.649055;-9.370434;2.818524;0.189368;0.483158;1.51977;-0.095295;-1.143234;-0.116675;219.0;51.36;46.74;-8.58;263.474;72.8466;12.9681;0.0;1017.76;55.82781;;;;;;0 / 0;85.8;45.0;3.704;2226;2014-11-17 16:55:32:823
4.012682;-8.149862;-7.364564;-0.264474;-9.451904;2.600379;4.277156;1.302042;-9.964942;-0.235794;-0.718377;-0.044593;213.0;51.18;46.08;-10.38;263.474;72.8466;12.9681;0.0;1017.76;55.82781;;;;;;0 / 0;85.8;45.0;3.704;2292;2014-11-17 16:55:32:889
-6.004657;-13.263878;-1.225831;-0.113908;-9.611248;1.944566;-5.890749;-3.65263;-3.170397;-0.909578;-1.472185;0.345444;205.0;51.18;45.54;-13.14;265.1298;74.542;5.8074;0.0;1017.71;55.82781;;;;;;0 / 0;85.8;45.0;3.704;2370;2014-11-17 16:55:32:967
5.363012;-5.985504;-2.54743;-0.118995;-9.710602;1.363994;5.482007;3.725098;-3.911425;-1.209513;0.876286;-0.196699;202.0;51.6;45.3;-13.44;257.7349;81.9743;4.9859;0.0;1017.71;55.82781;;;;;;0 / 0;85.8;45.0;3.704;2420;2014-11-17 16:55:33:017
-2.96881;-11.310208;0.402226;-0.08628;-9.786134;0.628124;-2.88253;-1.524075;-0.225898;-1.156673;0.204029;-0.338419;205.0;52.02;45.54;-11.46;253.3464;86.2931;7.8213;0.0;1017.71;55.82781;;;;;;0 / 0;85.8;45.0;3.704;2470;2014-11-17 16:55:33:067
0.181959;-9.394848;-1.781286;0.011082;-9.806284;0.083971;0.170877;0.411436;-1.865257;-0.728762;-0.237016;0.022297;200.0;51.96;45.6;-11.16;253.3464;86.2931;7.8213;0.0;1017.75;55.82781;;;;;;0 / 0;85.8;45.0;3.704;2552;2014-11-17 16:55:33:149
0.181959;-9.394848;-1.781286;0.011082;-9.806284;0.083971;0.170877;0.411436;-1.865257;-0.770606;0.294743;0.047647;200.0;52.08;46.62;-8.52;268.1395;89.5047;-7.5183;0.0;1017.75;62.54077;;;;;;0 / 0;85.8;45.0;3.704;2611;2014-11-17 16:55:33:208
0.047884;-9.184156;-2.03986;0.180262;-9.732348;-1.191321;-0.132378;0.548192;-0.848539;-0.577573;0.122478;-0.054978;195.0;51.78;46.86;-6.78;69.8466;85.2583;-171.448;0.0;1017.75;62.54077;;;;;;0 / 0;85.8;45.0;3.704;2683;2014-11-17 16:55:33:280
0.047884;-9.184156;-2.03986;0.180262;-9.732348;-1.191321;-0.132378;0.548192;-0.848539;-0.832915;-0.072082;-0.154243;194.0;51.96;47.04;-6.24;69.8466;85.2583;-171.448;0.0;1017.75;62.54077;;;;;;0 / 0;85.8;45.0;3.704;2733;2014-11-17 16:55:33:330
0.574608;-9.337386;-0.967257;0.310746;-9.657326;-1.676275;0.263863;0.319939;0.709017;-0.971276;-0.170431;-0.212581;194.0;51.9;47.22;-5.58;65.0165;79.9886;-169.4978;0.0;1017.75;62.54077;;;;;;0 / 0;85.8;45.0;3.704;2783;2014-11-17 16:55:33:380
-0.507571;-9.691728;-0.555455;0.607621;-9.43322;-2.610665;-1.115191;-0.258509;2.055211;-0.822225;0.109345;-0.224188;191.0;51.96;47.94;-4.56;62.4941;76.826;-168.2884;0.0;1017.75;62.54077;;;;;;0 / 0;85.8;45.0;3.704;2856;2014-11-17 16:55:33:453
1.13964;-8.72447;-4.577713;0.666169;-9.33783;-2.920883;0.473471;0.613359;-1.65683;-0.475253;0.439823;0.106901;190.0;51.3;48.42;-3.0;61.0946;74.1375;-166.8979;0.0;1017.72;62.54077;;;;;;0 / 0;85.8;45.0;3.704;2927;2014-11-17 16:55:33:524
-1.091756;-10.745176;-0.976834;0.789821;-9.215474;-3.259082;-1.881577;-1.529702;2.282248;-0.899194;0.648128;-0.07422;191.0;50.88;47.58;-2.04;58.9749;70.004;-166.3773;0.0;1017.72;54.01479;;;;;;0 / 0;85.8;45.0;3.704;2996;2014-11-17 16:55:33:593
-3.141193;-13.713986;-1.532289;0.930696;-9.149952;-3.403322;-4.071889;-4.564034;1.871033;0.087965;0.641714;-0.016493;193.0;51.48;45.9;-1.26;58.4849;68.913;-164.7054;0.0;1017.77;54.01479;;;;;;0 / 0;85.8;45.0;3.704;3061;2014-11-17 16:55:33:658
3.524265;-10.065224;2.537854;0.957532;-9.296686;-2.970716;2.566733;-0.768537;5.50857;1.332603;-0.009774;0.670119;197.0;51.96;43.14;-1.74;58.4849;68.913;-164.7054;0.0;1017.77;54.01479;;;;;;0 / 0;85.8;45.0;3.704;3113;2014-11-17 16:55:33:710
3.983952;-10.362104;-2.662352;0.710277;-9.593966;-1.903072;3.273674;-0.768138;-0.75928;2.249817;0.725097;0.395535;200.0;51.78;39.84;-3.06;57.8225;71.4413;-162.1346;0.0;1017.77;54.01479;;;;;;0 / 0;85.8;45.0;3.704;3184;2014-11-17 16:55:33:781
1.752556;-12.181698;-3.466804;0.591674;-9.763358;-0.705104;1.160882;-2.41834;-2.7617;1.927585;0.666759;0.642325;216.0;50.82;29.46;-6.96;40.3434;84.6143;-139.999;0.0;1017.75;54.01479;;;;;;0 / 0;85.8;45.0;3.704;3246;2014-11-17 16:55:33:843
0.047884;-9.797072;-1.896208;0.272112;-9.794302;0.409867;-0.224228;-0.00277;-2.306074;1.954769;0.262367;0.650266;223.0;49.74;24.06;-6.84;40.3434;84.6143;-139.999;0.0;1017.75;61.59986;;;;;;0 / 0;85.8;45.0;3.704;3306;2014-11-17 16:55:33:903
1.254562;-8.619126;-1.896208;-0.074361;-9.706668;1.394803;1.328923;1.087542;-3.29101;1.538464;-0.371101;0.666759;224.0;46.74;14.7;-4.62;297.5515;87.1244;-33.5803;0.0;1017.75;61.59986;;;;;;0 / 0;85.8;45.0;3.667;3371;2014-11-17 16:55:33:968
0.737414;-7.489063;-0.584185;-0.323697;-9.559662;2.162979;1.061111;2.070599;-2.747164;0.991129;-0.385761;0.598648;224.0;44.52;11.58;-3.36;265.3687;81.8114;3.0517;0.0;1017.82;61.59986;;;;;;0 / 0;85.8;45.0;3.667;3423;2014-11-17 16:55:34:020
-0.057461;-6.847417;0.986411;-0.585743;-9.433616;2.614232;0.528282;2.586199;-1.627821;0.427911;0.167377;0.545503;224.0;40.5;7.38;-1.68;257.7547;74.146;12.6291;0.0;1017.82;61.59986;;;;;;0 / 0;85.8;45.0;3.667;3482;2014-11-17 16:55:34:079
-0.191536;-7.479486;1.848324;-0.826406;-9.427464;2.571064;0.63487;1.947978;-0.72274;-0.480445;0.105985;0.229991;224.0;38.04;4.98;0.6;256.3106;74.015;17.8187;0.0;1017.82;61.59986;;;;;;0 / 0;85.8;45.0;3.667;3561;2014-11-17 16:55:34:158
-1.666364;-9.950302;5.363012;-0.857095;-9.493756;2.303123;-0.809269;-0.456546;3.059889;-0.349109;-0.622472;-0.004581;224.0;36.42;4.38;1.68;256.3106;74.015;17.8187;0.0;1017.8;61.59986;;;;;;0 / 0;85.8;45.0;3.667;3615;2014-11-17 16:55:34:212
-0.134075;-9.414;4.31914;-0.75932;-9.516736;2.24178;0.625245;0.102735;2.07736;-0.259007;-0.39187;0.16249;216.0;33.12;3.0;3.24;256.1521;75.4877;20.4125;0.0;1017.8;61.59986;;;;;;0 / 0;85.8;45.0;3.667;3686;2014-11-17 16:55:34:283
-1.235408;-8.983044;3.055001;-0.734686;-9.540302;2.147849;-0.500722;0.557258;0.907152;-0.242819;-0.714712;-0.004276;213.0;31.32;1.92;4.02;259.6096;76.6159;18.8836;0.0;1017.8;55.39;;;;;;0 / 0;85.8;45.0;3.667;3744;2014-11-17 16:55:34:341
-0.574608;-17.678785;4.721366;-0.578583;-9.595036;1.941886;0.003974;-8.083749;2.77948;-0.329562;-0.383929;-0.25748;202.0;28.08;0.78;6.0;266.0125;78.0757;16.5914;0.0;1017.76;55.39;;;;;;0 / 0;85.8;45.0;3.667;3797;2014-11-17 16:55:34:394
5.889736;-4.663905;-4.979939;0.591182;-9.782634;0.347791;5.298555;5.11873;-5.32773;-1.189355;1.056797;0.364992;197.0;26.7;0.66;7.38;266.0125;78.0757;16.5914;0.0;1017.76;55.39;;;;;;0 / 0;85.8;45.0;3.667;3850;2014-11-17 16:55:34:447
-2.126051;-12.11466;-1.522712;0.392516;-9.798586;0.063679;-2.518567;-2.316074;-1.586391;-1.091922;0.224798;-0.179289;197.0;25.02;1.86;9.66;348.6269;85.9894;-59.5318;0.0;1017.76;55.39;;;;;;0 / 0;85.8;45.0;3.667;3919;2014-11-17 16:55:34:516
-0.938527;-8.944736;-2.116474;0.215109;-9.803808;-0.097478;-1.153636;0.859071;-2.018997;-0.873232;-0.105069;-0.00336;194.0;24.54;2.46;10.44;46.1137;88.62;-114.3779;0.0;1017.78;55.39;;;;;;0 / 0;85.8;45.0;3.667;3989;2014-11-17 16:55:34:586
0.430956;-9.662998;-1.446098;0.236064;-9.800536;-0.25337;0.194892;0.137538;-1.192727;-1.029003;0.426689;0.036957;197.0;24.36;2.76;11.28;71.4414;87.9763;-137.0251;0.0;1017.78;62.2305;;;;;;0 / 0;85.8;45.0;3.667;4043;2014-11-17 16:55:34:640
-0.134075;-9.299078;-0.268151;0.20574;-9.800638;-0.274876;-0.339815;0.501559;0.006725;-0.816421;0.713491;-0.190285;197.0;23.52;3.3;12.42;79.5364;87.9937;-143.1857;0.0;1017.78;62.2305;;;;;;0 / 0;85.8;45.0;3.667;4107;2014-11-17 16:55:34:704
-1.838747;-9.749188;-1.197101;0.015213;-9.800646;-0.342789;-1.85396;0.051456;-0.854312;-0.682642;-0.042455;-0.094073;197.0;23.04;3.3;13.14;79.5364;87.9937;-143.1857;0.0;1017.71;62.2305;;;;;;0 / 0;85.8;45.0;3.667;4162;2014-11-17 16:55:34:759
1.149217;-8.887276;-2.106897;0.115393;-9.792216;-0.51924;1.033824;0.90494;-1.587657;-0.644768;-0.122173;-0.091019;197.0;22.44;3.42;14.64;108.445;86.8908;-167.4706;0.0;1017.71;62.2305;;;;;;0 / 0;85.8;45.0;3.667;4228;2014-11-17 16:55:34:825
0.325611;-9.289502;-1.982399;0.162451;-9.779742;-0.707558;0.163161;0.490241;-1.274841;-0.873537;0.125838;-0.290466;191.0;21.36;3.36;15.66;113.8732;85.7546;-167.0694;0.0;1017.71;62.2305;;;;;;0 / 0;85.8;45.0;3.667;4281;2014-11-17 16:55:34:878
-1.35033;-10.160992;-2.394202;0.020236;-9.76658;-0.88538;-1.370566;-0.394411;-1.508822;-0.869261;-0.146913;-0.348804;191.0;21.0;3.36;16.38;113.8732;85.7546;-167.0694;0.0;1017.73;62.2305;;;;;;0 / 0;85.8;45.0;3.667;4332;2014-11-17 16:55:34:929
2.96881;-8.954314;-3.265691;0.28086;-9.737124;-1.131332;2.68795;0.78281;-2.134358;-0.856738;0.521679;-0.045204;189.0;19.44;3.36;18.36;128.4768;84.8187;-178.6906;0.0;1017.73;62.2305;;;;;;0 / 0;85.8;45.0;3.667;4386;2014-11-17 16:55:34:983
-1.053449;-12.258312;-2.078167;0.172162;-9.731796;-1.197042;-1.225611;-2.526515;-0.881125;-0.733038;0.992351;-0.115759;189.0;18.6;3.3;19.44;125.965;82.9162;-171.8157;0.0;1017.73;56.21633;;;;;;0 / 0;85.8;45.0;3.667;4447;2014-11-17 16:55:35:044
-4.606444;-13.532028;0.794875;-0.303194;-9.760458;-0.901058;-4.303249;-3.77157;1.695933;0.288328;0.780686;0.112705;191.0;16.92;3.96;23.1;161.8054;84.4368;161.4026;0.0;1017.74;56.21633;;;;;;0 / 0;85.8;45.0;3.667;4512;2014-11-17 16:55:35:109
4.041412;-10.505756;2.183512;0.023407;-9.796156;-0.452972;4.018005;-0.709601;2.636484;2.298686;-0.296575;0.824974;200.0;15.18;6.54;27.78;148.5311;87.349;-177.0419;0.0;1017.74;56.21633;;;;;;0 / 0;85.8;45.0;3.667;4585;2014-11-17 16:55:35:182
3.878607;-11.540052;-3.86903;0.413116;-9.775504;-0.662738;3.465491;-1.764548;-3.206292;2.159714;0.824057;0.432798;205.0;13.98;8.94;30.12;148.5311;87.349;-177.0419;0.0;1017.74;56.21633;;;;;;0 / 0;85.8;45.0;3.667;4641;2014-11-17 16:55:35:238
0.919373;-11.358092;-3.189077;0.444018;-9.756844;-0.881601;0.475356;-1.601249;-2.307475;2.176208;0.754419;0.617279;213.0;13.2;12.36;32.04;129.4635;84.223;-153.2679;0.0;1017.86;56.21633;;;;;;0 / 0;85.8;45.0;3.667;4692;2014-11-17 16:55:35:289
0.191536;-9.739612;-2.097321;0.397327;-9.747682;-0.997609;-0.205791;0.00807;-1.099712;1.943162;0.142332;0.754724;224.0;13.92;21.06;32.7;132.3987;83.7136;-158.2836;0.0;1017.86;56.21633;;;;;;0 / 0;85.8;45.0;3.667;4754;2014-11-17 16:55:35:351
0.699107;-8.03494;-1.695095;0.420099;-9.735126;-1.105098;0.279008;1.700186;-0.589997;1.245554;-0.565356;0.778242;226.0;15.6;25.38;31.44;132.3987;83.7136;-158.2836;0.0;1017.86;62.69713;;;;;;0 / 0;85.8;45.0;3.667;4813;2014-11-17 16:55:35:410
0.459687;-7.153875;-0.45011;0.437047;-9.733236;-1.115118;0.02264;2.579362;0.665008;1.012509;-0.797179;0.635605;222.0;19.74;31.68;26.46;122.1689;83.0758;-159.1859;0.0;1017.86;62.69713;;;;;;0 / 0;85.8;45.0;3.667;4865;2014-11-17 16:55:35:462
-0.067038;-6.493075;0.651223;0.43364;-9.741098;-1.04563;-0.500678;3.248025;1.696853;0.167377;0.175318;0.370795;222.0;21.54;33.9;24.0;108.2362;83.3715;-157.4754;0.0;1017.86;62.69713;;;;;;0 / 0;85.8;45.0;3.667;4927;2014-11-17 16:55:35:524
-1.197101;-8.848968;3.294422;0.257107;-9.77922;-0.686396;-1.454207;0.93025;3.980818;-0.628886;0.08827;0.448375;219.0;25.02;36.48;21.12;104.8753;85.7136;-159.4653;0.0;1017.86;62.69713;;;;;;0 / 0;85.8;45.0;3.667;4991;2014-11-17 16:55:35:588
-1.877054;-9.739612;6.291962;0.063286;-9.806286;0.056079;-1.94034;0.066674;6.235883;-0.215635;-0.74831;0.152105;216.0;25.68;37.5;20.4;104.8753;85.7136;-159.4653;0.0;1017.76;62.69713;;;;;;0 / 0;85.8;45.0;3.667;5044;2014-11-17 16:55:35:641
-0.076614;-9.730036;4.989517;0.06452;-9.788824;0.587491;-0.141134;0.058789;4.402026;0.071777;-1.320996;-0.017715;209.0;27.24;39.78;19.74;355.0332;89.5062;-48.4549;0.0;1017.76;62.69713;;;;;;0 / 0;85.8;45.0;3.667;5112;2014-11-17 16:55:35:709
1.388637;-11.520898;-1.37906;0.207556;-9.797702;0.363811;1.181081;-1.723196;-1.742871;-0.278249;-1.496314;-0.083383;202.0;28.26;41.46;18.48;333.7529;87.552;-29.7051;0.0;1017.76;60.13233;;;;;;0 / 0;85.8;45.0;3.667;5171;2014-11-17 16:55:35:768
-1.244985;-9.998186;-0.852336;0.081911;-9.803744;0.224257;-1.326896;-0.194442;-1.076593;-0.342695;-0.140194;-0.173486;200.0;30.54;44.34;15.06;317.0912;88.6049;-20.0651;0.0;1017.76;60.13233;;;;;;0 / 0;85.8;45.0;3.667;5229;2014-11-17 16:55:35:826
4.960786;-7.307103;-1.656788;0.198242;-9.798702;-0.341345;4.762544;2.4916;-1.315442;-1.423316;0.984409;0.111177;195.0;31.74;45.66;13.68;317.0912;88.6049;-20.0651;0.0;1017.76;60.13233;;;;;;0 / 0;85.8;45.0;3.667;5285;2014-11-17 16:55:35:882
-1.551443;-10.611102;-0.354342;0.279869;-9.74046;-1.102485;-1.831311;-0.870641;0.748143;-1.303892;-0.176235;-0.517097;197.0;32.46;46.38;13.5;80.491;87.6931;-149.8533;0.0;1017.76;60.13233;;;;;;0 / 0;85.8;45.0;3.667;5335;2014-11-17 16:55:35:932
-0.095768;-9.270348;-1.934515;0.351682;-9.657244;-1.668633;-0.44745;0.386895;-0.265882;-0.879951;-0.289245;0.043371;193.0;33.12;47.28;15.54;90.8737;79.9859;-168.0985;0.0;1017.79;60.13233;;;;;;0 / 0;85.8;45.0;3.667;5412;2014-11-17 16:55:36:009
-0.153229;-9.586384;-1.206678;0.343734;-9.556204;-2.175133;-0.496963;-0.03018;0.968455;-1.191798;0.891863;0.050702;191.0;33.42;48.12;18.78;94.0049;77.0233;-171.0199;0.0;1017.79;60.13233;;;;;;0 / 0;85.8;45.0;3.667;5485;2014-11-17 16:55:36:082
-0.354342;-9.433154;-0.871489;0.464966;-9.401522;-2.750557;-0.819308;-0.031632;1.879068;-0.971276;0.876286;-0.10568;197.0;33.78;48.54;20.34;94.0049;77.0233;-171.0199;0.0;1017.79;63.62851;;;;;;0 / 0;85.8;45.0;3.667;5538;2014-11-17 16:55:36:135
-1.034295;-9.739612;-0.555455;0.620734;-9.274844;-3.12448;-1.655029;-0.464768;2.569025;-0.64935;0.065363;-0.036652;198.0;33.48;48.6;24.18;92.1937;73.4736;-170.4052;0.0;1017.76;63.62851;;;;;;0 / 0;85.8;45.0;3.667;5590;2014-11-17 16:55:36:187
0.871489;-8.944736;-1.666364;0.707212;-9.159812;-3.430469;0.164277;0.215075;1.764105;-0.701273;0.20861;-0.040928;194.0;33.42;48.6;25.74;90.0918;69.0737;-168.3513;0.0;1017.76;63.62851;;;;;;0 / 0;85.8;45.0;3.667;5650;2014-11-17 16:55:36:247
-0.861913;-8.90643;-2.557007;0.833116;-9.003612;-3.79622;-1.695029;0.097181;1.239213;-0.868039;0.211359;-0.305738;191.0;33.3;48.72;27.0;90.0918;69.0737;-168.3513;0.0;1017.76;63.62851;;;;;;0 / 0;85.8;45.0;3.667;5702;2014-11-17 16:55:36:299
0.517148;-9.394848;-3.342306;1.034349;-8.804782;-4.192409;-0.517202;-0.590065;0.850103;-0.843605;0.055283;-0.138972;191.0;33.6;49.02;29.16;88.7945;66.6517;-167.6221;0.0;1017.76;63.62851;;;;;;0 / 0;85.8;45.0;3.667;5770;2014-11-17 16:55:36:367
1.13964;-9.528922;-2.844312;1.158598;-8.627644;-4.515724;-0.018958;-0.901278;1.671413;-0.677755;1.020756;0.056505;189.0;33.3;49.08;31.8;87.6053;63.8753;-166.1408;0.0;1017.76;63.62851;;;;;;0 / 0;85.8;45.0;3.667;5841;2014-11-17 16:55:36:438
-1.599327;-12.028468;-2.049437;1.312267;-8.5552;-4.610522;-2.911594;-3.473268;2.561085;-0.705244;1.455997;-0.033903;186.0;33.3;48.96;32.88;84.1969;60.7373;-164.1123;0.0;1017.76;63.62851;;;;;;0 / 0;85.8;45.0;3.667;5900;2014-11-17 16:55:36:497
-4.884171;-12.29662;0.507571;1.440801;-8.626338;-4.436299;-6.324972;-3.670282;4.94387;0.555277;0.4554;0.375377;186.0;33.36;48.66;34.98;85.9457;61.5992;-162.0075;0.0;1017.83;61.35738;;;;;;0 / 0;85.8;45.0;3.667;5962;2014-11-17 16:55:36:559
5.200207;-10.7356;1.637634;1.362219;-8.985806;-3.683753;3.837988;-1.749793;5.321387;2.232407;-0.348804;0.826195;191.0;34.2;48.42;34.74;85.9457;61.5992;-162.0075;0.0;1017.83;61.35738;;;;;;0 / 0;85.8;45.0;3.667;6021;2014-11-17 16:55:36:618
3.572149;-11.836932;-3.648763;1.000211;-9.445426;-2.440067;2.571938;-2.391507;-1.208696;2.313347;1.069014;0.619417;208.0;38.1;47.88;29.46;87.0825;66.3906;-159.7061;0.0;1017.83;61.35738;;;;;;0 / 0;85.8;45.0;3.667;6077;2014-11-17 16:55:36:674
0.105345;-12.86165;-2.834735;0.732728;-9.720072;-1.074117;-0.627383;-3.14158;-1.760618;2.360078;0.65271;0.688445;212.0;40.62;46.86;25.2;79.7612;82.3809;-145.6994;0.0;1017.87;61.35738;;;;;;0 / 0;85.8;45.0;3.667;6130;2014-11-17 16:55:36:727
0.258574;-8.99262;-2.27928;0.36043;-9.797266;0.232479;-0.101856;0.804646;-2.511758;2.333505;-0.142637;0.719599;230.0;42.36;45.6;20.82;75.1196;82.3809;-145.6994;0.0;1017.87;61.35738;;;;;;0 / 0;85.8;45.0;3.667;6186;2014-11-17 16:55:36:783
0.785298;-8.015787;-2.097321;0.051107;-9.726742;1.248305;0.734191;1.710955;-3.345625;1.548544;-0.996932;0.655764;231.0;43.92;41.16;12.66;294.6081;82.6807;-2.3445;0.0;1017.87;61.35738;;;;;;0 / 0;85.8;45.0;3.667;6249;2014-11-17 16:55:36:846
0.833182;-6.809109;-1.120486;-0.214527;-9.606908;1.957467;1.047709;2.797799;-3.077953;0.904997;-0.594372;0.616974;230.0;44.76;39.6;9.9;294.6081;82.6807;-2.3445;0.0;1017.84;62.08077;;;;;;0 / 0;85.8;45.0;3.667;6301;2014-11-17 16:55:36:898
-0.02873;-6.435614;0.430956;-0.408054;-9.542232;2.224781;0.379324;3.106619;-1.793825;0.085827;-0.060476;0.396146;227.0;44.94;38.04;8.1;283.1072;78.4162;6.2543;0.0;1017.84;62.08077;;;;;;0 / 0;85.8;45.0;3.667;6362;2014-11-17 16:55:36:959
-0.526724;-7.345411;2.164359;-0.547144;-9.57385;2.052419;0.020419;2.228439;0.111939;-0.799317;0.153327;0.212887;227.0;45.72;35.7;6.72;273.5051;77.4907;14.927;0.0;1017.84;62.08077;;;;;;0 / 0;85.8;45.0;3.667;6438;2014-11-17 16:55:37:035
-3.428497;-11.204864;7.25922;-0.68326;-9.612202;1.819099;-2.745237;-1.592662;5.44012;-0.136223;-1.045496;0.150273;230.0;45.66;34.68;8.1;268.0302;78.5712;20.5863;0.0;1017.84;62.08077;;;;;;0 / 0;85.8;45.0;3.667;6489;2014-11-17 16:55:37:086
-0.488417;-9.519346;4.271256;-0.605008;-9.61235;1.845825;0.116591;0.093005;2.425431;-0.129198;-1.029919;0.07758;227.0;45.72;34.14;8.7;268.0302;78.5712;20.5863;0.0;1017.84;62.08077;;;;;;0 / 0;85.8;45.0;3.667;6543;2014-11-17 16:55:37:140
0.632069;-11.683704;-2.5187;-0.44389;-9.657974;1.642217;1.075959;-2.02573;-4.160917;-0.849408;-1.267851;-0.359494;212.0;45.06;33.78;8.76;271.3225;78.5756;18.1476;0.0;1017.84;62.08077;;;;;;0 / 0;85.8;45.0;3.667;6615;2014-11-17 16:55:37:212
-2.30801;-10.151414;-2.135628;-0.199843;-9.724578;1.250212;-2.108168;-0.426836;-3.38584;-0.079412;-1.030835;-0.112705;205.0;44.7;33.78;8.4;276.4665;82.5821;9.0817;0.0;1017.73;61.51703;;;;;;0 / 0;85.8;45.0;3.667;6674;2014-11-17 16:55:37:271
6.617574;-5.822698;-2.94008;-0.155265;-9.766926;0.867997;6.772839;3.944228;-3.808077;-1.189355;0.605673;0.025351;194.0;43.44;34.68;7.98;274.5093;84.8412;10.1417;0.0;1017.73;61.51703;;;;;;0 / 0;85.8;45.0;3.667;6739;2014-11-17 16:55:37:336
-1.733402;-11.386824;-0.21069;-0.020603;-9.806236;0.087668;-1.712799;-1.580587;-0.298358;-1.04855;-0.018937;-0.206778;191.0;42.66;35.1;8.82;274.5093;84.8412;10.1417;0.0;1017.73;61.51703;;;;;;0 / 0;85.8;45.0;3.667;6797;2014-11-17 16:55:37:394
0.258574;-8.820238;-1.675941;0.093236;-9.791002;-0.54586;0.165338;0.970764;-1.130081;-1.141096;-0.102931;0.085827;183.0;42.12;36.0;12.0;270.6059;89.4736;13.2253;0.0;1017.84;61.51703;;;;;;0 / 0;85.8;45.0;3.667;6858;2014-11-17 16:55:37:455
0.258574;-9.940724;-0.134075;0.095981;-9.736062;-1.170594;0.162593;-0.204662;1.036518;-1.167669;0.677755;0.047953;183.0;41.88;36.3;13.74;98.1173;83.1213;-175.3126;0.0;1017.84;61.51703;;;;;;0 / 0;85.8;45.0;3.667;6914;2014-11-17 16:55:37:511
-1.580173;-9.59596;-0.823605;0.154384;-9.656434;-1.70288;-1.734557;0.060474;0.879275;-0.671035;0.499993;-0.072998;189.0;41.7;36.54;18.18;99.7498;79.9587;-174.8197;0.0;1017.84;61.51703;;;;;;0 / 0;85.8;45.0;3.667;6997;2014-11-17 16:55:37:594
-1.101333;-9.816226;-0.785298;0.245286;-9.588572;-2.041931;-1.346619;-0.227653;1.256633;-0.381791;-0.093157;0.003665;186.0;40.92;36.36;23.58;104.1295;77.8943;-173.1502;0.0;1017.8;60.60816;;;;;;0 / 0;85.8;45.0;3.667;7057;2014-11-17 16:55:37:654
1.61848;-8.69574;-2.231396;0.282702;-9.539246;-2.256826;1.335779;0.843506;0.02543;-0.493885;0.059254;0.016799;186.0;40.38;36.36;25.62;104.1295;77.8943;-173.1502;0.0;1017.8;60.60816;;;;;;0 / 0;85.8;45.0;3.667;7110;2014-11-17 16:55:37:707
-0.967257;-9.097966;-3.093309;0.387812;-9.440254;-2.627084;-1.35507;0.342289;-0.466224;-0.620639;0.207694;-0.162185;183.0;39.9;36.18;27.06;103.3679;74.2886;-171.6026;0.0;1017.8;60.60816;;;;;;0 / 0;85.8;45.0;3.667;7160;2014-11-17 16:55:37:757
1.120486;-9.002198;-3.016694;0.570514;-9.328994;-2.968969;0.549973;0.326796;-0.047725;-0.748615;0.171348;-0.171042;183.0;38.46;36.0;30.36;103.2323;72.0438;-169.1227;0.0;1017.79;60.60816;;;;;;0 / 0;85.8;45.0;3.667;7219;2014-11-17 16:55:37:816
0.622492;-9.241618;-3.160346;0.737762;-9.172938;-3.388697;-0.115269;-0.068679;0.228351;-0.85796;0.857349;-0.065973;180.0;37.32;35.64;33.0;103.1261;69.2896;-167.7177;0.0;1017.79;60.60816;;;;;;0 / 0;85.8;45.0;3.667;7296;2014-11-17 16:55:37:893
0.574608;-9.337386;-2.097321;0.946136;-9.02014;-3.729919;-0.371528;-0.317246;1.632598;-0.854295;1.338711;-0.154854;180.0;35.52;35.22;36.06;103.1261;69.2896;-167.7177;0.0;1017.79;60.60816;;;;;;0 / 0;85.8;45.0;3.667;7351;2014-11-17 16:55:37:948
-3.236961;-12.248734;-0.651223;1.23769;-8.908928;-3.90762;-4.47465;-3.339806;3.256397;0.214719;0.847576;0.328646;182.0;34.14;34.86;38.58;102.5294;65.2931;-162.425;0.0;1017.85;57.38076;;;;;;0 / 0;85.8;45.0;3.667;7405;2014-11-17 16:55:38:002
-0.086191;-12.287044;0.871489;1.311198;-9.022022;-3.613067;-1.39739;-3.26502;4.484557;0.952644;0.38851;0.651182;183.0;30.96;34.56;43.02;107.4126;66.9247;-160.0539;0.0;1017.85;57.38076;;;;;;0 / 0;85.8;45.0;3.667;7462;2014-11-17 16:55:38:059
5.564125;-9.86411;-1.340753;0.992681;-9.401138;-2.608366;4.571444;-0.462972;1.267614;2.498744;0.218995;0.620028;200.0;30.3;35.28;43.8;107.4126;66.9247;-160.0539;0.0;1017.85;57.38076;;;;;;0 / 0;85.8;45.0;3.667;7522;2014-11-17 16:55:38:119
2.384625;-12.727576;-2.882619;0.781898;-9.70191;-1.19664;1.602727;-3.025666;-1.685978;2.255315;0.99571;0.603535;212.0;29.1;39.42;41.76;112.2943;73.4657;-159.1644;0.0;1017.79;57.38076;;;;;;0 / 0;85.8;45.0;3.667;7577;2014-11-17 16:55:38:174
1.886631;-10.381258;-3.725378;0.538583;-9.791342;0.099798;1.348048;-0.589917;-3.825175;1.957823;0.306043;0.616058;227.0;28.44;45.66;36.12;41.0932;86.7981;-79.5023;0.0;1017.79;57.38076;;;;;;0 / 0;85.8;45.0;3.667;7652;2014-11-17 16:55:38:249
0.344765;-8.465898;-2.461239;0.228184;-9.717062;1.302697;0.116581;1.251164;-3.763936;1.389413;0.004581;0.585209;247.0;28.68;48.06;32.7;332.3409;82.2494;-9.9353;0.0;1017.79;57.38076;;;;;;0 / 0;85.8;45.0;3.667;7711;2014-11-17 16:55:38:308
0.306458;-7.546523;-1.944092;-0.039401;-9.591928;2.040537;0.345859;2.045404;-3.984628;0.915076;-0.728151;0.524122;247.0;29.4;50.34;29.4;332.3409;82.2494;-9.9353;0.0;1017.86;63.68517;;;;;;0 / 0;85.8;45.0;3.667;7761;2014-11-17 16:55:38:358
1.043872;-7.594407;-0.45011;-0.190506;-9.532648;2.294054;1.234378;1.938242;-2.744164;-0.12034;0.00672;0.469755;244.0;31.68;52.74;24.72;319.4801;77.9881;1.1062;0.0;1017.86;63.68517;;;;;;0 / 0;85.8;45.0;3.667;7821;2014-11-17 16:55:38:418
-0.402226;-8.370129;0.833182;-0.398471;-9.55439;2.173761;-0.003755;1.18426;-1.340579;-0.482584;-0.560469;0.238237;244.0;32.88;53.16;23.94;308.3901;76.9762;10.3875;0.0;1017.86;63.68517;;;;;;0 / 0;85.8;45.0;3.667;7887;2014-11-17 16:55:38:484
0.02873;-9.969456;3.936068;-0.405725;-9.59875;1.967172;0.434455;-0.370705;1.968896;-0.46609;-1.001819;0.016799;234.0;34.62;52.98;24.06;304.5512;78.1812;11.6537;0.0;1017.79;63.68517;;;;;;0 / 0;85.8;45.0;3.667;7942;2014-11-17 16:55:38:539
0.42138;-9.184156;2.547431;-0.225782;-9.635304;1.811162;0.647162;0.451147;0.736268;-0.300851;-0.89339;0.076358;224.0;34.86;53.1;23.94;304.5512;78.1812;11.6537;0.0;1017.79;63.68517;;;;;;0 / 0;85.8;45.0;3.667;8003;2014-11-17 16:55:38:600
0.105345;-9.883264;-0.90022;-0.182378;-9.66972;1.622858;0.287722;-0.213545;-2.523077;-0.250455;-0.159741;0.249538;219.0;35.64;53.46;24.18;307.5779;79.2737;7.1059;0.0;1017.79;63.68517;;;;;;0 / 0;85.8;45.0;3.667;8067;2014-11-17 16:55:38:664
-0.727837;-11.147402;2.365471;-0.285035;-9.681408;1.536051;-0.442802;-1.465994;0.82942;-0.058338;-0.66737;0.287412;219.0;36.24;53.58;24.6;303.438;80.8333;10.5124;0.0;1017.72;63.68517;;;;;;0 / 0;85.8;45.0;3.667;8129;2014-11-17 16:55:38:726
2.738967;-8.226476;0.363919;-0.236552;-9.690168;1.488305;2.975519;1.463693;-1.124386;-0.288328;-1.1582;-0.01405;205.0;37.98;53.52;24.72;302.8841;81.1603;9.0311;0.0;1017.72;71.20317;;;;;;0 / 0;85.8;45.0;3.667;8193;2014-11-17 16:55:38:790
-0.421379;-11.166556;2.202666;-0.081495;-9.711406;1.361016;-0.339884;-1.455151;0.84165;-0.07758;-1.224785;0.112399;200.0;38.52;53.34;23.94;302.8841;81.1603;9.0311;0.0;1017.72;71.20317;;;;;;0 / 0;85.8;45.0;3.667;8244;2014-11-17 16:55:38:841
1.723825;-10.639832;0.622492;-0.007481;-9.714428;1.341731;1.731307;-0.925405;-0.719238;0.305738;-0.084299;0.43066;186.0;40.14;53.94;21.9;304.7257;82.0081;3.4267;0.0;1017.82;71.20317;;;;;;0 / 0;85.8;45.0;3.667;8305;2014-11-17 16:55:38:902
-2.413355;-9.32781;-0.526724;-0.202325;-9.702622;1.410165;-2.21103;0.374812;-1.93689;-0.100793;0.272446;0.150578;183.0;40.92;54.0;21.06;297.4696;81.6471;8.1649;0.0;1017.82;71.20317;;;;;;0 / 0;85.8;45.0;3.667;8368;2014-11-17 16:55:38:965
-0.871489;-9.720458;1.704672;-0.274303;-9.705438;1.378262;-0.597187;-0.01502;0.32641;0.175624;-0.053756;0.067501;183.0;41.88;54.0;21.06;297.4696;81.6471;8.1649;0.0;1017.82;71.20317;;;;;;0 / 0;85.8;45.0;3.667;8418;2014-11-17 16:55:39:015
0.842759;-10.026916;2.767697;-0.22967;-9.691844;1.478441;1.072429;-0.335072;1.289256;0.126755;0.388816;0.064141;158.0;41.4;53.52;20.94;293.8344;81.7611;11.256;0.0;1017.81;71.20317;;;;;;0 / 0;85.8;45.0;3.667;8496;2014-11-17 16:55:39:093
-2.834735;-9.165004;0.143652;-0.301191;-9.684746;1.511738;-2.533544;0.519743;-1.368086;-0.116064;0.149967;0.114232;161.0;41.22;53.58;20.88;295.2671;80.9565;11.2678;0.0;1017.81;69.03034;;;;;;0 / 0;85.8;45.0;3.667;8547;2014-11-17 16:55:39:144
0.6608;-9.452308;2.011129;-0.312657;-9.69031;1.473264;0.973456;0.238003;0.537865;-0.009774;-0.03146;-0.049175;153.0;41.16;53.76;21.6;295.3323;81.1657;11.9816;0.0;1017.81;69.03034;;;;;;0 / 0;85.8;45.0;3.667;8613;2014-11-17 16:55:39:210
-0.220267;-9.730036;1.647211;-0.238243;-9.693896;1.463566;0.017976;-0.036139;0.183645;-0.075136;0.186619;-0.036652;153.0;41.22;53.82;21.48;295.3323;81.1657;11.9816;0.0;1017.8;69.03034;;;;;;0 / 0;85.8;45.0;3.667;8666;2014-11-17 16:55:39:263
-0.526724;-9.749188;0.402226;-0.18676;-9.706394;1.386147;-0.339964;-0.042794;-0.983921;-0.113621;0.060781;0.023518;155.0;40.38;53.88;21.6;297.7168;81.3031;9.2456;0.0;1017.8;69.03034;;;;;;0 / 0;85.8;45.0;3.667;8720;2014-11-17 16:55:39:317
0.890643;-9.461884;1.493982;-0.133976;-9.715704;1.325712;1.024619;0.253819;0.16827;-0.139583;-0.007636;-0.03146;154.0;39.96;54.0;21.66;300.7955;82.1908;5.7707;0.0;1017.8;69.03034;;;;;;0 / 0;85.8;45.0;3.667;8777;2014-11-17 16:55:39:374
-0.861913;-9.883264;1.37906;-0.087712;-9.724112;1.266612;-0.7742;-0.159151;0.112448;-0.112399;0.209832;0.004887;158.0;39.6;54.18;22.32;300.7955;82.1908;5.7707;0.0;1017.76;69.03034;;;;;;0 / 0;85.8;45.0;3.667;8836;2014-11-17 16:55:39:433
-0.076614;-9.433154;1.331176;-0.066769;-9.7307;1.216303;-0.009845;0.297545;0.114873;-0.07086;-0.01069;-0.011606;158.0;39.36;54.66;23.7;303.1807;82.5611;3.9614;0.0;1017.76;72.53496;;;;;;0 / 0;85.8;45.0;3.667;8890;2014-11-17 16:55:39:487
0.584185;-10.055646;0.766145;-0.022292;-9.734354;1.188378;0.606477;-0.321292;-0.422233;-0.034208;0.035125;0.072082;161.0;39.3;54.84;24.18;305.2863;82.8646;3.1421;0.0;1017.76;72.53496;;;;;;0 / 0;85.8;45.0;3.667;8960;2014-11-17 16:55:39:557
0.124498;-8.973468;0.105345;-0.015242;-9.738812;1.151399;0.13974;0.765345;-1.046054;-0.0956;-0.110261;-0.002138;158.0;39.24;54.66;24.24;307.141;83.2567;0.7584;0.0;1017.78;72.53496;;;;;;0 / 0;85.8;45.0;3.667;9032;2014-11-17 16:55:39:629
-0.105345;-10.180144;1.656788;0.028689;-9.74903;1.061118;-0.134033;-0.431115;0.595669;-0.034208;0.104458;0.040623;158.0;38.46;55.02;24.72;310.4576;83.7859;-1.5487;0.0;1017.78;72.53496;;;;;;0 / 0;85.8;45.0;3.667;9090;2014-11-17 16:55:39:687