sep=;
ACCELEROMETER X (m/s²);ACCELEROMETER Y (m/s²);ACCELEROMETER Z (m/s²);GRAVITY X (m/s²);GRAVITY Y (m/s²);GRAVITY Z (m/s²);LINEAR ACCELERATION X (m/s²);LINEAR ACCELERATION Y (m/s²);LINEAR ACCELERATION Z (m/s²);GYROSCOPE X (rad/s);GYROSCOPE Y (rad/s);GYROSCOPE Z (rad/s);LIGHT (lux);MAGNETIC FIELD X (μT);MAGNETIC FIELD Y (μT);MAGNETIC FIELD Z (μT);ORIENTATION X (°);ORIENTATION Y (°);ORIENTATION Z (°);PROXIMITY (i);ATMOSPHERIC PRESSURE (hPa);SOUND LEVEL (dB);LOCATION Latitude : ;LOCATION Longitude : ;LOCATION Altitude ( m);LOCATION Speed ( Kmh);LOCATION Accuracy ( m);Satellites in range;Temperature (F);Level (%);Voltage (Volt);Time since start in ms ;YYYY-MO-DD HH-MI-SS_SSS
0.047884;-9.509768;1.091756;0.639301;-9.73205;1.024141;-0.591417;0.222281;0.067615;-0.0956;0.074526;-0.022907;211.0;25.68;38.4;4.02;317.4352;82.9283;-31.9737;0.0;1017.74;61.75957;;;;;;0 / 0;85.8;45.0;3.704;64;2014-11-17 16:55:01:172
0.861913;-9.77792;1.398214;0.675748;-9.733464;0.986631;0.186164;-0.044456;0.411582;-0.075442;0.131031;-0.040317;211.0;25.62;38.94;4.26;319.6808;82.9957;-34.4074;0.0;1017.71;39.84862;;;;;;0 / 0;85.8;45.0;3.704;136;2014-11-17 16:55:01:244
0.02873;-9.768342;1.244985;0.710902;-9.734534;0.950721;-0.682171;-0.033808;0.294264;-0.180816;0.1518;-0.064141;213.0;25.14;39.0;4.32;319.6808;82.9957;-34.4074;0.0;1017.71;39.84862;;;;;;0 / 0;85.8;45.0;3.704;197;2014-11-17 16:55:01:305
0.919373;-9.318232;1.091756;0.77866;-9.736742;0.871748;0.140714;0.418509;0.220008;-0.169515;0.005498;-0.100182;213.0;24.84;39.18;4.62;328.3931;83.1545;-41.7717;0.0;1017.71;39.84862;;;;;;0 / 0;85.8;45.0;3.704;251;2014-11-17 16:55:01:359
0.42138;-9.710882;1.532289;0.867882;-9.737326;0.775643;-0.446502;0.026444;0.756646;-0.224188;0.157298;-0.047647;213.0;24.6;39.48;5.52;335.7948;83.1833;-48.2122;0.0;1017.72;39.84862;;;;;;0 / 0;85.8;45.0;3.704;307;2014-11-17 16:55:01:415
0.823605;-9.62469;1.187524;0.939273;-9.739414;0.657243;-0.115668;0.114723;0.530282;-0.255953;0.09163;-0.105374;211.0;24.66;39.66;6.0;335.7948;83.1833;-48.2122;0.0;1017.72;39.84862;;;;;;0 / 0;85.8;45.0;3.704;370;2014-11-17 16:55:01:478
0.296881;-9.662998;1.781286;1.036328;-9.738536;0.507234;-0.739446;0.075539;1.274052;-0.359189;0.209221;-0.146302;213.0;24.0;39.78;6.9;342.2464;83.2869;-55.0182;0.0;1017.72;39.84862;;;;;;0 / 0;85.8;45.0;3.704;424;2014-11-17 16:55:01:532
0.354342;-11.18571;2.786851;1.125012;-9.734412;0.382032;-0.770671;-1.451298;2.404818;-0.258701;0.043982;-0.09499;213.0;23.7;40.02;6.96;357.896;83.0413;-71.2435;0.0;1017.72;43.40521;;;;;;0 / 0;85.8;45.0;3.704;479;2014-11-17 16:55:01:587
1.714248;-9.394848;2.193089;1.137324;-9.731602;0.415713;0.576924;0.336754;1.777375;0.551001;0.416916;0.232129;215.0;23.46;40.14;7.5;357.896;83.0413;-71.2435;0.0;1017.72;43.40521;;;;;;0 / 0;85.8;45.0;3.704;530;2014-11-17 16:55:01:638
0.316035;-9.730036;0.536301;1.055671;-9.721844;0.735999;-0.739636;-0.008191;-0.199698;0.495717;-0.330784;0.235183;219.0;23.52;41.04;9.18;348.0616;82.4594;-55.1163;0.0;1017.72;43.40521;;;;;;0 / 0;85.8;45.0;3.704;598;2014-11-17 16:55:01:706
-0.268151;-10.01734;1.656788;0.922245;-9.711738;1.001;-1.190395;-0.305601;0.655787;0.272751;0.211054;0.393092;219.0;23.76;41.4;9.12;348.0616;82.4594;-55.1163;0.0;1017.7;43.40521;;;;;;0 / 0;85.8;45.0;3.704;655;2014-11-17 16:55:01:763
1.043872;-9.38527;1.695095;0.727816;-9.698258;1.258746;0.316056;0.312988;0.436349;0.626442;-0.447764;0.407753;215.0;24.78;42.3;8.4;337.927;82.0221;-42.6551;0.0;1017.7;43.40521;;;;;;0 / 0;85.8;45.0;3.704;719;2014-11-17 16:55:01:827
0.651223;-8.772354;1.857901;0.562393;-9.6588;1.600532;0.08883;0.886445;0.257368;0.491747;0.059559;0.430049;216.0;25.5;42.48;7.5;316.6664;80.0382;-19.3604;0.0;1017.7;43.40521;;;;;;0 / 0;85.8;45.0;3.704;779;2014-11-17 16:55:01:887
0.105345;-8.820238;2.317587;0.346196;-9.62209;1.86169;-0.240851;0.801852;0.455897;0.432493;0.134696;0.316428;219.0;26.7;42.72;5.82;306.6506;78.8666;-10.5343;0.0;1017.78;43.40521;;;;;;0 / 0;85.8;45.0;3.704;844;2014-11-17 16:55:01:952
-0.344765;-8.197746;2.135628;0.170575;-9.58101;2.08459;-0.51534;1.383265;0.051039;0.208;-0.230907;0.370184;219.0;27.24;42.84;4.98;306.6506;78.8666;-10.5343;0.0;1017.78;48.09639;;;;;;0 / 0;85.8;45.0;3.704;900;2014-11-17 16:55:02:008
-0.191536;-8.054094;1.857901;0.081226;-9.563054;2.170668;-0.272762;1.50896;-0.312768;-0.103542;-0.790765;0.186619;208.0;28.32;43.92;3.54;299.014;77.6854;-4.6779;0.0;1017.78;48.09639;;;;;;0 / 0;85.8;45.0;3.704;966;2014-11-17 16:55:02:074
0.785298;-8.810662;3.801993;0.125684;-9.562634;2.170398;0.659615;0.751971;1.631594;-0.14508;-0.883617;0.075747;205.0;28.86;44.4;2.94;296.4384;77.1917;-3.3142;0.0;1017.78;48.09639;;;;;;0 / 0;85.8;45.0;3.704;1027;2014-11-17 16:55:02:135
0.067038;-9.337386;2.116475;0.228126;-9.582952;2.07012;-0.161089;0.245564;0.046355;-0.647212;-0.038485;0.243735;197.0;29.34;45.6;2.1;297.3805;77.7387;-6.2886;0.0;1017.78;48.09639;;;;;;0 / 0;85.8;45.0;3.704;1093;2014-11-17 16:55:02:201
-0.909797;-12.98615;3.102886;0.136672;-9.628308;1.85672;-1.046468;-3.357841;1.246166;0.101709;-0.439212;0.101404;191.0;29.64;46.2;1.92;297.3805;77.7387;-6.2886;0.0;1017.78;48.09639;;;;;;0 / 0;85.8;45.0;3.704;1149;2014-11-17 16:55:02:257
0.919373;-7.067683;-2.346318;0.115796;-9.649608;1.744151;0.803577;2.581925;-4.090469;-1.119105;-0.131336;0.207694;191.0;30.54;47.76;1.98;293.6584;79.0563;-4.2099;0.0;1017.77;48.09639;;;;;;0 / 0;85.8;45.0;3.704;1205;2014-11-17 16:55:02:313
2.384625;-10.141838;-0.622492;0.108649;-9.743148;1.108902;2.275977;-0.39869;-1.731395;-1.308473;-0.555887;-0.043371;187.0;31.14;48.48;2.58;290.4959;83.4761;-5.5959;0.0;1017.77;59.14444;;;;;;0 / 0;85.8;45.0;3.704;1266;2014-11-17 16:55:02:374
-0.584185;-9.576806;-2.116474;0.179007;-9.798964;0.344466;-0.763192;0.222157;-2.46094;-1.20035;0.00733;0.030849;186.0;32.34;50.16;4.92;309.0399;87.7313;-27.4594;0.0;1017.77;59.14444;;;;;;0 / 0;85.8;45.0;3.704;1327;2014-11-17 16:55:02:435
0.68953;-9.86411;-1.608903;0.228249;-9.796896;-0.372979;0.461281;-0.067214;-1.235924;-1.068403;-0.11637;0.019853;183.0;32.4;51.0;6.84;309.0399;87.7313;-27.4594;0.0;1017.76;59.14444;;;;;;0 / 0;85.8;45.0;3.704;1383;2014-11-17 16:55:02:491
0.019154;-9.35654;-1.781286;0.258204;-9.750036;-1.020065;-0.23905;0.393496;-0.761221;-1.093754;0.591623;-0.06353;183.0;32.52;51.84;10.68;70.1495;87.4443;-148.535;0.0;1017.76;59.14444;;;;;;0 / 0;85.8;45.0;3.704;1449;2014-11-17 16:55:02:557
-0.995988;-9.528922;-1.254562;0.340619;-9.668292;-1.605765;-1.336607;0.13937;0.351204;-0.86468;0.17654;-0.071471;182.0;32.22;51.78;12.96;85.4381;80.3641;-168.0238;0.0;1017.76;59.14444;;;;;;0 / 0;85.8;45.0;3.704;1511;2014-11-17 16:55:02:619
-0.172383;-9.481038;-0.833182;0.41944;-9.580654;-2.050733;-0.591822;0.099615;1.21755;-0.715934;0.082772;-0.080023;184.0;32.34;52.26;16.98;88.2;77.6756;-168.4406;0.0;1017.76;59.14444;;;;;;0 / 0;85.8;45.0;3.704;1565;2014-11-17 16:55:02:673
-0.047884;-8.90643;-2.317587;0.515302;-9.474568;-2.477384;-0.563186;0.568138;0.159797;-0.869872;-0.024435;-0.157298;180.0;32.4;52.56;18.42;88.2;77.6756;-168.4406;0.0;1017.76;56.50307;;;;;;0 / 0;85.8;45.0;3.704;1619;2014-11-17 16:55:02:727
-0.756568;-10.208876;-0.90022;0.623655;-9.323618;-2.975159;-1.380223;-0.885257;2.074939;-0.855517;0.342085;-0.09163;180.0;31.92;53.58;21.66;88.2952;75.0468;-168.2499;0.0;1017.76;56.50307;;;;;;0 / 0;85.8;45.0;3.704;1690;2014-11-17 16:55:02:798
0.335188;-8.590396;-3.667917;0.772761;-9.134104;-3.484445;-0.437572;0.543709;-0.183472;-0.876286;0.647823;0.17318;180.0;31.26;53.82;23.34;81.941;68.6572;-167.4956;0.0;1017.75;56.50307;;;;;;0 / 0;85.8;45.0;3.704;1759;2014-11-17 16:55:02:867
-0.124498;-11.224016;-2.154781;0.861085;-8.968724;-3.871806;-0.985584;-2.255292;1.717024;-0.662178;1.784337;0.143553;189.0;30.84;54.0;27.66;85.2823;66.1427;-167.4616;0.0;1017.75;56.50307;;;;;;0 / 0;85.8;45.0;3.704;1818;2014-11-17 16:55:02:926
3.351883;-10.534488;0.622492;1.259397;-9.141434;-3.319406;2.092485;-1.393053;3.941899;0.680809;0.972192;0.376293;194.0;31.26;54.96;30.96;84.4474;65.6223;-163.33;0.0;1017.75;56.50307;;;;;;0 / 0;85.8;45.0;3.704;1884;2014-11-17 16:55:02:992
3.351883;-10.534488;0.622492;1.259397;-9.141434;-3.319406;2.092485;-1.393053;3.941899;1.604743;0.294437;0.627359;198.0;32.58;55.74;30.42;84.4474;65.6223;-163.33;0.0;1017.81;56.50307;;;;;;0 / 0;85.8;45.0;3.704;1938;2014-11-17 16:55:03:046
2.145205;-11.674128;-3.725378;1.080874;-9.466006;-2.323106;1.064331;-2.208121;-1.402271;1.947133;1.082453;0.552528;202.0;34.5;56.82;27.84;83.9182;74.8542;-155.0488;0.0;1017.81;59.83742;;;;;;0 / 0;85.8;45.0;3.704;1995;2014-11-17 16:55:03:103
1.034295;-9.500192;-1.302446;0.49906;-9.793852;-0.042701;0.535236;0.293659;-1.259745;2.006387;-0.080329;0.765109;211.0;40.56;57.54;17.28;65.3755;81.366;-142.9774;0.0;1017.81;59.83742;;;;;;0 / 0;85.8;45.0;3.704;2074;2014-11-17 16:55:03:182
1.254562;-9.318232;-1.015141;-0.001632;-9.762188;0.932764;1.256194;0.443955;-1.947905;1.546711;0.130114;0.937678;212.0;46.68;54.96;6.06;11.5026;87.0722;-94.8905;0.0;1017.77;59.83742;;;;;;0 / 0;85.8;45.0;3.704;2132;2014-11-17 16:55:03:240
1.024718;-7.393295;-0.641646;-0.355108;-9.64294;1.748712;1.379827;2.249647;-2.390358;1.153925;-0.295964;0.539699;220.0;52.08;48.48;-2.82;265.0832;79.5162;11.4789;0.0;1017.77;59.83742;;;;;;0 / 0;85.8;45.0;3.704;2209;2014-11-17 16:55:03:317
0.02873;-6.215348;0.612916;-0.548063;-9.514288;2.312651;0.576794;3.29894;-1.699735;0.703106;-0.259312;0.387289;220.0;54.06;44.76;-6.48;265.0832;79.5162;11.4789;0.0;1017.77;59.83742;;;;;;0 / 0;85.8;45.0;3.704;2260;2014-11-17 16:55:03:368
-0.92895;-8.350976;5.104438;-0.67482;-9.478026;2.425295;-0.254131;1.12705;2.679143;-0.203418;0.078191;0.229991;218.0;54.72;41.64;-9.3;258.3331;75.9743;13.3323;0.0;1017.73;59.83742;;;;;;0 / 0;85.8;45.0;3.704;2330;2014-11-17 16:55:03:438
-2.231396;-10.831368;5.171476;-0.690685;-9.519606;2.251766;-1.540711;-1.311762;2.91971;-0.051313;-0.69211;0.145691;215.0;55.32;36.18;-12.24;249.7023;76.1031;17.0524;0.0;1017.73;58.62409;;;;;;0 / 0;85.8;45.0;3.704;2393;2014-11-17 16:55:03:501
-1.762132;-8.513782;4.223372;-0.716284;-9.449754;2.5218;-1.045848;0.935972;1.701572;0.221133;-1.240056;0.10232;211.0;54.96;33.96;-13.56;249.7023;76.1031;17.0524;0.0;1017.69;58.62409;;;;;;0 / 0;85.8;45.0;3.704;2448;2014-11-17 16:55:03:556
3.916914;-10.601524;-0.92895;-0.498614;-9.441754;2.602888;4.415529;-1.15977;-3.531839;0.119119;-0.973108;0.28619;202.0;53.04;29.16;-16.92;247.7577;74.4949;15.8565;0.0;1017.69;58.62409;;;;;;0 / 0;85.8;45.0;3.704;2510;2014-11-17 16:55:03:618
-1.244985;-10.323798;-3.591303;-0.320528;-9.549032;2.209888;-0.924456;-0.774765;-5.801191;-0.494495;-1.991421;0.106596;191.0;51.36;26.64;-18.72;248.0005;76.8381;8.2528;0.0;1017.69;58.62409;;;;;;0 / 0;85.8;45.0;3.704;2569;2014-11-17 16:55:03:677
4.204219;-7.967903;-2.96881;-0.178808;-9.672048;1.609317;4.383026;1.704145;-4.578127;-1.819768;0.357662;-0.249233;186.0;47.4;23.04;-20.34;244.8167;80.4961;6.34;0.0;1017.72;58.62409;;;;;;0 / 0;85.8;45.0;3.704;2640;2014-11-17 16:55:03:748
-0.737414;-10.898406;0.632069;-0.059603;-9.789054;0.584162;-0.677811;-1.109352;0.047907;-0.949895;0.036957;-0.076969;186.0;46.08;22.8;-20.16;244.8167;80.4961;6.34;0.0;1017.72;61.03269;;;;;;0 / 0;85.8;45.0;3.704;2706;2014-11-17 16:55:03:814
0.124498;-9.557652;-1.599327;0.040015;-9.80593;-0.111864;0.084484;0.248277;-1.487463;-0.983798;-0.210749;-0.079718;186.0;45.6;23.64;-17.82;242.764;86.5671;5.8259;0.0;1017.72;61.03269;;;;;;0 / 0;85.8;45.0;3.704;2758;2014-11-17 16:55:03:866
-0.517148;-10.007762;-0.852336;0.131019;-9.77863;-0.729144;-0.648166;-0.229133;-0.123192;-0.995405;0.555887;-0.024435;186.0;45.6;24.24;-16.86;57.8082;85.6676;-169.8133;0.0;1017.71;61.03269;;;;;;0 / 0;85.8;45.0;3.704;2823;2014-11-17 16:55:03:931
-0.565032;-9.241618;-0.565032;0.194521;-9.72282;-1.264636;-0.759552;0.481202;0.699604;-0.656986;0.685391;-0.017715;189.0;46.2;25.14;-14.58;60.0384;82.503;-171.2555;0.0;1017.71;61.03269;;;;;;0 / 0;85.8;45.0;3.704;2878;2014-11-17 16:55:03:986
-0.986411;-9.605536;-1.455675;0.281354;-9.663774;-1.643981;-1.267765;0.058237;0.188306;-0.622777;0.287412;-0.091019;193.0;46.62;25.26;-12.84;60.0384;82.503;-171.2555;0.0;1017.71;61.03269;;;;;;0 / 0;85.8;45.0;3.704;2933;2014-11-17 16:55:04:041
0.632069;-8.619126;-2.30801;0.388772;-9.583496;-2.043488;0.243297;0.96437;-0.264522;-0.78038;0.050091;-0.056505;189.0;46.86;25.14;-10.74;62.9079;80.2077;-170.2884;0.0;1017.66;61.03269;;;;;;0 / 0;85.8;45.0;3.704;2999;2014-11-17 16:55:04:107
-0.095768;-9.931148;-0.488417;0.532761;-9.449092;-2.569287;-0.628529;-0.482057;2.08087;-1.159728;0.24007;-0.32498;191.0;46.44;25.38;-10.02;59.7107;74.4804;-168.2853;0.0;1017.66;61.03269;;;;;;0 / 0;85.8;45.0;3.704;3062;2014-11-17 16:55:04:170
-0.335188;-9.65342;-2.001553;0.739142;-9.270102;-3.112759;-1.07433;-0.38332;1.111206;-0.67073;0.198226;-0.022297;189.0;45.9;25.92;-8.88;57.8664;70.9593;-166.6422;0.0;1017.66;56.23935;;;;;;0 / 0;85.8;45.0;3.704;3117;2014-11-17 16:55:04:225
0.019154;-9.289502;-3.332729;0.823958;-9.129956;-3.48359;-0.804804;-0.159545;0.150862;-0.616974;0.262367;0.015577;187.0;45.48;25.86;-7.98;57.8664;70.9593;-166.6422;0.0;1017.72;56.23935;;;;;;0 / 0;85.8;45.0;3.704;3172;2014-11-17 16:55:04:280
-0.612916;-11.894394;-1.656788;0.936595;-9.013098;-3.749305;-1.54951;-2.881296;2.092517;-0.677144;1.229672;0.055894;189.0;44.64;23.64;-6.48;59.2339;68.5907;-166.6927;0.0;1017.72;56.23935;;;;;;0 / 0;85.8;45.0;3.704;3233;2014-11-17 16:55:04:341
-2.978387;-12.11466;1.685518;1.089538;-9.028562;-3.669925;-4.067924;-3.086098;5.355443;0.591623;0.663094;0.361021;189.0;43.74;22.02;-5.28;58.958;67.0223;-163.4647;0.0;1017.72;56.23935;;;;;;0 / 0;85.8;45.0;3.704;3308;2014-11-17 16:55:04:416
3.476381;-12.516886;-3.1795;0.741922;-9.622806;-1.738259;2.734459;-2.894081;-1.441241;2.258063;-0.016493;0.587652;197.0;41.52;16.8;-3.06;62.0103;71.3058;-161.6321;0.0;1017.77;56.23935;;;;;;0 / 0;85.8;45.0;3.704;3385;2014-11-17 16:55:04:493
3.476381;-12.516886;-3.1795;0.741922;-9.622806;-1.738259;2.734459;-2.894081;-1.441241;2.207667;0.791681;0.494495;201.0;36.78;8.7;0.0;64.8365;78.8882;-156.8863;0.0;1017.77;57.82433;;;;;;0 / 0;85.8;45.0;3.704;3438;2014-11-17 16:55:04:546
0.90022;-11.195286;-2.96881;0.541753;-9.779606;-0.486009;0.358467;-1.415681;-2.4828;2.127644;0.075136;0.52626;213.0;34.32;5.4;2.76;64.8365;78.8882;-156.8863;0.0;1017.77;57.82433;;;;;;0 / 0;85.8;45.0;3.704;3493;2014-11-17 16:55:04:601
0.172383;-9.011774;-2.135628;0.244456;-9.780116;0.678213;-0.072073;0.768341;-2.813841;1.518;-0.348193;0.543059;216.0;31.92;3.12;5.76;300.7071;85.7842;-19.8212;0.0;1017.75;57.82433;;;;;;0 / 0;85.8;45.0;3.704;3546;2014-11-17 16:55:04:654
0.708684;-7.5561;-2.020706;-0.014565;-9.683544;1.548921;0.723248;2.127444;-3.569627;1.240362;-0.635605;0.546724;216.0;28.62;2.52;11.22;290.8192;80.9119;0.5387;0.0;1017.75;57.82433;;;;;;0 / 0;85.8;45.0;3.704;3602;2014-11-17 16:55:04:710
0.134075;-7.240066;0.038307;-0.202429;-9.56915;2.1356;0.336504;2.329084;-2.097293;0.527177;-0.263283;0.465785;213.0;27.3;2.94;12.78;290.8192;80.9119;0.5387;0.0;1017.75;57.82433;;;;;;0 / 0;85.8;45.0;3.704;3664;2014-11-17 16:55:04:772
-0.086191;-6.531382;0.718261;-0.399743;-9.518726;2.32475;0.313552;2.987344;-1.60649;-0.294437;0.017104;0.290466;213.0;25.5;4.74;15.12;293.9445;77.3646;5.4148;0.0;1017.74;57.82433;;;;;;0 / 0;85.8;45.0;3.704;3725;2014-11-17 16:55:04:833
-0.833182;-9.83538;6.129156;-0.528943;-9.53957;2.210702;-0.30424;-0.29581;3.918454;-0.153327;-0.13775;0.211665;213.0;24.72;5.46;16.14;290.7764;76.5974;13.4559;0.0;1017.74;57.82433;;;;;;0 / 0;85.8;45.0;3.704;3787;2014-11-17 16:55:04:895
-2.001553;-9.83538;4.194642;-0.631807;-9.548466;2.144297;-1.369745;-0.286914;2.050345;0.197309;-0.622472;0.344528;211.0;22.62;6.36;17.88;293.5796;76.8235;16.4174;0.0;1017.74;60.06476;;;;;;0 / 0;85.8;45.0;3.704;3850;2014-11-17 16:55:04:958
-0.354342;-9.030928;3.993528;-0.676813;-9.513638;2.281006;0.322471;0.482711;1.712523;-0.089492;-1.296561;0.150578;204.0;21.72;7.02;18.84;293.5796;76.8235;16.4174;0.0;1017.73;60.06476;;;;;;0 / 0;85.8;45.0;3.704;3906;2014-11-17 16:55:05:014
0.814029;-10.840944;0.277727;-0.54498;-9.533042;2.234838;1.359008;-1.307902;-1.957111;-0.747394;-1.046412;-0.105069;197.0;20.1;9.42;20.7;301.1412;75.9587;16.5265;0.0;1017.73;60.06476;;;;;;0 / 0;85.8;45.0;3.704;3975;2014-11-17 16:55:05:083
-1.656788;-9.030928;-5.841852;-0.319149;-9.63847;1.780004;-1.337639;0.607542;-7.621856;-0.865901;-1.399187;0.442266;184.0;19.38;12.06;21.54;311.8109;79.3736;10.1649;0.0;1017.73;60.06476;;;;;;0 / 0;85.8;45.0;3.704;4029;2014-11-17 16:55:05:137
5.075708;-7.163451;-3.256114;-0.247409;-9.721996;1.261717;5.323116;2.558546;-4.517831;-1.559539;0.02138;-0.173486;183.0;20.04;13.8;22.2;311.8109;79.3736;10.1649;0.0;1017.73;60.06476;;;;;;0 / 0;85.8;45.0;3.704;4081;2014-11-17 16:55:05:189
-0.603339;-10.97502;-0.555455;-0.04604;-9.800964;0.330697;-0.557298;-1.174055;-0.886152;-0.936456;0.06353;-0.14844;180.0;20.58;16.38;24.06;310.4785;82.4663;11.0943;0.0;1017.73;60.06476;;;;;;0 / 0;85.8;45.0;3.704;4145;2014-11-17 16:55:05:253
-0.220267;-9.184156;-1.398214;0.061228;-9.80187;-0.29996;-0.281494;0.617713;-1.098254;-1.14018;0.282525;-0.020159;178.0;20.58;17.22;25.32;127.6823;88.2111;-168.4633;0.0;1017.73;62.15209;;;;;;0 / 0;85.8;45.0;3.704;4209;2014-11-17 16:55:05:317
-0.497994;-9.825804;-0.009577;0.106238;-9.762672;-0.921595;-0.604232;-0.06313;0.912018;-0.742201;0.916298;0.061697;180.0;20.04;17.82;27.96;135.7755;84.5718;-173.4242;0.0;1017.7;62.15209;;;;;;0 / 0;85.8;45.0;3.704;4270;2014-11-17 16:55:05:378
-1.072602;-8.887276;-2.020706;0.160789;-9.702274;-1.417875;-1.233391;0.814999;-0.602831;-0.859793;0.680809;-0.154243;183.0;20.04;17.88;28.92;135.7755;84.5718;-173.4242;0.0;1017.7;62.15209;;;;;;0 / 0;85.8;45.0;3.704;4321;2014-11-17 16:55:05:429
-1.130063;-9.471462;-1.924938;0.318765;-9.612284;-1.916444;-1.448828;0.140822;-0.008494;-0.80848;0.229991;-0.173486;186.0;19.8;18.0;30.48;136.6622;81.6332;-173.5302;0.0;1017.7;62.15209;;;;;;0 / 0;85.8;45.0;3.704;4375;2014-11-17 16:55:05:483
1.762132;-8.96389;-1.982399;0.433474;-9.506988;-2.366362;1.328658;0.543098;0.383963;-0.759305;-0.139888;-0.083689;186.0;19.08;18.54;32.94;133.6347;75.7994;-169.6195;0.0;1017.7;62.15209;;;;;;0 / 0;85.8;45.0;3.704;4427;2014-11-17 16:55:05:535
-0.727837;-9.710882;-1.417367;0.591776;-9.336802;-2.940119;-1.319613;-0.374079;1.522751;-1.167974;0.220522;-0.319788;180.0;18.84;18.72;34.56;133.6347;75.7994;-169.6195;0.0;1017.71;62.15209;;;;;;0 / 0;85.8;45.0;3.704;4484;2014-11-17 16:55:05:592
-0.229843;-9.873688;-1.714248;0.796474;-9.14577;-3.448325;-1.026318;-0.727918;1.734077;-0.743728;0.200058;0.10965;176.0;17.46;19.14;37.26;132.9821;68.8452;-166.9942;0.0;1017.71;62.15209;;;;;;0 / 0;85.8;45.0;3.704;4572;2014-11-17 16:55:05:680
1.005565;-9.940724;-2.671929;0.852137;-9.0069;-3.784178;0.153427;-0.933825;1.112249;-0.543975;0.954782;0.081856;176.0;16.74;19.92;39.54;132.9821;68.8452;-166.9942;0.0;1017.76;54.76424;;;;;;0 / 0;85.8;45.0;3.704;4633;2014-11-17 16:55:05:741
0.095768;-10.505756;1.647211;1.11818;-9.034118;-3.647567;-1.022412;-1.471639;5.294779;0.379042;0.421497;0.200058;178.0;15.18;21.6;43.08;133.3368;65.8941;-165.395;0.0;1017.76;54.76424;;;;;;0 / 0;85.8;45.0;3.704;4709;2014-11-17 16:55:05:817
5.21936;-10.821792;-1.666364;0.888064;-9.382262;-2.711979;4.331296;-1.439528;1.045615;1.678047;-0.105374;0.744339;180.0;14.46;23.58;44.16;134.289;67.1056;-162.9568;0.0;1017.76;54.76424;;;;;;0 / 0;85.8;45.0;3.704;4772;2014-11-17 16:55:05:880
5.21936;-10.821792;-1.666364;0.888064;-9.382262;-2.711979;4.331296;-1.439528;1.045615;2.327091;0.068111;0.557109;191.0;15.84;30.72;43.38;131.5226;73.0825;-161.8685;0.0;1017.83;54.76424;;;;;;0 / 0;85.8;45.0;3.704;4823;2014-11-17 16:55:05:931
0.861913;-10.601524;-2.499546;0.604273;-9.77074;-0.581271;0.25764;-0.830786;-1.918275;2.203697;1.303281;0.540005;197.0;17.1;35.7;40.56;131.5226;73.0825;-161.8685;0.0;1017.83;54.76424;;;;;;0 / 0;85.8;45.0;3.704;4880;2014-11-17 16:55:05:988
0.153229;-9.11712;-2.049437;0.159241;-9.79166;0.518124;-0.006012;0.674541;-2.56756;1.934305;0.142026;0.644157;197.0;21.54;43.92;31.44;101.2812;85.0952;-133.8885;0.0;1017.83;61.39324;;;;;;0 / 0;85.8;45.0;3.704;4944;2014-11-17 16:55:06:052
0.727837;-8.418014;-1.924938;0.004803;-9.758412;0.971476;0.723034;1.3404;-2.896414;1.499674;-0.706466;0.639271;205.0;24.0;46.26;26.52;322.887;84.3147;-0.2833;0.0;1017.73;61.39324;;;;;;0 / 0;85.8;45.0;3.704;4998;2014-11-17 16:55:06:106
0.641646;-6.885724;-0.670376;-0.234322;-9.652278;1.717271;0.875968;2.766555;-2.387647;1.289537;-0.764803;0.663094;209.0;27.0;47.22;21.24;322.887;84.3147;-0.2833;0.0;1017.73;61.39324;;;;;;0 / 0;85.8;45.0;3.704;5052;2014-11-17 16:55:06:160
-0.057461;-6.41646;1.407791;-0.455939;-9.593886;1.979865;0.398478;3.177426;-0.572074;0.238543;0.262672;0.4835;208.0;31.92;47.1;12.12;302.218;79.8203;7.77;0.0;1017.73;61.39324;;;;;;0 / 0;85.8;45.0;3.704;5111;2014-11-17 16:55:06:219
-1.292869;-8.389282;4.472369;-0.636477;-9.595496;1.921388;-0.656392;1.206213;2.55098;-0.617279;-0.017104;0.302989;211.0;33.84;46.62;9.12;287.1573;78.0432;12.9684;0.0;1017.76;61.39324;;;;;;0 / 0;85.8;45.0;3.704;5173;2014-11-17 16:55:06:281
-1.206678;-9.65342;4.76925;-0.755029;-9.50986;2.272199;-0.451649;-0.14356;2.497052;0.059865;-0.795041;0.114843;208.0;37.44;46.44;7.02;279.6694;75.868;18.3811;0.0;1017.76;61.39324;;;;;;0 / 0;85.8;45.0;3.704;5241;2014-11-17 16:55:06:349
-0.641646;-8.743624;4.395755;-0.629289;-9.407672;2.696307;-0.012357;0.664048;1.699447;0.058643;-0.983188;0.030543;202.0;38.82;46.56;6.3;279.6694;75.868;18.3811;0.0;1017.76;57.49246;;;;;;0 / 0;85.8;45.0;3.704;5302;2014-11-17 16:55:06:410
3.562572;-12.852074;-1.40779;-0.24021;-9.483026;2.486945;3.802782;-3.369047;-3.894735;-0.10232;-1.238835;0.049786;194.0;39.9;46.8;4.98;282.9512;73.6003;13.1371;0.0;1017.76;57.49246;;;;;;0 / 0;85.8;45.0;3.704;5359;2014-11-17 16:55:06:467
-2.126051;-7.632715;-5.420472;0.219733;-9.724684;1.246039;-2.345784;2.09197;-6.666511;-0.403171;-1.026864;-0.021686;191.0;40.98;45.78;-0.42;283.0048;77.0049;1.2578;0.0;1017.76;57.49246;;;;;;0 / 0;85.8;45.0;3.704;5411;2014-11-17 16:55:06:519
4.098873;-8.599972;-2.087744;1.55236;-9.60029;-1.26294;3.962342;3.538973;-2.074415;-1.324967;0.075136;0.456316;186.0;40.68;45.3;-1.44;283.0048;77.0049;1.2578;0.0;1017.76;57.49246;;;;;;0 / 0;85.8;45.0;3.704;5471;2014-11-17 16:55:06:579
-0.909797;-9.787496;-0.105345;0.920364;-9.639252;-1.551812;-1.444985;-0.077052;1.156111;-1.309695;0.003054;-0.347277;189.0;40.62;45.0;-0.72;31.5137;78.2252;-129.1305;0.0;1017.7;57.49246;;;;;;0 / 0;85.8;45.0;3.704;5528;2014-11-17 16:55:06:636
-0.909797;-9.260772;-1.924938;0.029474;-9.72419;-1.268718;-1.026028;0.463186;-0.65942;-0.988075;-0.074526;-0.074831;186.0;40.56;45.42;1.14;31.5137;78.2252;-129.1305;0.0;1017.7;57.49246;;;;;;0 / 0;85.8;45.0;3.704;5580;2014-11-17 16:55:06:688
0.612916;-10.141838;-0.612916;0.147964;-9.73747;-1.153337;0.171007;0.036196;0.173944;-0.870178;0.055283;0.04612;182.0;40.5;46.56;5.34;84.5421;82.5646;-178.6692;0.0;1017.7;57.49246;;;;;;0 / 0;85.8;45.0;3.704;5633;2014-11-17 16:55:06:741
0.095768;-9.241618;-0.90022;0.105849;-9.74769;-1.068512;-0.162914;0.483141;0.365063;-1.102001;0.766025;0.147524;182.0;40.86;46.8;7.62;85.4555;83.4064;-171.8333;0.0;1017.7;62.2847;;;;;;0 / 0;85.8;45.0;3.704;5683;2014-11-17 16:55:06:791
-1.580173;-9.528922;-0.948104;-0.199743;-9.744608;-1.08311;-1.570266;-0.011537;0.14497;-0.862236;0.626442;-0.120035;186.0;41.04;46.5;9.18;85.4555;83.4064;-171.8333;0.0;1017.74;62.2847;;;;;;0 / 0;85.8;45.0;3.704;5734;2014-11-17 16:55:06:842
-1.896208;-9.710882;-1.101333;-0.66184;-9.719368;-1.125268;-0.129046;0.289484;0.018243;-0.70219;0.139277;-0.108734;183.0;41.34;46.44;11.22;108.699;83.5516;169.5512;0.0;1017.74;62.2847;;;;;;0 / 0;85.8;45.0;3.704;5785;2014-11-17 16:55:06:893
1.216255;-9.23204;-1.752556;-0.269562;-9.714674;-1.312571;1.069054;0.62236;-0.337443;-0.697608;-0.132558;-0.114843;183.0;41.52;46.02;15.42;113.5801;82.1466;168.3946;0.0;1017.74;62.2847;;;;;;0 / 0;85.8;45.0;3.704;5842;2014-11-17 16:55:06:950
-0.143652;-8.7532;-2.049437;0.059623;-9.657416;-1.703268;-0.146442;0.872348;-0.292528;-0.902248;0.092546;-0.234878;180.0;41.46;46.02;16.86;113.5801;82.1466;168.3946;0.0;1017.73;62.2847;;;;;;0 / 0;85.8;45.0;3.704;5894;2014-11-17 16:55:07:002
0.737414;-9.414;-3.284845;0.292168;-9.49533;-2.433874;0.445246;0.081329;-0.850971;-0.732733;0.065057;-0.235489;178.0;41.22;45.12;19.5;96.8969;77.5373;-176.3809;0.0;1017.73;62.2847;;;;;;0 / 0;85.8;45.0;3.704;5961;2014-11-17 16:55:07:069
0.038307;-9.931148;-3.256114;0.228339;-9.441506;-2.641252;0.100602;-0.337228;-0.71478;-0.704328;0.398284;-0.085216;172.0;40.86;45.0;20.76;94.9604;75.0304;-173.0914;0.0;1017.73;62.2847;;;;;;0 / 0;85.8;45.0;3.704;6018;2014-11-17 16:55:07:126
-2.260126;-12.057198;-0.766144;-0.096934;-9.60524;-1.974937;-2.163192;-2.451959;1.208793;-0.786489;0.69211;-0.009468;172.0;40.74;44.58;22.68;94.9604;75.0304;-173.0914;0.0;1017.8;53.63042;;;;;;0 / 0;85.8;45.0;3.704;6080;2014-11-17 16:55:07:188
-4.031835;-12.469002;0.45011;-0.92215;-9.67153;-1.334744;-3.109685;-2.797473;1.784854;0.143248;1.193631;0.241597;175.0;39.6;43.14;27.78;115.5437;78.3677;177.1901;0.0;1017.8;53.63042;;;;;;0 / 0;85.8;45.0;3.704;6131;2014-11-17 16:55:07:239
4.568137;-10.429142;0.603339;-0.574345;-9.785206;-0.300439;5.142482;-0.643936;0.903778;0.95631;0.397979;0.569021;175.0;39.18;42.06;29.76;193.9951;78.9335;116.0971;0.0;1017.8;53.63042;;;;;;0 / 0;85.8;45.0;3.704;6184;2014-11-17 16:55:07:292
3.60088;-10.76433;-1.877054;1.38309;-9.68858;-0.623598;2.92897;-0.549808;-0.910531;2.146581;-0.034819;0.675312;180.0;38.88;41.1;30.66;193.9951;78.9335;116.0971;0.0;1017.79;53.63042;;;;;;0 / 0;85.8;45.0;3.704;6237;2014-11-17 16:55:07:345
3.20823;-12.5935;-3.169923;1.703391;-9.612484;-0.932191;1.931245;-2.031914;-2.009585;2.267532;1.008844;0.689667;180.0;39.3;39.96;30.6;57.034;81.1001;-114.2693;0.0;1017.79;53.63042;;;;;;0 / 0;85.8;45.0;3.704;6288;2014-11-17 16:55:07:396
-0.363919;-10.49618;-2.624045;1.090595;-9.6006;-1.676144;-1.373325;-2.217947;-1.575853;2.107791;0.229074;0.747394;198.0;40.2;38.52;28.14;64.999;76.9789;-129.0215;0.0;1017.79;53.63042;;;;;;0 / 0;85.8;45.0;3.704;6339;2014-11-17 16:55:07:447
0.593762;-8.954314;-2.375048;0.885256;-9.60715;-1.757668;-0.484928;0.928185;-0.43804;2.066863;-0.087048;0.742812;208.0;39.96;38.34;26.4;64.999;76.9789;-129.0215;0.0;1017.79;53.63042;;;;;;0 / 0;85.8;45.0;3.704;6391;2014-11-17 16:55:07:499
1.13964;-8.264784;-1.80044;0.755053;-9.581898;-1.946154;0.149914;1.312344;0.23147;1.788614;-0.61392;0.600175;219.0;39.54;38.58;24.12;84.5302;78.4232;-153.2677;0.0;1017.8;62.81739;;;;;;0 / 0;85.8;45.0;3.704;6444;2014-11-17 16:55:07:552
1.283292;-7.422025;-1.608903;0.936959;-9.577562;-1.887524;-0.719535;2.510384;0.680879;1.198823;-1.053437;0.659429;219.0;39.12;39.24;18.48;77.4352;77.5913;-153.6004;0.0;1017.8;62.81739;;;;;;0 / 0;85.8;45.0;3.704;6500;2014-11-17 16:55:07:608
-0.134075;-7.479486;1.235408;0.408716;-9.76269;-0.83259;-0.720547;2.435314;1.786416;0.535729;-0.329867;0.646601;216.0;39.54;39.54;15.96;77.4352;77.5913;-153.6004;0.0;1017.8;62.81739;;;;;;0 / 0;85.8;45.0;3.704;6563;2014-11-17 16:55:07:671
0.536301;-7.776367;2.413355;0.286104;-9.796954;0.328998;-0.102637;2.534477;1.147525;-0.094073;-0.109345;0.496023;222.0;40.74;39.3;13.32;78.1615;84.573;-153.8537;0.0;1017.8;62.81739;;;;;;0 / 0;85.8;45.0;3.704;6614;2014-11-17 16:55:07:722
-0.344765;-9.787496;6.512229;0.313408;-9.5378;2.25888;-1.691179;-1.15041;3.136939;-0.099571;-0.589485;0.096822;219.0;41.1;39.18;13.86;305.9309;76.5529;-7.8991;0.0;1017.8;62.81739;;;;;;0 / 0;85.8;45.0;3.704;6668;2014-11-17 16:55:07:776
-1.61848;-9.279924;3.007117;-0.636261;-9.219788;3.280411;-1.344377;-0.277276;-0.053095;0.265421;-0.988075;0.203113;213.0;40.98;39.24;13.98;305.9309;76.5529;-7.8991;0.0;1017.8;62.81739;;;;;;0 / 0;85.8;45.0;3.704;6730;2014-11-17 16:55:07:838
-0.775721;-7.575254;1.82917;-0.813339;-9.113744;3.528247;0.037617;1.538491;-1.699076;-0.018937;-0.950506;0.149967;211.0;40.62;39.84;13.98;293.736;70.0779;10.9767;0.0;1017.8;56.918;;;;;;0 / 0;85.8;45.0;3.704;6799;2014-11-17 16:55:07:907
2.413355;-11.128248;-2.135628;-0.292755;-9.57729;2.0881;2.706111;-1.550959;-4.223728;-0.979828;-0.928515;-0.200364;194.0;40.08;40.68;13.14;293.4693;68.3327;12.9812;0.0;1017.8;56.918;;;;;;0 / 0;85.8;45.0;3.704;6860;2014-11-17 16:55:07:968
-1.465251;-4.893748;-7.450755;0.470598;-9.764926;0.771438;-1.935849;4.871179;-8.222193;-0.653626;-1.850922;0.011301;189.0;39.72;41.46;12.72;304.9508;80.8961;-9.9634;0.0;1017.8;56.918;;;;;;0 / 0;85.8;45.0;3.704;6931;2014-11-17 16:55:08:039
-1.426944;-12.057198;0.411803;0.904197;-9.686886;-1.231698;-2.331141;-2.370314;1.643501;-1.479821;0.40592;-0.363159;183.0;38.7;43.26;14.1;62.0881;83.5954;-138.0926;0.0;1017.66;56.918;;;;;;0 / 0;85.8;45.0;3.704;7003;2014-11-17 16:55:08:111
-0.21069;-9.212888;-1.455675;0.036835;-9.755254;-1.002022;-0.247525;0.542366;-0.453652;-0.775188;-0.33506;-0.232129;186.0;37.74;45.36;17.94;88.2384;85.6112;-157.5962;0.0;1017.66;56.918;;;;;;0 / 0;85.8;45.0;3.704;7059;2014-11-17 16:55:08:167
0.785298;-9.797072;-0.373495;0.183541;-9.770534;-0.820589;0.27545;-0.045026;0.620072;-0.611171;-0.538478;0.048258;178.0;37.26;45.9;20.28;88.2384;85.6112;-157.5962;0.0;1017.66;56.918;;;;;;0 / 0;85.8;45.0;3.704;7115;2014-11-17 16:55:08:223
0.565032;-9.59596;-0.469264;0.426743;-9.769236;-0.741839;0.138288;0.173275;0.272576;-0.657291;0.201586;0.083689;172.0;36.96;46.32;21.48;101.7008;85.0812;-167.3921;0.0;1017.7;61.17588;;;;;;0 / 0;85.8;45.0;3.704;7172;2014-11-17 16:55:08:280
-1.034295;-9.643844;-0.612916;-0.411523;-9.778886;-0.611918;-0.622772;0.135041;-9.97E-4;-0.563523;0.523206;-0.032987;175.0;36.54;46.56;25.2;133.2524;86.0117;166.615;0.0;1017.7;61.17588;;;;;;0 / 0;85.8;45.0;3.704;7246;2014-11-17 16:55:08:354
0.612916;-9.528922;-0.47884;-0.234504;-9.784842;-0.610137;0.847419;0.255919;0.131296;-0.382402;-0.313679;-0.122173;171.0;36.12;46.56;27.66;159.3876;85.644;146.8533;0.0;1017.7;61.17588;;;;;;0 / 0;85.8;45.0;3.704;7309;2014-11-17 16:55:08:417
0.124498;-9.375694;-1.331176;0.13099;-9.752584;-1.019958;-0.006492;0.37689;-0.311218;-0.576351;-0.476169;-0.211665;164.0;35.7;46.62;29.46;159.3876;85.644;146.8533;0.0;1017.73;61.17588;;;;;;0 / 0;85.8;45.0;3.704;7373;2014-11-17 16:55:08:481
-0.057461;-9.768342;-0.545878;0.079979;-9.760648;-0.945397;-0.13744;-0.007694;0.399519;-0.934624;-0.135612;-0.373239;164.0;35.22;47.1;31.86;118.0043;83.9808;-172.6817;0.0;1017.73;61.17588;;;;;;0 / 0;85.8;45.0;3.704;7427;2014-11-17 16:55:08:535
0.833182;-9.270348;-1.561019;0.25337;-9.759294;-0.928624;0.579812;0.488947;-0.632396;-0.503048;-0.192423;-0.083689;155.0;34.68;46.92;33.42;120.8132;85.401;-171.4463;0.0;1017.73;61.17588;;;;;;0 / 0;85.8;45.0;3.704;7482;2014-11-17 16:55:08:590
0.258574;-9.691728;-2.451662;0.698465;-9.61797;-1.782468;-0.439891;-0.073757;-0.669195;-0.340557;0.503658;0.109345;155.0;33.78;46.56;36.6;105.0614;80.6625;-156.3677;0.0;1017.74;55.52657;;;;;;0 / 0;85.8;45.0;3.704;7550;2014-11-17 16:55:08:658
-1.493982;-10.812214;-0.047884;0.158942;-9.635998;-1.814572;-1.988112;-0.697376;0.445088;-0.690583;1.389718;-0.058338;147.0;33.06;46.38;38.34;105.0614;80.6625;-156.3677;0.0;1017.74;55.52657;;;;;;0 / 0;85.8;45.0;3.704;7602;2014-11-17 16:55:08:710
2.873042;-12.057198;0.555455;-0.020962;-9.806014;0.109632;2.894005;-2.251185;0.445823;1.22845;0.064141;0.463341;161.0;30.48;47.16;44.28;315.2915;89.3478;10.8247;0.0;1017.72;55.52657;;;;;;0 / 0;85.8;45.0;3.704;7706;2014-11-17 16:55:08:814
2.231396;-11.24317;-3.045424;1.565341;-9.65947;-0.644005;0.666055;-1.583701;-2.401419;1.79686;0.482584;0.304516;161.0;30.54;50.34;42.84;68.0749;80.0609;-112.363;0.0;1017.72;55.52657;;;;;;0 / 0;85.8;45.0;3.704;7778;2014-11-17 16:55:08:886
2.537854;-10.026916;-1.905785;2.050629;-9.518164;-1.170407;0.487225;-0.508753;-0.735377;1.753183;0.431271;0.29627;183.0;31.14;52.92;39.96;68.0749;80.0609;-112.363;0.0;1017.72;55.52657;;;;;;0 / 0;85.8;45.0;3.704;7836;2014-11-17 16:55:08:944
0.363919;-8.839392;-0.746991;1.393594;-9.62353;-1.271202;-0.924331;0.736254;0.821092;1.206153;0.496939;0.356134;183.0;31.32;55.38;36.66;65.5751;76.0681;-119.7158;0.0;1017.72;55.52657;;;;;;0 / 0;85.8;45.0;3.704;7896;2014-11-17 16:55:09:004
0.565032;-8.264784;-0.536301;1.02134;-9.707164;-0.947727;-0.609537;1.672224;0.641269;0.73426;-0.150884;0.400422;186.0;32.04;60.12;30.48;73.2171;80.7601;-132.1439;0.0;1017.72;58.31557;;;;;;0 / 0;85.8;45.0;3.704;7967;2014-11-17 16:55:09:075
0.354342;-8.293514;0.785298;0.870561;-9.750272;-0.587112;-0.516219;1.696178;1.34368;0.387899;-0.052229;0.287412;186.0;33.36;62.94;25.68;64.022;83.8533;-123.996;0.0;1017.72;58.31557;;;;;;0 / 0;85.8;45.0;3.704;8023;2014-11-17 16:55:09:131
0.191536;-8.236053;0.785298;0.635317;-9.785472;0.106146;-0.338436;1.434497;0.602538;0.083383;0.122478;0.219301;183.0;33.6;63.54;24.3;64.022;83.8533;-123.996;0.0;1017.75;58.31557;;;;;;0 / 0;85.8;45.0;3.704;8082;2014-11-17 16:55:09:190
-0.814029;-8.848968;1.771709;0.172552;-9.78239;0.667431;-0.986581;0.933421;1.104278;-0.341474;-0.092852;0.179289;183.0;34.68;64.44;23.28;3.7972;86.4357;-58.9351;0.0;1017.75;58.31557;;;;;;0 / 0;85.8;45.0;3.704;8139;2014-11-17 16:55:09:247
-1.158794;-9.270348;3.15077;-0.474227;-9.61503;1.86994;-0.973067;-0.01827;1.8276;-0.411723;-0.219606;0.200364;182.0;35.22;64.38;23.64;304.6785;82.0232;9.4753;0.0;1017.75;58.31557;;;;;;0 / 0;85.8;45.0;3.704;8198;2014-11-17 16:55:09:306
-0.057461;-11.15698;1.733402;-0.54026;-9.509666;2.333398;-0.188066;-0.444702;1.12355;-0.051313;-0.782824;0.156687;178.0;35.82;64.14;24.12;304.6785;82.0232;9.4753;0.0;1017.67;58.31557;;;;;;0 / 0;85.8;45.0;3.704;8252;2014-11-17 16:55:09:360
3.189077;-11.722012;-0.124498;0.414914;-9.678678;1.523623;2.527866;-2.029818;-1.464124;0.212887;-1.047328;0.203113;168.0;37.62;63.6;24.48;306.9293;75.8634;13.0362;0.0;1017.67;57.07418;;;;;;0 / 0;85.8;45.0;3.704;8308;2014-11-17 16:55:09:416
1.082179;-8.331821;0.861913;1.078734;-9.682204;1.123212;0.016929;1.349664;-0.280222;-0.046426;-1.303892;0.095295;158.0;40.2;63.24;22.02;343.1333;80.9013;-38.1033;0.0;1017.67;57.07418;;;;;;0 / 0;85.8;45.0;3.704;8389;2014-11-17 16:55:09:497
1.225831;-9.289502;2.767697;1.160021;-9.662654;1.207425;1.186296;0.97649;1.253815;-0.259312;-1.441642;-0.129503;142.0;41.16;63.18;20.4;342.7153;80.7371;-43.1327;0.0;1017.67;57.07418;;;;;;0 / 0;85.8;45.0;3.704;8451;2014-11-17 16:55:09:559
2.547431;-11.176132;3.859453;1.286983;-9.606476;1.493204;-1.574287;-0.966318;1.705449;-0.093768;-0.474031;0.217468;128.0;41.94;63.06;18.18;343.0805;79.0194;-45.7844;0.0;1017.67;57.07418;;;;;;0 / 0;85.8;45.0;3.704;8513;2014-11-17 16:55:09:621
2.126051;-10.342952;2.5187;1.227435;-9.611626;1.510114;-1.476432;1.471341;-0.705662;0.10232;-0.366825;-0.012523;128.0;42.06;62.82;17.64;343.0805;79.0194;-45.7844;0.0;1017.67;57.07418;;;;;;0 / 0;85.8;45.0;3.704;8565;2014-11-17 16:55:09:673
-0.727837;-9.825804;1.790863;0.95548;-9.609404;1.707873;-3.426296;0.865779;-1.947293;0.15852;0.077885;0.088881;131.0;42.24;62.88;17.22;334.4004;78.2412;-35.7745;0.0;1017.7;57.07418;;;;;;0 / 0;85.8;45.0;3.704;8620;2014-11-17 16:55:09:728
1.130063;-9.299078;2.853889;0.863455;-9.62995;1.639774;1.578631;-0.339504;2.047297;-0.359189;0.127976;0.179289;131.0;42.72;62.94;16.44;325.7866;79.1269;-27.4354;0.0;1017.7;62.16135;;;;;;0 / 0;85.8;45.0;3.704;8687;2014-11-17 16:55:09:795
-0.105345;-9.979032;2.011129;0.851196;-9.627782;1.65881;-0.23828;-0.533209;0.869467;-0.023824;-0.328035;0.048869;122.0;43.26;62.64;16.92;326.5145;79.0401;-27.164;0.0;1017.7;62.16135;;;;;;0 / 0;85.8;45.0;3.704;8751;2014-11-17 16:55:09:859
-0.076614;-9.959878;1.130063;0.681238;-9.648086;1.618867;-0.805737;0.109587;-0.785685;-0.051313;0.140804;0.125838;120.0;43.86;62.64;17.88;322.9022;79.6827;-22.8219;0.0;1017.77;62.16135;;;;;;0 / 0;85.8;45.0;3.704;8838;2014-11-17 16:55:09:946
0.92895;-9.500192;1.254562;0.668023;-9.660468;1.549031;0.260927;0.160276;-0.294469;-0.064752;-0.199447;0.078802;121.0;43.92;62.94;18.0;322.9022;79.6827;-22.8219;0.0;1017.77;62.16135;;;;;;0 / 0;85.8;45.0;3.704;8891;2014-11-17 16:55:09:999
0.603339;-9.643844;1.647211;0.684297;-9.66598;1.506975;-0.080959;0.022136;0.140236;-0.137445;0.03146;0.026267;121.0;43.86;62.76;18.18;323.89;80.2837;-24.4222;0.0;1017.73;62.16135;;;;;;0 / 0;85.8;45.0;3.704;8947;2014-11-17 16:55:10:055
-0.095768;-9.701304;1.503559;0.646269;-9.672674;1.480577;-0.636692;-0.057362;-0.149401;-0.027489;0.036346;0.046731;122.0;43.8;63.24;18.78;323.9233;80.5183;-23.5812;0.0;1017.73;62.16135;;;;;;0 / 0;85.8;45.0;3.704;9010;2014-11-17 16:55:10:118
0.335188;-9.461884;1.551443;0.604601;-9.677402;1.467234;-0.269413;0.215516;0.084209;-0.06353;0.027489;0.080634;122.0;43.68;63.06;18.84;323.9233;80.5183;-23.5812;0.0;1017.73;55.34749;;;;;;0 / 0;85.8;45.0;3.704;9067;2014-11-17 16:55:10:175
0.277727;-9.739612;1.723825;0.57918;-9.675722;1.4884;-0.301453;-0.06389;0.235425;0.008552;0.014355;0.072082;124.0;44.16;63.06;19.26;322.4701;80.6931;-22.0033;0.0;1017.74;55.34749;;;;;;0 / 0;85.8;45.0;3.704;9134;2014-11-17 16:55:10:242
0.42138;-9.414;1.254562;0.548728;-9.678724;1.480394;-0.127348;0.264724;-0.225832;-0.034514;0.107818;0.092546;125.0;44.04;63.12;19.02;321.3783;80.6604;-20.7035;0.0;1017.74;55.34749;;;;;;0 / 0;85.8;45.0;3.704;9210;2014-11-17 16:55:10:318
0.344765;-9.586384;1.666364;0.507034;-9.679912;1.487485;-0.162269;0.093529;0.178879;-0.015577;0.031154;0.075442;126.0;44.28;63.54;19.32;320.0984;80.8041;-19.197;0.0;1017.74;55.34749;;;;;;0 / 0;85.8;45.0;3.704;9274;2014-11-17 16:55:10:382
-0.019154;-9.83538;1.877054;0.486068;-9.685432;1.458257;-0.210042;-0.110517;0.206579;-0.173791;-0.092241;0.022297;128.0;43.86;63.54;19.74;320.3404;80.8197;-18.4693;0.0;1017.71;55.34749;;;;;;0 / 0;85.8;45.0;3.704;9344;2014-11-17 16:55:10:452
0.143652;-9.749188;1.465252;0.485576;-9.684372;1.465452;0.090018;0.25044;-0.427039;-0.002443;-0.084299;0.069028;126.0;43.98;63.6;19.98;320.1406;80.9426;-18.3326;0.0;1017.71;64.21497;;;;;;0 / 0;85.8;45.0;3.704;9406;2014-11-17 16:55:10:514