ACCELEROMETER X (m/s²),ACCELEROMETER Y (m/s²),ACCELEROMETER Z (m/s²),GRAVITY X (m/s²),GRAVITY Y (m/s²),GRAVITY Z (m/s²),LINEAR ACCELERATION X (m/s²),LINEAR ACCELERATION Y (m/s²),LINEAR ACCELERATION Z (m/s²),MAGNETIC FIELD X (μT),MAGNETIC FIELD Y (μT),MAGNETIC FIELD Z (μT),ORIENTATION X (°),ORIENTATION Y (°),ORIENTATION Z (°),PROXIMITY (i),SOUND LEVEL (dB),LOCATION Latitude : ,LOCATION Longitude : ,LOCATION Altitude ( m),LOCATION Altitude-google ( m),LOCATION Speed ( Kmh),LOCATION Accuracy ( m),LOCATION ORIENTATION (°),Satellites in range,Time since start in ms ,YYYY-MO-DD HH-MI-SS_SSS
0.1706,-9.7698,0.2476,0.1892,-9.8047,0.0528,0.0626,-0.0868,0.1005,13.05,33.46,-25.42,299.37,88.72,-90.6,0.0,67.517,35.177998,126.90893,,154.974967755247,,69.635,,0 / 20,9,2014-12-14 14:11:30:754
0.5347,-9.674,0.4583,0.2415,-9.8032,0.092,0.3066,0.0526,0.3152,13.8,35.65,-21.42,286.54,88.85,-74.42,0.0,67.517,35.177998,126.90893,,154.974967755247,,69.635,,0 / 20,59,2014-12-14 14:11:30:804
0.7645,-9.7507,0.8606,0.3312,-9.7997,0.161,0.6552,-0.2011,0.4747,14.55,36.03,-22.36,285.39,88.49,-69.14,0.0,67.517,35.177998,126.90893,,154.974967755247,,69.635,,0 / 20,109,2014-12-14 14:11:30:854
1.0902,-9.9039,1.2629,0.4007,-9.795,0.2603,0.5698,-0.1215,0.833,13.8,35.28,-22.11,285.39,88.49,-69.14,0.0,67.517,35.177998,126.90893,,154.974967755247,,69.635,,0 / 20,159,2014-12-14 14:11:30:904
3.1593,-10.4595,2.719,0.737,-9.7578,0.6419,2.3782,-0.5932,2.1292,14.93,36.03,-21.55,276.4,87.21,-56.99,0.0,67.517,35.177998,126.90893,,154.974967755247,,69.635,,0 / 20,209,2014-12-14 14:11:30:954
2.5079,-11.0918,2.0101,0.9914,-9.7205,0.8358,1.6463,-0.9675,1.2129,14.18,34.9,-21.11,270.61,84.28,-48.94,0.0,67.517,35.177998,126.90893,,154.974967755247,,69.635,,0 / 20,259,2014-12-14 14:11:31:004
1.3968,-11.3983,0.8606,1.0403,-9.7114,0.8818,0.8578,-1.3211,0.7909,14.55,34.21,-21.49,270.61,84.28,-48.94,0.0,66.402,35.177998,126.90893,,154.974967755247,,69.635,,0 / 20,309,2014-12-14 14:11:31:054
-0.8256,-10.8235,1.0522,0.5566,-9.7789,0.4833,-1.4977,-0.5585,0.069,14.18,33.09,-23.24,272.7,82.01,-49.72,0.0,66.402,35.177998,126.90893,,154.974967755247,,69.635,,0 / 20,359,2014-12-14 14:11:31:104
-0.155,-10.8618,1.9143,0.4536,-9.7752,0.6406,-0.516,-0.5398,1.2929,13.8,33.46,-24.11,264.42,85.69,-49.03,0.0,66.402,35.177998,126.90893,,154.974967755247,,69.635,,0 / 20,409,2014-12-14 14:11:31:154
0.2664,-7.0877,0.2859,0.3752,-9.7703,0.7555,-0.3903,2.5106,0.0124,12.3,32.71,-25.36,242.2,85.2,-31.4,0.0,66.402,35.177998,126.90893,,154.974967755247,,69.635,,0 / 20,459,2014-12-14 14:11:31:204
0.8795,-6.8578,0.1326,0.381,-9.7713,0.74,0.5378,2.858,-0.6085,11.93,31.21,-26.74,242.2,85.2,-31.4,0.0,66.402,35.177998,126.90893,,154.974967755247,,69.635,,0 / 20,509,2014-12-14 14:11:31:254
0.9178,-6.5321,0.9181,0.4985,-9.7697,0.6886,0.7197,2.8603,-0.0685,11.24,31.21,-26.3,243.84,85.03,-35.9,0.0,66.402,35.177998,126.90893,,154.974967755247,,69.635,,0 / 20,559,2014-12-14 14:11:31:304
1.1669,-7.5475,2.4124,0.7152,-9.7343,0.9497,0.6196,1.3095,1.4106,12.3,31.96,-27.24,248.14,83.04,-36.98,0.0,66.402,35.177998,126.90893,,154.974967755247,,69.635,,0 / 20,609,2014-12-14 14:11:31:354
0.9944,-8.8694,4.4624,0.7531,-9.6775,1.3963,0.322,-0.1371,3.3356,12.68,30.84,-25.92,248.14,83.04,-36.98,0.0,65.57,35.177998,126.90893,,154.974967755247,,69.635,,0 / 20,659,2014-12-14 14:11:31:404
1.8566,-9.6166,4.654,0.9448,-9.5396,2.0673,1.0342,-0.749,2.832,11.62,30.53,-26.99,240.37,79.25,-26.04,0.0,65.57,35.177998,126.90893,,154.974967755247,,69.635,,0 / 20,709,2014-12-14 14:11:31:454
0.4963,-8.1797,2.5465,0.9659,-9.4967,2.2473,-0.1368,0.5637,0.7539,12.68,31.59,-25.49,246.93,75.56,-23.26,0.0,65.57,35.177998,126.90893,,154.974967755247,,69.635,,0 / 20,759,2014-12-14 14:11:31:504
-3.6993,-11.3791,-0.1548,0.6694,-9.5349,2.1927,-3.0929,-1.6953,-1.2463,11.93,30.84,-23.18,246.93,75.56,-23.26,0.0,65.57,35.177998,126.90893,,154.974967755247,,69.635,,0 / 20,809,2014-12-14 14:11:31:554
3.6,-4.9994,-7.2242,0.4509,-9.4746,2.4897,3.4292,-10.315,6.2052,12.68,34.9,-23.42,243.58,76.48,-16.98,0.0,65.57,35.177998,126.90893,,154.974967755247,,69.635,,0 / 20,859,2014-12-14 14:11:31:604
-12.6846,1.0354,-10.596,-0.3175,-9.7705,0.7792,-12.7027,10.7587,-12.2182,11.93,32.71,-21.68,247.39,75.76,-20.26,0.0,65.57,35.177998,126.90893,,154.974967755247,,69.635,,0 / 20,909,2014-12-14 14:11:31:654
5.056,-17.0117,0.42,-0.0716,-9.7973,0.422,4.0183,-6.3949,-0.8468,11.24,35.28,-19.92,247.39,75.76,-20.26,0.0,64.853,35.177998,126.90893,,154.974967755247,,69.635,,0 / 20,959,2014-12-14 14:11:31:704
2.2206,-9.5591,-0.4613,-0.2818,-9.8017,-0.135,1.7863,-0.1362,-0.4607,13.8,36.03,-16.86,151.16,88.34,62.7,0.0,64.853,35.177998,126.90893,,154.974967755247,,69.635,,0 / 20,1009,2014-12-14 14:11:31:754
2.1631,-10.5936,-0.2889,-0.2151,-9.799,-0.3225,0.1568,-0.5652,-1.0494,13.8,38.21,-14.86,104.14,88.17,115.6,0.0,64.853,35.177998,126.90893,,154.974967755247,,69.635,,0 / 20,1059,2014-12-14 14:11:31:804
-1.2854,-8.7928,-2.1281,-0.0111,-9.7971,-0.4336,-0.8135,0.3545,-1.4274,14.18,37.53,-12.92,54.04,88.13,170.07,0.0,64.853,35.177998,126.90893,,154.974967755247,,69.635,,0 / 20,1109,2014-12-14 14:11:31:854
-0.9405,-8.8694,-3.0094,-0.1907,-9.7756,-0.7565,-0.694,0.4626,-2.3731,13.43,36.4,-11.55,54.04,88.13,170.07,0.0,64.853,35.177998,126.90893,,154.974967755247,,69.635,,0 / 20,1159,2014-12-14 14:11:31:904
-1.9942,-9.3867,-1.3043,-0.456,-9.7359,-1.0834,-1.5703,-0.0263,-0.5129,14.93,37.9,-10.49,60.07,85.44,165.85,0.0,64.853,35.177998,126.90893,,154.974967755247,,69.635,,0 / 20,1209,2014-12-14 14:11:31:954
-0.5765,-9.9231,-1.7258,-0.5275,-9.7277,-1.124,-0.135,-0.5183,-0.5423,14.93,37.53,-9.24,67.95,83.12,157.17,0.0,64.853,35.177998,126.90893,,154.974967755247,,69.635,,0 / 20,1259,2014-12-14 14:11:32:004
-0.0018,-11.0726,-1.515,-0.5417,-9.7318,-1.0813,0.3573,-0.8327,-0.0892,14.55,38.28,-8.24,72.91,82.69,153.27,0.0,69.637,35.177998,126.90893,,154.974967755247,,69.635,,0 / 20,1309,2014-12-14 14:11:32:054
0.3622,-11.6282,0.1901,-0.4556,-9.7408,-1.039,0.5771,-1.8741,0.7252,16.74,37.53,-8.49,72.91,82.69,153.27,0.0,69.637,35.177998,126.90893,,154.974967755247,,69.635,,0 / 20,1359,2014-12-14 14:11:32:104
4.5387,-14.3295,0.4008,0.0258,-9.7697,-0.8506,3.2625,-3.4124,0.8371,15.99,37.9,-8.49,71.24,84.02,160.13,0.0,69.637,35.177998,126.90893,,154.974967755247,,69.635,,0 / 20,1409,2014-12-14 14:11:32:154
0.8795,-14.0421,3.4278,0.5796,-9.7791,-0.4506,3.7833,-3.9229,3.9428,14.93,38.59,-9.42,71.24,84.02,160.13,0.0,69.637,35.177998,126.90893,,154.974967755247,,69.635,,0 / 20,1459,2014-12-14 14:11:32:204
1.2627,-10.3063,-1.7258,0.662,-9.7822,-0.2012,0.5838,0.7217,-2.2315,14.18,38.59,-14.24,337.11,86.06,-102.71,0.0,69.637,35.177998,126.90893,,154.974967755247,,69.635,,0 / 20,1509,2014-12-14 14:11:32:254
-4.0442,-14.8085,-3.7948,0.3906,-9.7776,-0.646,-3.5357,-3.4731,-3.1067,11.62,39.34,-16.67,3.56,85.59,-148.84,0.0,69.637,35.177998,126.90893,,154.974967755247,,69.635,,0 / 20,1559,2014-12-14 14:11:32:304
-3.3162,-14.0804,-2.2239,-0.2046,-9.7675,-0.8516,-3.1656,-1.8502,-1.5395,8.99,38.59,-20.36,12.66,85.4,-170.18,0.0,69.637,35.177998,126.90893,,154.974967755247,,69.635,,0 / 20,1609,2014-12-14 14:11:32:354
-1.2662,-9.0226,-3.9098,-0.4575,-9.7321,-1.117,-1.6126,1.8286,-2.3465,7.55,36.03,-22.11,12.66,85.4,-170.18,0.0,69.789,35.177998,126.90893,,154.974967755247,,69.635,,0 / 20,1659,2014-12-14 14:11:32:404
-1.3237,-7.7965,-3.7182,-0.6249,-9.6661,-1.5316,-1.3065,3.7022,-1.5805,6.8,35.65,-27.17,32.03,82.93,157.72,0.0,69.789,35.177998,126.90893,,154.974967755247,,69.635,,0 / 20,1709,2014-12-14 14:11:32:454
-4.0442,-3.6392,-4.3121,-0.9631,-9.588,-1.8202,-2.4982,5.659,-1.7338,7.18,34.9,-28.67,30.36,80.29,157.81,0.0,69.789,35.177998,126.90893,,154.974967755247,,69.635,,0 / 20,1759,2014-12-14 14:11:32:504
-4.0442,-2.3939,-4.7144,-1.4533,-9.4263,-2.2809,-2.4298,6.7001,-2.1291,7.55,33.09,-29.11,38.1,73.99,147.5,0.0,69.789,35.177998,126.90893,,154.974967755247,,69.635,,0 / 20,1809,2014-12-14 14:11:32:554
-3.5844,-2.7387,-1.994,-1.9057,-9.2361,-2.6894,-1.8587,6.2181,-0.6702,8.24,33.46,-27.8,38.1,73.99,147.5,0.0,69.789,35.177998,126.90893,,154.974967755247,,69.635,,0 / 20,1859,2014-12-14 14:11:32:604
1.0136,-11.1492,5.5544,-2.0215,-9.346,-2.1764,0.6993,-0.9329,6.0684,8.99,35.28,-26.92,39.74,70.36,144.68,0.0,69.789,35.177998,126.90893,,154.974967755247,,69.635,,0 / 20,1909,2014-12-14 14:11:32:654
6.3588,-15.5939,15.8807,-0.8301,-9.7714,0.0454,9.3829,-6.191,18.0669,11.62,38.21,-25.17,39.74,70.36,144.68,0.0,69.789,35.177998,126.90893,,154.974967755247,,69.635,,0 / 20,1959,2014-12-14 14:11:32:704
-1.5153,-2.7771,-8.048,-0.0285,-9.6636,1.6684,-0.5638,4.6147,-4.6166,9.74,37.53,-28.24,109.12,85.14,86.87,0.0,67.04,35.177998,126.90893,,154.974967755247,,69.635,,0 / 20,2009,2014-12-14 14:11:32:754
-12.6079,-20.1919,5.9567,-1.4757,-9.6869,0.3961,-12.1396,-6.6377,-2.4805,9.74,39.34,-23.86,209.17,80.2,0.98,0.0,67.04,35.177998,126.90893,,154.974967755247,,69.635,,0 / 20,2059,2014-12-14 14:11:32:804
5.7074,-15.4024,-3.3159,-0.7354,-9.7402,0.8711,8.9238,-15.1902,7.7212,12.3,40.46,-21.92,209.17,80.2,0.98,0.0,67.04,35.177998,126.90893,,154.974967755247,,69.635,,0 / 20,2109,2014-12-14 14:11:32:854
4.5196,-11.3791,0.0177,-1.5948,-9.5699,-1.4295,2.4781,1.4737,-1.5589,12.68,44.53,-18.86,168.07,83.32,40.17,0.0,67.04,35.177998,126.90893,,154.974967755247,,69.635,,0 / 20,2159,2014-12-14 14:11:32:904
2.1056,-10.0572,-3.8715,-1.1589,-9.652,-1.291,5.1288,-6.395,1.1217,11.99,43.4,-16.86,60.4,77.39,131.87,0.0,67.04,35.177998,126.90893,,154.974967755247,,69.635,,0 / 20,2209,2014-12-14 14:11:32:954
-2.5498,-8.2755,-1.6874,-0.9495,-9.6075,-1.7218,0.2142,1.038,-3.5615,14.93,44.53,-14.86,54.02,78.43,151.13,0.0,67.04,35.177998,126.90893,,154.974967755247,,69.635,,0 / 20,2259,2014-12-14 14:11:33:004
1.7416,-9.9039,-2.4729,-1.1124,-9.6186,-1.5545,-1.2641,0.5824,-0.0189,14.18,47.09,-12.05,54.02,78.43,151.13,0.0,68.917,35.177998,126.90893,,154.974967755247,,69.635,,0 / 20,2311,2014-12-14 14:11:33:056
0.2856,-9.5399,-1.7066,-0.6663,-9.6369,-1.6903,0.8681,-0.0359,-0.1155,14.93,46.34,-10.3,57.09,79.31,152.53,0.0,68.917,35.177998,126.90893,,154.974967755247,,69.635,,0 / 20,2359,2014-12-14 14:11:33:104
0.2473,-9.6357,-0.9977,-0.5672,-9.6491,-1.6565,1.3623,-0.1776,0.463,15.68,46.71,-8.99,57.12,79.72,161.1,0.0,68.917,35.177998,126.90893,,154.974967755247,,69.635,,0 / 20,2409,2014-12-14 14:11:33:154
-1.3046,-9.789,-0.8636,-0.6646,-9.6736,-1.4666,-0.7194,-0.3228,0.6474,17.87,46.03,-9.67,65.83,80.55,155.62,0.0,68.917,35.177998,126.90893,,154.974967755247,,69.635,,0 / 20,2459,2014-12-14 14:11:33:204
0.4772,-9.8273,-1.3617,-0.6952,-9.6759,-1.4363,-0.4197,0.0179,0.4262,17.12,47.84,-8.8,65.83,80.55,155.62,0.0,68.917,35.177998,126.90893,,154.974967755247,,69.635,,0 / 20,2509,2014-12-14 14:11:33:254
0.8603,-11.2642,-0.7678,-0.3335,-9.7133,-1.3078,1.1185,-1.126,0.7233,18.99,48.21,-12.3,56.88,81.15,161.28,0.0,68.917,35.177998,126.90893,,154.974967755247,,69.635,,0 / 20,2559,2014-12-14 14:11:33:304
2.9486,-13.4482,1.0905,-0.221,-9.7292,-1.2101,1.5364,-2.761,1.0683,18.62,47.84,-9.61,61.05,82.09,165.69,0.0,68.917,35.177998,126.90893,,154.974967755247,,69.635,,0 / 20,2609,2014-12-14 14:11:33:354
5.9373,-14.0613,4.2325,0.6992,-9.7671,-0.5337,5.6454,-4.0782,4.1595,17.49,48.21,-13.8,61.05,82.09,165.69,0.0,67.239,35.177998,126.90893,,154.974967755247,,69.635,,0 / 20,2659,2014-12-14 14:11:33:404
-2.09,-13.1417,-5.9406,0.7481,-9.7518,-0.7161,-3.0284,-3.0858,-4.3366,14.18,46.71,-20.11,352.07,84.85,-127.35,0.0,67.239,35.177998,126.90893,,154.974967755247,,69.635,,0 / 20,2709,2014-12-14 14:11:33:454
-5.5002,-16.1879,-2.607,0.1408,-9.7678,-0.8608,-4.695,-3.8926,-1.9439,11.93,44.9,-24.74,342.29,83.94,-133.75,0.0,67.239,35.177998,126.90893,,154.974967755247,,69.635,,0 / 20,2759,2014-12-14 14:11:33:504
-3.048,-11.3025,-3.8715,-0.3177,-9.7379,-1.1145,-2.3626,0.8966,-2.586,7.93,40.46,-31.3,12.93,84.9,-179.83,0.0,67.239,35.177998,126.90893,,154.974967755247,,69.635,,0 / 20,2809,2014-12-14 14:11:33:554
-1.6877,-10.2679,-3.6991,-0.4205,-9.6973,-1.3983,-0.3698,2.8415,-2.1238,6.05,38.59,-35.17,12.93,84.9,-179.83,0.0,67.239,35.177998,126.90893,,154.974967755247,,69.635,,0 / 20,2859,2014-12-14 14:11:33:604
-3.1437,-5.6891,-3.8906,-0.6001,-9.6349,-1.7261,-1.9325,4.8337,-1.9321,7.18,34.9,-35.17,23.52,81.44,163.26,0.0,67.239,35.177998,126.90893,,154.974967755247,,69.635,,0 / 20,2909,2014-12-14 14:11:33:654
-4.025,-3.7733,-4.4079,-1.1861,-9.4613,-2.2905,-2.818,6.2549,-2.026,8.62,32.34,-36.3,29.13,79.26,160.83,0.0,69.752,35.177998,126.90893,,154.974967755247,,69.635,,0 / 20,2959,2014-12-14 14:11:33:704
-3.9867,-2.3556,-4.5037,-1.4164,-9.3725,-2.514,-2.5699,6.6311,-1.8458,8.99,31.21,-35.17,29.13,79.26,160.83,0.0,69.752,35.177998,126.90893,,154.974967755247,,69.635,,0 / 20,3009,2014-12-14 14:11:33:754
-2.7414,-9.9806,3.1021,-2.2099,-9.1836,-2.636,-1.3408,-0.2991,4.0395,10.49,33.78,-32.68,35.96,72.89,150.6,0.0,69.752,35.177998,126.90893,,154.974967755247,,69.635,,0 / 20,3060,2014-12-14 14:11:33:805
13.2749,-20.5943,22.9118,-0.8485,-9.7699,0.0203,13.5902,-10.985,22.6841,12.68,34.9,-31.67,48.06,69.47,140.02,0.0,69.752,35.177998,126.90893,,154.974967755247,,69.635,,0 / 20,3109,2014-12-14 14:11:33:854
-0.9405,-9.2909,3.5811,-0.3867,-9.7062,1.3454,-0.0591,-1.2515,5.2979,11.62,34.15,-31.8,48.06,69.47,140.02,0.0,69.752,35.177998,126.90893,,154.974967755247,,69.635,,0 / 20,3159,2014-12-14 14:11:33:904
-11.401,-16.1495,1.8377,-0.8062,-9.698,1.2118,-5.6164,-2.4294,-2.753,11.62,33.46,-32.05,185.31,81.79,16.04,0.0,69.752,35.177998,126.90893,,154.974967755247,,69.635,,0 / 20,3209,2014-12-14 14:11:33:954
4.8261,-7.3176,-11.0175,-0.8445,-9.753,0.579,3.1551,-3.1196,-7.9049,11.62,31.96,-29.99,185.31,81.79,16.04,0.0,69.752,35.177998,126.90893,,154.974967755247,,69.635,,0 / 20,3259,2014-12-14 14:11:34:004
0.0748,-13.0076,0.8415,-1.6848,-9.5059,-1.7232,-4.499,2.9803,-5.0649,11.62,34.9,-25.67,142.3,84.01,55.57,0.0,66.072,35.177998,126.90893,,154.974967755247,,69.635,,0 / 20,3309,2014-12-14 14:11:34:054
-0.6532,-9.0418,-4.3504,-1.2903,-9.536,-1.8896,1.1053,-0.1187,-0.7383,12.3,35.28,-24.8,54.3,77.18,138.65,0.0,66.072,35.177998,126.90893,,154.974967755247,,69.635,,0 / 20,3359,2014-12-14 14:11:34:104
-0.4041,-8.7544,-1.5533,-1.1824,-9.5557,-1.8601,1.5351,-0.1458,0.4398,13.43,38.59,-24.11,48.8,76.51,145.67,0.0,66.072,35.177998,126.90893,,154.974967755247,,69.635,,0 / 20,3409,2014-12-14 14:11:34:154
1.1094,-9.5208,-1.0169,-0.9434,-9.6208,-1.6495,1.8019,-0.2782,1.2607,11.99,38.96,-20.92,48.8,76.51,145.67,0.0,66.072,35.177998,126.90893,,154.974967755247,,69.635,,0 / 20,3459,2014-12-14 14:11:34:204
1.3585,-9.8273,-1.5725,-0.7372,-9.6268,-1.7179,1.3423,0.1463,-0.4932,12.3,38.21,-17.05,49.69,78.83,150.23,0.0,66.072,35.177998,126.90893,,154.974967755247,,69.635,,0 / 20,3509,2014-12-14 14:11:34:254
-2.2242,-9.0226,-1.2468,-0.5718,-9.6382,-1.7173,-1.4898,0.4727,0.136,13.8,39.71,-17.3,42.27,79.63,164.88,0.0,66.072,35.177998,126.90893,,154.974967755247,,69.635,,0 / 20,3559,2014-12-14 14:11:34:304
-1.0938,-10.2679,0.0943,-0.644,-9.6663,-1.5228,-0.216,-0.5407,1.5386,11.99,38.21,-16.61,42.27,79.63,164.88,0.0,66.072,35.177998,126.90893,,154.974967755247,,69.635,,0 / 20,3609,2014-12-14 14:11:34:354
-0.155,-9.9614,-0.8253,-0.6394,-9.6883,-1.3781,0.4722,-0.3575,0.6111,11.93,37.9,-15.05,47.62,80.29,157.08,0.0,68.723,35.177998,126.90893,,154.974967755247,,69.635,,0 / 20,3659,2014-12-14 14:11:34:404
2.029,-11.1492,-1.2085,-0.3331,-9.7083,-1.3447,2.2206,-1.2184,0.4135,13.05,36.4,-17.3,47.62,80.29,157.08,0.0,68.723,35.177998,126.90893,,154.974967755247,,69.635,,0 / 20,3709,2014-12-14 14:11:34:454
2.7187,-13.544,0.669,-0.1034,-9.7383,-1.1512,2.2182,-3.2012,1.6595,12.68,37.9,-15.74,43.01,81.88,166.09,0.0,68.723,35.177998,126.90893,,154.974967755247,,69.635,,0 / 20,3759,2014-12-14 14:11:34:504
1.6458,-13.0459,2.7956,0.9353,-9.7532,-0.4124,4.574,-3.5057,5.1853,10.87,32.34,-15.99,332.7,84.02,-113.79,0.0,68.723,35.177998,126.90893,,154.974967755247,,69.635,,0 / 20,3809,2014-12-14 14:11:34:554
-0.634,-9.7507,-4.1972,1.0088,-9.7508,-0.2729,-0.005,-0.0138,-1.9823,9.74,32.34,-17.36,332.7,84.02,-113.79,0.0,68.723,35.177998,126.90893,,154.974967755247,,69.635,,0 / 20,3859,2014-12-14 14:11:34:604
-1.5728,-15.8238,-1.8407,0.3139,-9.7692,-0.7967,-5.0934,-4.4837,-1.516,7.18,30.46,-16.93,322.36,83.88,-105.14,0.0,68.723,35.177998,126.90893,,154.974967755247,,69.635,,0 / 20,3909,2014-12-14 14:11:34:654
-3.3736,-12.8543,-3.3159,-0.0367,-9.7636,-0.9173,-3.0935,-2.2773,-1.0697,8.24,31.59,-17.99,2.16,84.99,-158.49,0.0,69.002,35.177998,126.90893,,154.974967755247,,69.635,,0 / 20,3959,2014-12-14 14:11:34:704
-2.8755,-6.2255,-4.0631,-0.3216,-9.7081,-1.3486,-0.5489,2.1583,-2.3697,4.55,29.4,-19.24,2.16,84.99,-158.49,0.0,69.002,35.177998,126.90893,,154.974967755247,,69.635,,0 / 20,4009,2014-12-14 14:11:34:754
-3.5269,-4.7887,-4.293,-0.5113,-9.6505,-1.6662,-2.1024,4.9184,-2.0422,4.93,29.03,-21.3,22.79,81.87,166.59,0.0,69.002,35.177998,126.90893,,154.974967755247,,69.635,,0 / 20,4059,2014-12-14 14:11:34:804
-4.7914,-1.7617,-5.27,-1.1197,-9.4714,-2.2825,-2.9399,6.7829,-2.2819,4.18,28.28,-20.86,22.79,81.87,166.59,0.0,69.002,35.177998,126.90893,,154.974967755247,,69.635,,0 / 20,4109,2014-12-14 14:11:34:854
-5.0404,-1.7042,-3.6607,-1.9892,-9.0834,-3.1154,-3.0302,7.1518,-1.7387,4.55,29.03,-18.74,28.21,74.97,153.87,0.0,69.002,35.177998,126.90893,,154.974967755247,,69.635,,0 / 20,4159,2014-12-14 14:11:34:904
-4.4082,-9.2717,1.5695,-2.4953,-9.0297,-2.8997,-2.2214,-0.356,3.7435,5.3,29.4,-16.49,31.5,67.86,147.44,0.0,69.002,35.177998,126.90893,,154.974967755247,,69.635,,0 / 20,4209,2014-12-14 14:11:34:954
-1.0363,-10.5936,7.1637,-0.586,-9.7135,1.2145,0.0507,-0.2621,4.9956,4.93,31.59,-14.74,92.31,84.26,94.39,0.0,69.002,35.177998,126.90893,,154.974967755247,,69.635,,0 / 20,4259,2014-12-14 14:11:35:004
1.6841,-5.9956,3.5045,-0.4892,-9.6905,1.4234,1.4893,2.3139,2.7032,3.49,30.84,-15.99,92.31,84.26,94.39,0.0,65.772,35.177998,126.90893,,154.974967755247,,69.635,,0 / 20,4309,2014-12-14 14:11:35:054
-14.0256,-21.0349,5.9184,-1.2918,-9.7125,0.4115,-10.5259,-3.6698,-5.2101,2.74,30.84,-13.8,169.55,81.17,18.97,0.0,65.772,35.177998,126.90893,,154.974967755247,,69.635,,0 / 20,4359,2014-12-14 14:11:35:104
-18.3171,3.7751,-15.6921,-0.7651,-9.7734,-0.2563,-3.6769,7.1842,-11.6127,4.18,31.59,-12.55,146.35,85.91,45.35,0.0,65.772,35.177998,126.90893,,154.974967755247,,69.635,,0 / 20,4409,2014-12-14 14:11:35:154
4.9219,-14.6935,-0.1165,-1.8768,-9.5197,-1.4227,-0.5545,2.0294,-3.0585,3.87,35.28,-10.24,146.35,85.91,45.35,0.0,65.772,35.177998,126.90893,,154.974967755247,,69.635,,0 / 20,4459,2014-12-14 14:11:35:204
0.1515,-9.425,-1.5725,-1.0193,-9.6116,-1.6578,1.4318,0.5816,-3.5078,4.93,35.28,-6.55,41.31,76.1,127.16,0.0,65.772,35.177998,126.90893,,154.974967755247,,69.635,,0 / 20,4509,2014-12-14 14:11:35:254
-2.9522,-8.6778,-1.1893,-1.0065,-9.6119,-1.6638,-0.4703,1.3581,0.2933,6.43,36.4,-6.49,42.29,78.55,148.41,0.0,65.772,35.177998,126.90893,,154.974967755247,,69.635,,0 / 20,4559,2014-12-14 14:11:35:304
1.3776,-9.7698,-2.358,-0.7173,-9.6454,-1.6192,2.1942,0.0047,-1.1937,6.43,36.03,-3.42,48.38,79.22,146.32,0.0,65.772,35.177998,126.90893,,154.974967755247,,69.635,,0 / 20,4609,2014-12-14 14:11:35:354
1.1286,-9.6357,-1.0552,-0.5116,-9.6656,-1.5765,1.5197,0.0835,0.423,5.68,36.4,-3.42,48.38,79.22,146.32,0.0,70.151,35.177998,126.90893,,154.974967755247,,69.635,,0 / 20,4659,2014-12-14 14:11:35:404
-1.8218,-9.5591,-0.8253,-0.579,-9.6596,-1.5897,-1.1688,0.4245,-0.0404,7.18,35.65,0.64,45.88,80.27,162.02,0.0,70.151,35.177998,126.90893,,154.974967755247,,69.635,,0 / 20,4709,2014-12-14 14:11:35:454
-1.0363,-9.9997,-0.3464,-0.7219,-9.6681,-1.4758,-0.8137,-0.1618,0.9258,7.93,36.4,-1.24,65.65,80.36,153.93,0.0,70.151,35.177998,126.90893,,154.974967755247,,69.635,,0 / 20,4759,2014-12-14 14:11:35:504
1.914,-11.1875,-1.3617,-0.5046,-9.6943,-1.3915,2.3864,-0.9584,-0.1529,7.93,36.4,0.89,75.86,81.32,160.07,0.0,70.151,35.177998,126.90893,,154.974967755247,,69.635,,0 / 20,4809,2014-12-14 14:11:35:554
-1.0555,-11.0343,-1.4767,-0.3388,-9.7078,-1.3471,0.1755,-0.4275,0.3303,7.93,36.03,0.95,75.86,81.32,160.07,0.0,70.151,35.177998,126.90893,,154.974967755247,,69.635,,0 / 20,4859,2014-12-14 14:11:35:604
6.4354,-14.9426,3.083,0.3018,-9.7514,-0.9947,5.7092,-4.4845,1.942,7.93,36.78,-2.17,64.93,83.22,176.27,0.0,70.151,35.177998,126.90893,,154.974967755247,,69.635,,0 / 20,4909,2014-12-14 14:11:35:654
0.3239,-11.8772,0.9373,0.8015,-9.771,-0.2361,-0.1335,-1.0785,1.9896,6.43,35.65,-3.24,30.1,83.92,-163.12,0.0,70.151,35.177998,126.90893,,154.974967755247,,69.635,,0 / 20,4959,2014-12-14 14:11:35:704
-5.0596,-15.9388,-2.7028,-0.0523,-9.7735,-0.8035,-4.786,-4.0455,-1.3678,2.37,32.71,-9.67,11.93,85.29,176.27,0.0,66.562,35.177998,126.90893,,154.974967755247,,69.635,,0 / 20,5046,2014-12-14 14:11:35:791
-4.0059,-12.5286,-2.607,-0.4187,-9.7582,-0.8793,-3.4589,-1.1851,-1.2753,1.24,33.78,-14.42,11.93,85.29,176.27,0.0,66.562,35.177998,126.90893,,154.974967755247,,69.635,,0 / 20,5059,2014-12-14 14:11:35:804
-2.7797,-11.4941,-3.6416,-0.5527,-9.7391,-1.007,-2.3009,0.4713,-2.1844,-0.2,31.96,-16.42,21.4,84.3,154.54,0.0,66.562,35.177998,126.90893,,154.974967755247,,69.635,,0 / 20,5109,2014-12-14 14:11:35:854
-1.3046,-9.061,-3.45,-0.6779,-9.7016,-1.2608,-0.5491,2.3875,-1.8971,-0.95,29.71,-15.74,21.4,84.3,154.54,0.0,66.562,35.177998,126.90893,,154.974967755247,,69.635,,0 / 20,5159,2014-12-14 14:11:35:904
-3.5461,-5.0952,-3.8715,-1.0814,-9.6002,-1.6845,-2.3216,5.2358,-1.7742,-0.95,27.15,-16.61,17.59,81.61,151.74,0.0,66.562,35.177998,126.90893,,154.974967755247,,69.635,,0 / 20,5209,2014-12-14 14:11:35:954
-4.8871,-1.4934,-6.2663,-1.7105,-9.359,-2.3778,-2.8963,7.3593,-3.3563,0.49,27.15,-18.17,22.6,78.22,147.3,0.0,66.562,35.177998,126.90893,,154.974967755247,,69.635,,0 / 20,5259,2014-12-14 14:11:36:004
-5.2512,-2.5088,-3.8332,-2.2732,-9.0616,-2.9815,-2.5024,6.9276,-1.8319,0.87,28.65,-15.74,26.35,72.62,144.27,0.0,68.549,35.177998,126.90893,,154.974967755247,,69.635,,0 / 20,5309,2014-12-14 14:11:36:054
19.7696,-23.3531,28.4869,-1.6697,-9.6107,-1.0081,10.5614,-8.6337,18.4342,3.87,30.09,-14.86,32.4,66.55,139.79,0.0,68.549,35.177998,126.90893,,154.974967755247,,69.635,,0 / 20,5359,2014-12-14 14:11:36:104
0.094,-11.8198,9.1178,-0.6592,-9.7127,1.1829,1.5267,-2.8358,8.8673,4.18,27.9,-11.8,32.4,66.55,139.79,0.0,68.549,35.177998,126.90893,,154.974967755247,,69.635,,0 / 20,5409,2014-12-14 14:11:36:154
-9.1595,-19.9237,4.5582,-1.1939,-9.6771,1.0484,-8.1031,-4.0581,-3.2614,4.55,29.78,-10.74,161.45,82.06,29.13,0.0,68.549,35.177998,126.90893,,154.974967755247,,69.635,,0 / 20,5459,2014-12-14 14:11:36:204
2.5271,-4.6162,-12.5502,-1.0002,-9.7553,-0.0616,5.6411,1.6326,-9.7762,5.68,32.71,-11.17,145.49,80.68,48.71,0.0,68.549,35.177998,126.90893,,154.974967755247,,69.635,,0 / 20,5509,2014-12-14 14:11:36:254
-1.8218,-12.4328,-3.7182,-1.8775,-9.4636,-1.7568,-1.662,-0.4865,-3.8078,5.3,32.34,-10.05,145.49,80.68,48.71,0.0,68.549,35.177998,126.90893,,154.974967755247,,69.635,,0 / 20,5559,2014-12-14 14:11:36:304
1.5117,-9.6357,-3.7182,-1.3611,-9.5653,-1.6804,3.9761,-0.3984,-0.6441,7.93,33.09,-6.99,47.25,74.8,133.1,0.0,68.549,35.177998,126.90893,,154.974967755247,,69.635,,0 / 20,5609,2014-12-14 14:11:36:354
-0.2317,-9.0801,-1.0935,-1.2366,-9.5659,-1.7703,0.2984,0.1733,0.1655,8.62,33.78,-5.67,58.81,77.26,140.99,0.0,68.527,35.177998,126.90893,,154.974967755247,,69.635,,0 / 20,5659,2014-12-14 14:11:36:404
0.0365,-9.1759,-1.6108,-1.1571,-9.596,-1.658,0.5202,0.1588,1.1493,8.62,34.53,-3.49,58.81,77.26,140.99,0.0,68.527,35.177998,126.90893,,154.974967755247,,69.635,,0 / 20,5709,2014-12-14 14:11:36:454
0.7071,-10.3637,-1.266,-0.7992,-9.6494,-1.5557,2.0843,-0.8014,0.4455,10.12,33.4,0.01,63.76,78.1,145.09,0.0,68.527,35.177998,126.90893,,154.974967755247,,69.635,,0 / 20,5759,2014-12-14 14:11:36:504
-0.7298,-9.5399,-1.2085,-0.5284,-9.6836,-1.4559,1.1111,-0.0116,0.6309,10.87,34.53,-2.17,74.1,79.73,152.81,0.0,68.527,35.177998,126.90893,,154.974967755247,,69.635,,0 / 20,5809,2014-12-14 14:11:36:554
-1.3812,-9.5782,-0.2122,-0.6412,-9.6916,-1.3537,-0.8471,0.1326,1.0276,11.93,34.15,1.08,94.26,81.21,154.66,0.0,68.527,35.177998,126.90893,,154.974967755247,,69.635,,0 / 20,5859,2014-12-14 14:11:36:604
-1.4578,-9.4441,-0.8253,-0.7173,-9.7007,-1.2456,-0.6026,0.3122,0.4584,13.05,32.71,1.95,94.26,81.21,154.66,0.0,68.527,35.177998,126.90893,,154.974967755247,,69.635,,0 / 20,5909,2014-12-14 14:11:36:654
0.4197,-9.4058,-2.1281,-0.6416,-9.7003,-1.2892,0.9569,0.3642,-0.6036,11.62,33.09,0.89,97.35,81.56,153.54,0.0,66.962,35.177998,126.90893,,154.974967755247,,69.635,,0 / 20,5959,2014-12-14 14:11:36:704
2.5654,-10.9576,-1.4575,-0.565,-9.6723,-1.5155,0.7173,-0.0049,-0.5511,14.18,33.78,2.64,102.06,80.61,157.31,0.0,66.962,35.177998,126.90893,,154.974967755247,,69.635,,0 / 20,6009,2014-12-14 14:11:36:754
3.7149,-12.3754,0.42,-0.0432,-9.7062,-1.399,4.2019,-2.5644,1.0302,14.18,34.15,2.2,102.06,80.61,157.31,0.0,66.962,35.177998,126.90893,,154.974967755247,,69.635,,0 / 20,6059,2014-12-14 14:11:36:804
1.6267,-12.6436,1.4737,0.1984,-9.7483,-1.0498,0.5609,-2.6435,2.4239,13.43,34.15,1.76,79.16,81.79,178.23,0.0,66.962,35.177998,126.90893,,154.974967755247,,69.635,,0 / 20,6109,2014-12-14 14:11:36:854
-4.3699,-11.1684,-4.4654,-0.5895,-9.6644,-1.5566,-3.7273,-0.7665,-2.916,13.05,37.46,-2.67,59.69,84.25,-176.48,0.0,66.962,35.177998,126.90893,,154.974967755247,,69.635,,0 / 20,6159,2014-12-14 14:11:36:904
-4.504,-11.5324,-3.3734,-1.0264,-9.5989,-1.7256,-3.1006,-0.7222,-1.3586,11.24,38.96,-4.43,59.69,84.25,-176.48,0.0,66.962,35.177998,126.90893,,154.974967755247,,69.635,,0 / 20,6209,2014-12-14 14:11:36:954
-2.569,-9.9231,-3.5075,-1.2546,-9.5442,-1.8721,-1.4145,0.5423,-1.2646,8.24,39.71,-6.55,53.24,78.19,149.25,0.0,66.962,35.177998,126.90893,,154.974967755247,,69.635,,0 / 20,6259,2014-12-14 14:11:37:004
-3.5461,-8.6395,-2.3197,-1.4585,-9.4953,-1.9706,-1.7405,1.407,-0.2749,7.18,39.71,-8.3,40.87,76.71,146.17,0.0,67.732,35.177998,126.90893,,154.974967755247,,69.635,,0 / 20,6309,2014-12-14 14:11:37:054
-1.9368,-8.1988,-2.358,-1.6343,-9.4539,-2.0307,-0.5111,1.9838,-0.0416,6.05,39.71,-10.49,40.87,76.71,146.17,0.0,67.732,35.177998,126.90893,,154.974967755247,,69.635,,0 / 20,6359,2014-12-14 14:11:37:104
-1.0555,-8.1031,-1.1702,-1.5689,-9.476,-1.9785,0.7583,1.417,0.9311,6.8,40.84,-12.3,36.22,74.58,141.17,0.0,67.732,35.177998,126.90893,,154.974967755247,,69.635,,0 / 20,6409,2014-12-14 14:11:37:154
-1.6494,-8.2563,-0.5188,-1.5439,-9.499,-1.8854,0.3584,1.3863,1.119,6.43,40.09,-11.42,37.52,75.08,141.59,0.0,67.732,35.177998,126.90893,,154.974967755247,,69.635,,0 / 20,6459,2014-12-14 14:11:37:204
-2.569,-7.9689,-0.6529,-1.5439,-9.499,-1.8854,0.3584,1.3863,1.119,7.55,41.53,-11.92,37.52,75.08,141.59,0.0,67.732,35.177998,126.90893,,154.974967755247,,69.635,,0 / 20,6509,2014-12-14 14:11:37:254
-2.3583,-7.7007,-1.7641,-1.9173,-9.4659,-1.7005,-0.9172,1.6532,-0.0857,7.18,39.71,-9.67,44.82,75.68,134.42,0.0,67.732,35.177998,126.90893,,154.974967755247,,69.635,,0 / 20,6559,2014-12-14 14:11:37:304
-0.3849,-14.3678,3.1596,-1.7123,-9.5525,-1.4103,1.0023,-4.8836,2.9312,7.18,39.34,-10.49,46.78,75.32,132.26,0.0,67.732,35.177998,126.90893,,154.974967755247,,69.635,,0 / 20,6609,2014-12-14 14:11:37:354
-0.5191,-8.8885,1.512,-1.4951,-9.6584,-0.806,1.204,-0.7563,3.5373,7.93,40.84,-9.05,69.54,80.03,118.33,0.0,64.82,35.177998,126.90893,,154.974967755247,,69.635,,0 / 20,6659,2014-12-14 14:11:37:404
-0.4424,-8.0839,-0.5762,-1.417,-9.6775,-0.7132,0.7869,1.7114,0.1895,7.93,40.09,-8.92,69.54,80.03,118.33,0.0,64.82,35.177998,126.90893,,154.974967755247,,69.635,,0 / 20,6709,2014-12-14 14:11:37:454
-0.1934,-10.3446,1.7419,-1.0334,-9.7511,-0.1394,0.7405,-0.6854,1.9567,7.18,39.34,-7.92,72.2,80.69,116.72,0.0,64.82,35.177998,126.90893,,154.974967755247,,69.635,,0 / 20,6760,2014-12-14 14:11:37:505
-0.0784,-8.4096,-0.5379,-0.934,-9.761,-0.1433,1.0325,1.3854,-0.7933,7.93,40.09,-10.92,100.26,83.9,97.68,0.0,64.82,35.177998,126.90893,,154.974967755247,,69.635,,0 / 20,6809,2014-12-14 14:11:37:554
0.209,-10.1913,0.4008,-0.7655,-9.7753,-0.1667,1.1783,-0.2506,0.1378,8.24,40.84,-10.3,102.26,84.47,98.72,0.0,64.82,35.177998,126.90893,,154.974967755247,,69.635,,0 / 20,6859,2014-12-14 14:11:37:604
-0.4999,-9.8465,1.5503,-0.7655,-9.7753,-0.1667,1.1783,-0.2506,0.1378,8.24,38.59,-9.67,102.26,84.47,98.72,0.0,64.82,35.177998,126.90893,,154.974967755247,,69.635,,0 / 20,6909,2014-12-14 14:11:37:654
-0.3083,-9.7698,1.5312,-0.6577,-9.7841,0.0961,0.1138,-0.0505,1.3772,7.93,39.34,-9.24,130.22,86.11,81.69,0.0,64.82,35.177998,126.90893,,154.974967755247,,69.635,,0 / 20,6959,2014-12-14 14:11:37:704
0.4005,-9.7507,0.9181,-0.4833,-9.785,0.4366,0.8597,0.0067,0.5105,8.99,39.34,-10.05,157.54,85.97,59.94,0.0,61.064,35.177998,126.90893,,154.974967755247,,69.635,,0 / 20,7009,2014-12-14 14:11:37:754
0.4197,-9.5974,0.8031,-0.373,-9.787,0.4954,0.775,0.0947,0.3731,8.24,38.59,-9.24,157.54,85.97,59.94,0.0,61.064,35.177998,126.90893,,154.974967755247,,69.635,,0 / 20,7059,2014-12-14 14:11:37:804
-0.0784,-9.7698,1.3396,-0.3154,-9.7853,0.5653,0.2454,-0.0628,0.5847,8.24,40.84,-9.24,185.95,86.37,36.97,0.0,61.064,35.177998,126.90893,,154.974967755247,,69.635,,0 / 20,7109,2014-12-14 14:11:37:854
-0.021,-9.6166,0.6499,-0.267,-9.7823,0.6374,0.2065,0.1767,-0.0061,7.93,39.71,-10.11,196.4,85.99,25.84,0.0,61.064,35.177998,126.90893,,154.974967755247,,69.635,,0 / 20,7159,2014-12-14 14:11:37:904
-0.3466,-9.6932,1.0139,-0.2559,-9.7812,0.6573,-0.0436,-0.0379,0.2596,7.18,39.71,-10.8,196.4,85.99,25.84,0.0,61.064,35.177998,126.90893,,154.974967755247,,69.635,,0 / 20,7209,2014-12-14 14:11:37:954
-0.2125,-9.5208,0.6882,-0.2855,-9.7762,0.7182,-0.0636,0.1203,0.1585,7.55,38.96,-9.74,194.27,85.88,21.28,0.0,61.064,35.177998,126.90893,,154.974967755247,,69.635,,0 / 20,7259,2014-12-14 14:11:38:004
-0.0018,-9.6357,0.6116,-0.2615,-9.7772,0.7126,0.2273,0.0222,-0.0729,7.18,38.59,-10.92,194.14,85.48,21.68,0.0,62.769,35.177998,126.90893,,154.974967755247,,69.635,,0 / 20,7309,2014-12-14 14:11:38:054
0.0748,-9.6166,0.7648,-0.1948,-9.7794,0.7046,0.267,0.0114,0.0672,7.55,39.34,-9.67,205.75,85.66,18.73,0.0,62.769,35.177998,126.90893,,154.974967755247,,69.635,,0 / 20,7359,2014-12-14 14:11:38:104
-0.2508,-9.6357,0.669,-0.1858,-9.7791,0.7111,-0.0412,0.0226,0.028,7.55,38.21,-11.17,205.75,85.66,18.73,0.0,62.769,35.177998,126.90893,,154.974967755247,,69.635,,0 / 20,7409,2014-12-14 14:11:38:154
-0.4233,-9.6357,0.8031,-0.2321,-9.7776,0.7182,-0.2337,-0.0172,0.0592,7.93,38.59,-10.74,210.87,85.7,14.64,0.0,62.769,35.177998,126.90893,,154.974967755247,,69.635,,0 / 20,7459,2014-12-14 14:11:38:204
-0.27,-9.674,0.7265,-0.2497,-9.7768,0.723,-0.0806,-0.0025,0.0131,7.93,39.34,-10.55,203.16,85.59,17.91,0.0,62.769,35.177998,126.90893,,154.974967755247,,69.635,,0 / 20,7509,2014-12-14 14:11:38:254
0.0365,-9.1951,-0.7487,-0.2091,-9.789,0.5499,0.3317,0.3425,-1.1837,7.18,38.96,-10.11,201.43,85.6,18.76,0.0,62.769,35.177998,126.90893,,154.974967755247,,69.635,,0 / 20,7559,2014-12-14 14:11:38:304
-0.1359,-9.425,0.6116,-0.1808,-9.7897,0.5473,0.2277,0.1205,0.1683,7.18,39.34,-9.67,201.43,85.6,18.76,0.0,62.769,35.177998,126.90893,,154.974967755247,,69.635,,0 / 20,7609,2014-12-14 14:11:38:354
-0.5574,-9.8081,0.5924,-0.2008,-9.7902,0.5311,-0.2731,0.092,-0.229,6.05,40.84,-8.74,199.77,86.63,18.28,0.0,64.336,35.177998,126.90893,,154.974967755247,,69.635,,0 / 20,7659,2014-12-14 14:11:38:404
0.0365,-9.8656,0.5158,-0.2173,-9.7887,0.551,-0.0606,-0.1671,0.098,4.93,40.84,-9.49,189.93,86.54,21.52,0.0,64.336,35.177998,126.90893,,154.974967755247,,69.635,,0 / 20,7709,2014-12-14 14:11:38:454
0.1706,-10.1913,1.5695,-0.1673,-9.7896,0.5535,0.3108,-0.2813,0.0866,5.68,41.21,-10.3,189.93,86.54,21.52,0.0,64.336,35.177998,126.90893,,154.974967755247,,69.635,,0 / 20,7759,2014-12-14 14:11:38:504
-0.4424,-9.9997,1.8568,-0.1432,-9.7806,0.6995,-0.2419,-0.2883,0.7131,6.8,40.09,-10.17,202.44,86.62,16.82,0.0,64.336,35.177998,126.90893,,154.974967755247,,69.635,,0 / 20,7809,2014-12-14 14:11:38:554