ACCELEROMETER X (m/s²),ACCELEROMETER Y (m/s²),ACCELEROMETER Z (m/s²),GRAVITY X (m/s²),GRAVITY Y (m/s²),GRAVITY Z (m/s²),LINEAR ACCELERATION X (m/s²),LINEAR ACCELERATION Y (m/s²),LINEAR ACCELERATION Z (m/s²),MAGNETIC FIELD X (μT),MAGNETIC FIELD Y (μT),MAGNETIC FIELD Z (μT),ORIENTATION X (°),ORIENTATION Y (°),ORIENTATION Z (°),PROXIMITY (i),SOUND LEVEL (dB),LOCATION Latitude : ,LOCATION Longitude : ,LOCATION Altitude ( m),LOCATION Altitude-google ( m),LOCATION Speed ( Kmh),LOCATION Accuracy ( m),LOCATION ORIENTATION (°),Satellites in range,Time since start in ms ,YYYY-MO-DD HH-MI-SS_SSS
-0.3083,-9.5016,-0.2122,0.0815,-9.8062,0.0497,0.0213,0.1923,-0.3347,14.93,37.03,-23.99,260.09,89.36,-47.27,0.0,53.854,35.178085,126.9089,,155.0646531228374,,71.02258,,0 / 20,3,2014-12-14 14:17:58:848
-0.27,-9.8081,0.0751,0.0408,-9.8066,0.0149,-0.3438,0.0847,-0.1472,14.55,36.34,-25.99,260.09,89.36,-47.27,0.0,53.854,35.178085,126.9089,,155.0646531228374,,71.02258,,0 / 20,53,2014-12-14 14:17:58:898
-0.4807,-9.3675,-0.4996,-0.0278,-9.8065,-0.0456,-0.45,0.2845,-0.52,15.3,35.59,-28.36,278.39,89.75,-69.93,0.0,53.854,35.178085,126.9089,,155.0646531228374,,71.02258,,0 / 20,103,2014-12-14 14:17:58:948
-0.3466,-9.6357,-0.0781,-0.1399,-9.8053,-0.0874,-0.1995,-0.001,0.0328,15.68,36.34,-27.11,81.94,89.2,127.8,0.0,53.854,35.178085,126.9089,,155.0646531228374,,71.02258,,0 / 20,153,2014-12-14 14:17:58:998
-0.2508,-9.674,0.0177,-0.1566,-9.805,-0.0868,-0.2304,0.0314,0.0093,15.68,37.09,-27.61,81.94,89.2,127.8,0.0,53.854,35.178085,126.9089,,155.0646531228374,,71.02258,,0 / 20,203,2014-12-14 14:17:59:048
0.1132,-9.6549,0.1901,-0.1571,-9.8052,-0.0609,0.2452,-0.0091,0.2784,14.55,35.21,-27.36,88.88,88.95,118.99,0.0,53.854,35.178085,126.9089,,155.0646531228374,,71.02258,,0 / 20,253,2014-12-14 14:17:59:098
0.822,-9.9806,1.3779,-0.1078,-9.8058,0.0767,0.4036,-0.3036,1.0375,15.68,35.59,-27.17,88.88,88.95,118.99,0.0,53.104,35.178085,126.9089,,155.0646531228374,,71.02258,,0 / 20,303,2014-12-14 14:17:59:148
1.3776,-9.9806,1.397,0.0389,-9.8035,0.2447,1.1516,-0.1816,1.1486,16.05,34.09,-25.8,155.71,89.23,54.57,0.0,53.104,35.178085,126.9089,,155.0646531228374,,71.02258,,0 / 20,353,2014-12-14 14:17:59:198
3.1785,-10.0764,1.876,0.5444,-9.7746,0.5756,3.1243,-0.5388,1.6358,16.74,34.46,-26.43,251.73,86.7,-35.09,0.0,53.104,35.178085,126.9089,,155.0646531228374,,71.02258,,0 / 20,403,2014-12-14 14:17:59:248
3.6191,-11.2067,0.0177,0.8714,-9.7471,0.6372,2.2767,-0.4544,-0.1287,15.68,34.84,-26.99,271.56,83.68,-53.82,0.0,53.104,35.178085,126.9089,,155.0646531228374,,71.02258,,0 / 20,453,2014-12-14 14:17:59:298
-2.2242,-9.6549,0.4008,0.7685,-9.765,0.4736,-3.2848,0.1436,-0.9742,14.55,34.46,-23.18,271.56,83.68,-53.82,0.0,53.104,35.178085,126.9089,,155.0646531228374,,71.02258,,0 / 20,503,2014-12-14 14:17:59:348
-0.1934,-10.5936,0.8031,0.4832,-9.7836,0.4673,-1.4248,8.0E-4,0.0681,15.3,33.4,-21.99,275.46,84.72,-58.36,0.0,53.104,35.178085,126.9089,,155.0646531228374,,71.02258,,0 / 20,553,2014-12-14 14:17:59:398
0.822,-9.8656,0.9373,0.3604,-9.7827,0.5817,-0.6574,0.2737,0.747,15.3,32.96,-25.24,261.35,86.07,-45.96,0.0,53.104,35.178085,126.9089,,155.0646531228374,,71.02258,,0 / 20,603,2014-12-14 14:17:59:448
0.9561,-9.4633,0.784,0.3688,-9.7803,0.6162,0.1122,0.2793,0.4828,14.55,33.4,-25.05,261.35,86.07,-45.96,0.0,60.19,35.178085,126.9089,,155.0646531228374,,71.02258,,0 / 20,653,2014-12-14 14:17:59:498
0.7071,-8.9077,0.8989,0.4627,-9.7736,0.6576,0.2843,1.051,0.1995,13.8,31.15,-25.36,244.32,85.8,-30.9,0.0,60.19,35.178085,126.9089,,155.0646531228374,,71.02258,,0 / 20,703,2014-12-14 14:17:59:548
0.6496,-8.0073,0.784,0.4953,-9.7711,0.6718,0.397,1.3579,0.1114,13.8,30.4,-24.49,251.74,85.12,-36.4,0.0,60.19,35.178085,126.9089,,155.0646531228374,,71.02258,,0 / 20,753,2014-12-14 14:17:59:598
-0.4041,-7.9306,2.0293,0.3989,-9.7538,0.9355,-0.764,1.4372,1.2457,14.55,28.59,-25.55,251.74,85.12,-36.4,0.0,60.19,35.178085,126.9089,,155.0646531228374,,71.02258,,0 / 20,803,2014-12-14 14:17:59:648
1.1669,-6.7428,2.0676,0.494,-9.7041,1.3257,0.6819,2.0645,0.7855,13.43,28.59,-26.11,233.9,83.38,-19.62,0.0,60.19,35.178085,126.9089,,155.0646531228374,,71.02258,,0 / 20,853,2014-12-14 14:17:59:698
2.2014,-9.4441,2.9106,0.5597,-9.6878,1.4155,0.419,0.7076,0.1362,12.74,29.28,-25.67,234.02,81.7,-20.44,0.0,60.19,35.178085,126.9089,,155.0646531228374,,71.02258,,0 / 20,903,2014-12-14 14:17:59:748
2.5271,-10.038,3.7727,0.7934,-9.6369,1.6341,1.8504,-1.0597,1.9951,14.55,29.65,-24.92,234.02,81.7,-20.44,0.0,60.19,35.178085,126.9089,,155.0646531228374,,71.02258,,0 / 20,953,2014-12-14 14:17:59:798
1.1286,-9.061,2.5274,0.8948,-9.6018,1.7818,1.4465,-1.1755,2.1867,13.43,28.96,-25.67,242.43,79.33,-25.9,0.0,60.19,35.178085,126.9089,,155.0646531228374,,71.02258,,0 / 20,1003,2014-12-14 14:17:59:848
-0.1934,-8.5437,0.42,0.9787,-9.5497,2.0039,0.5406,-0.4779,1.4037,14.93,28.96,-23.86,250.6,78.27,-26.67,0.0,62.279,35.178085,126.9089,,155.0646531228374,,71.02258,,0 / 20,1054,2014-12-14 14:17:59:899
-4.3124,-3.4093,-11.9563,-0.0854,-9.6135,1.9349,-4.0888,-9.693,8.8108,14.18,31.53,-21.68,254.92,76.86,-26.03,0.0,62.279,35.178085,126.9089,,155.0646531228374,,71.02258,,0 / 20,1103,2014-12-14 14:17:59:948
-0.4041,-10.881,-4.1972,0.1538,-9.7084,1.3762,-4.1086,6.1423,-12.3265,14.55,33.03,-19.55,225.8,78.61,2.53,0.0,62.279,35.178085,126.9089,,155.0646531228374,,71.02258,,0 / 20,1153,2014-12-14 14:17:59:998
-2.5307,-11.1492,-3.5649,0.0425,-9.7952,0.4729,-1.1711,-1.2374,-4.3609,14.18,33.71,-18.24,234.46,81.88,-6.38,0.0,62.279,35.178085,126.9089,,155.0646531228374,,71.02258,,0 / 20,1203,2014-12-14 14:18:00:048
-2.5307,-9.061,-2.2813,-0.1698,-9.8026,-0.226,-1.6279,0.8107,-2.8148,14.93,34.09,-16.49,112.41,89.69,110.3,0.0,62.279,35.178085,126.9089,,155.0646531228374,,71.02258,,0 / 20,1253,2014-12-14 14:18:00:098
0.3047,-9.9231,-1.1127,-0.1698,-9.8026,-0.226,-1.6279,0.8107,-2.8148,14.18,35.96,-13.86,112.41,89.69,110.3,0.0,62.279,35.178085,126.9089,,155.0646531228374,,71.02258,,0 / 20,1303,2014-12-14 14:18:00:148
0.3814,-9.3483,-1.7832,-0.3388,-9.7917,-0.4211,0.5742,-0.3701,-0.6334,14.93,35.96,-13.11,82.23,86.84,141.18,0.0,62.279,35.178085,126.9089,,155.0646531228374,,71.02258,,0 / 20,1353,2014-12-14 14:18:00:198
-0.4999,-9.1184,-2.3197,-0.0648,-9.7772,-0.7566,0.2698,0.2118,-1.385,15.68,37.03,-13.55,57.27,86.58,166.57,0.0,67.211,35.178085,126.9089,,155.0646531228374,,71.02258,,0 / 20,1407,2014-12-14 14:18:00:252
-2.0517,-8.946,-1.9557,-0.22,-9.7599,-0.9312,-1.3733,0.4217,-1.0123,15.3,35.96,-11.3,57.27,86.58,166.57,0.0,67.211,35.178085,126.9089,,155.0646531228374,,71.02258,,0 / 20,1453,2014-12-14 14:18:00:298
-1.5536,-8.946,-2.2622,-0.4578,-9.7353,-1.0884,-1.391,0.5438,-1.0342,14.93,37.03,-10.86,57.69,84.4,166.71,0.0,67.211,35.178085,126.9089,,155.0646531228374,,71.02258,,0 / 20,1503,2014-12-14 14:18:00:348
-1.6302,-9.2717,-2.607,-0.5146,-9.721,-1.1864,-0.7696,0.1253,-1.3304,15.68,36.34,-10.05,57.69,84.4,166.71,0.0,67.211,35.178085,126.9089,,155.0646531228374,,71.02258,,0 / 20,1553,2014-12-14 14:18:00:398
2.3738,-11.5707,-0.8062,-0.7817,-9.6993,-1.2176,-0.765,-1.1731,0.4333,17.12,37.4,-9.61,69.63,82.42,156.55,0.0,67.211,35.178085,126.9089,,155.0646531228374,,71.02258,,0 / 20,1603,2014-12-14 14:18:00:448
2.6995,-11.8964,-1.2276,-0.5043,-9.732,-1.0975,2.6364,-1.7922,0.4035,16.74,36.71,-10.49,76.59,81.52,147.3,0.0,67.211,35.178085,126.9089,,155.0646531228374,,71.02258,,0 / 20,1653,2014-12-14 14:18:00:498
4.7686,-14.0996,0.6116,0.1869,-9.7681,-0.8489,4.4713,-3.6286,1.6753,17.49,36.34,-12.24,76.59,81.52,147.3,0.0,67.211,35.178085,126.9089,,155.0646531228374,,71.02258,,0 / 20,1703,2014-12-14 14:18:00:548
1.3776,-13.7547,5.6885,0.6774,-9.7788,-0.2932,2.5659,-3.0716,5.1346,16.05,36.71,-11.99,35.36,84.91,-167.58,0.0,67.161,35.178085,126.9089,,155.0646531228374,,71.02258,,0 / 20,1753,2014-12-14 14:18:00:598
-0.4424,-12.8351,-4.3313,0.7034,-9.7704,-0.4646,-0.2631,-0.6845,-3.5497,13.05,37.03,-15.17,35.36,84.91,-167.58,0.0,67.161,35.178085,126.9089,,155.0646531228374,,71.02258,,0 / 20,1803,2014-12-14 14:18:00:648
-4.4274,-15.479,-2.7986,0.2583,-9.7739,-0.7585,-4.208,-3.4846,-2.1073,11.99,37.09,-18.49,339.95,85.07,-123.44,0.0,67.161,35.178085,126.9089,,155.0646531228374,,71.02258,,0 / 20,1853,2014-12-14 14:18:00:698
-1.8027,-9.0226,-3.3542,-0.4578,-9.7219,-1.2023,-1.4298,2.2773,-1.9548,7.93,33.34,-25.24,33.57,82.46,159.15,0.0,67.161,35.178085,126.9089,,155.0646531228374,,71.02258,,0 / 20,1903,2014-12-14 14:18:00:748
-3.3545,-6.7428,-3.2201,-0.6819,-9.6761,-1.442,-1.4298,2.2773,-1.9548,7.93,33.34,-25.24,33.57,82.46,159.15,0.0,67.161,35.178085,126.9089,,155.0646531228374,,71.02258,,0 / 20,1953,2014-12-14 14:18:00:798
-4.1783,-3.5051,-4.4654,-1.238,-9.5314,-1.9467,-2.601,6.0276,-2.1103,7.55,31.9,-30.05,34.16,80.64,154.69,0.0,67.161,35.178085,126.9089,,155.0646531228374,,71.02258,,0 / 20,2003,2014-12-14 14:18:00:848
-4.1017,-2.2215,-4.8486,-1.7243,-9.3333,-2.4672,-2.4637,6.753,-2.4323,7.55,31.15,-26.49,40.26,76.39,147.55,0.0,67.161,35.178085,126.9089,,155.0646531228374,,71.02258,,0 / 20,2053,2014-12-14 14:18:00:898
-2.569,-4.5204,-0.0015,-2.266,-9.1126,-2.8277,-0.5879,3.7902,2.172,7.55,32.65,-26.11,39.47,72.13,145.05,0.0,68.517,35.178085,126.9089,,155.0646531228374,,71.02258,,0 / 20,2103,2014-12-14 14:18:00:948
17.9687,-24.4642,29.5981,-0.6296,-9.7858,0.1113,16.4936,-13.9434,28.3067,9.37,34.84,-21.99,39.47,72.13,145.05,0.0,68.517,35.178085,126.9089,,155.0646531228374,,71.02258,,0 / 20,2154,2014-12-14 14:18:00:999
-0.8064,-6.3405,1.4737,0.0487,-9.62,1.9038,-0.7201,2.9125,0.1155,9.37,34.46,-23.11,116.46,86.26,79.97,0.0,68.517,35.178085,126.9089,,155.0646531228374,,71.02258,,0 / 20,2203,2014-12-14 14:18:01:048
-11.8991,-16.4369,-2.0706,-0.6948,-9.7501,0.7889,-10.33,2.2213,-14.9726,8.68,36.71,-22.49,214.02,78.8,-1.46,0.0,68.517,35.178085,126.9089,,155.0646531228374,,71.02258,,0 / 20,2253,2014-12-14 14:18:01:098
-3.3162,-4.2331,-9.7722,-1.0397,-9.6843,1.1422,5.2881,-9.0719,1.1078,10.12,37.78,-21.11,214.02,78.8,-1.46,0.0,68.517,35.178085,126.9089,,155.0646531228374,,71.02258,,0 / 20,2303,2014-12-14 14:18:01:148
4.9985,-13.7931,0.3242,-0.39,-9.7666,0.7952,4.0992,0.796,-5.6976,10.87,38.15,-21.36,181.79,84.82,26.12,0.0,68.517,35.178085,126.9089,,155.0646531228374,,71.02258,,0 / 20,2353,2014-12-14 14:18:01:198
-0.1167,-9.2717,-4.4845,-0.962,-9.7489,-0.4525,4.8156,-2.9962,0.3811,12.37,39.65,-18.3,189.12,84.82,26.12,0.0,68.517,35.178085,126.9089,,155.0646531228374,,71.02258,,0 / 20,2403,2014-12-14 14:18:01:248
0.0557,-9.8081,-3.3542,-0.6315,-9.7383,-0.9679,0.6247,0.7722,-3.1957,13.8,41.46,-15.17,95.27,83.78,115.19,0.0,69.701,35.178085,126.9089,,155.0646531228374,,71.02258,,0 / 20,2453,2014-12-14 14:18:01:298
-0.5765,-9.7124,-0.1165,-0.8306,-9.7137,-1.0606,-1.5059,0.9943,0.0728,14.55,42.59,-11.99,70.14,83.23,146.88,0.0,69.701,35.178085,126.9089,,155.0646531228374,,71.02258,,0 / 20,2503,2014-12-14 14:18:01:348
1.3393,-9.7507,-2.0898,-0.7221,-9.7258,-1.0281,1.5276,0.0431,-0.2568,16.05,44.09,-12.67,71.03,82.64,144.92,0.0,69.701,35.178085,126.9089,,155.0646531228374,,71.02258,,0 / 20,2553,2014-12-14 14:18:01:398
0.937,-9.4825,-1.3234,-0.2676,-9.7525,-0.9941,1.7119,0.1926,0.3262,16.74,44.84,-8.99,71.03,82.64,144.92,0.0,69.701,35.178085,126.9089,,155.0646531228374,,71.02258,,0 / 20,2605,2014-12-14 14:18:01:450
-1.8027,-10.2871,-1.0744,-0.479,-9.739,-1.0455,-1.7012,0.3115,0.2286,18.99,43.71,-7.8,66.42,83.97,164.93,0.0,69.701,35.178085,126.9089,,155.0646531228374,,71.02258,,0 / 20,2655,2014-12-14 14:18:01:500
-0.9597,-9.8848,-0.1739,-0.6083,-9.7373,-0.9921,-0.6526,-0.1477,0.5916,19.74,44.84,-8.49,78.89,83.27,155.38,0.0,69.701,35.178085,126.9089,,155.0646531228374,,71.02258,,0 / 20,2704,2014-12-14 14:18:01:549
3.2743,-11.3025,-0.0973,-0.3827,-9.7615,-0.8587,2.4469,-1.2814,0.9016,21.18,45.53,-9.61,78.89,83.27,155.38,0.0,69.701,35.178085,126.9089,,155.0646531228374,,71.02258,,0 / 20,2753,2014-12-14 14:18:01:598
5.4966,-14.5977,1.4354,0.2241,-9.7879,-0.5636,4.2026,-3.887,2.122,20.8,45.53,-9.61,77.88,84.5,155.98,0.0,68.842,35.178085,126.9089,,155.0646531228374,,71.02258,,0 / 20,2803,2014-12-14 14:18:01:648
3.3701,-14.4253,5.7843,0.9722,-9.7578,-0.0988,5.4521,-4.2121,4.3368,20.12,45.9,-13.99,30.03,86.45,-158.32,0.0,68.842,35.178085,126.9089,,155.0646531228374,,71.02258,,0 / 20,2853,2014-12-14 14:18:01:698
-0.3849,-11.1684,-6.0172,0.955,-9.7567,-0.2548,-1.7705,-0.1433,-5.3669,16.43,45.15,-19.61,30.03,86.45,-158.32,0.0,68.842,35.178085,126.9089,,155.0646531228374,,71.02258,,0 / 20,2903,2014-12-14 14:18:01:748
-2.2242,-15.4407,-1.4767,0.1488,-9.7831,-0.663,-3.9385,-4.9731,-1.7481,16.74,46.28,-20.92,328.89,84.22,-104.94,0.0,68.842,35.178085,126.9089,,155.0646531228374,,71.02258,,0 / 20,2954,2014-12-14 14:18:01:799
-3.2395,-14.023,-2.7795,-0.0147,-9.7799,-0.7237,-2.9048,-2.3243,-1.2519,11.24,43.34,-28.61,7.43,86.03,-167.35,0.0,68.842,35.178085,126.9089,,155.0646531228374,,71.02258,,0 / 20,3003,2014-12-14 14:18:01:848
-1.4003,-7.6816,-3.9481,-0.4059,-9.7297,-1.1567,-1.4309,3.6136,-2.5758,8.68,40.4,-34.3,14.8,85.77,178.84,0.0,68.842,35.178085,126.9089,,155.0646531228374,,71.02258,,0 / 20,3053,2014-12-14 14:18:01:898
-4.4848,-4.6354,-3.45,-0.8547,-9.6359,-1.6089,-3.2805,6.0032,-1.5889,8.68,40.4,-34.3,14.8,85.77,178.84,0.0,68.842,35.178085,126.9089,,155.0646531228374,,71.02258,,0 / 20,3103,2014-12-14 14:18:01:948
-4.3507,-2.3747,-5.4041,-1.6006,-9.3988,-2.2957,-2.7123,6.9723,-2.6243,7.93,36.34,-36.11,34.98,79.29,152.02,0.0,68.842,35.178085,126.9089,,155.0646531228374,,71.02258,,0 / 20,3153,2014-12-14 14:18:01:998
-4.5423,-1.3019,-6.2854,-2.1057,-9.1021,-2.9814,-2.474,7.0649,-3.3735,9.37,34.84,-35.99,39.98,73.42,145.12,0.0,68.811,35.178085,126.9089,,155.0646531228374,,71.02258,,0 / 20,3203,2014-12-14 14:18:02:048
16.9341,-25.0581,29.4256,-2.3722,-9.299,-2.018,4.0134,-6.7688,11.5185,12.37,37.4,-32.24,42.71,65.93,142.27,0.0,68.811,35.178085,126.9089,,155.0646531228374,,71.02258,,0 / 20,3253,2014-12-14 14:18:02:098
16.9341,-25.0581,29.4256,-2.3722,-9.299,-2.018,4.0134,-6.7688,11.5185,12.37,37.4,-32.24,42.71,65.93,142.27,0.0,68.811,35.178085,126.9089,,155.0646531228374,,71.02258,,0 / 20,3303,2014-12-14 14:18:02:148
-11.5734,-5.555,-17.4547,-0.7681,-9.7032,1.1953,-1.3632,2.5911,2.0518,13.05,37.78,-32.55,55.63,71.48,130.39,0.0,68.811,35.178085,126.9089,,155.0646531228374,,71.02258,,0 / 20,3353,2014-12-14 14:18:02:198
-14.6004,-12.6244,-8.9293,-1.2986,-9.7203,0.0178,-6.9675,4.4767,-15.1719,10.12,37.4,-32.86,161.05,81.67,32.72,0.0,68.811,35.178085,126.9089,,155.0646531228374,,71.02258,,0 / 20,3403,2014-12-14 14:18:02:248
-1.0172,-9.6932,-4.6953,-2.1788,-9.2792,-2.3063,-5.2263,5.5004,-5.5086,12.74,38.15,-29.11,64.05,83.95,133.69,0.0,68.811,35.178085,126.9089,,155.0646531228374,,71.02258,,0 / 20,3453,2014-12-14 14:18:02:298
1.5309,-13.065,-3.814,-1.9281,-9.3308,-2.3214,2.9132,-3.1825,-0.8224,12.74,38.9,-27.42,64.05,83.95,133.69,0.0,68.811,35.178085,126.9089,,155.0646531228374,,71.02258,,0 / 20,3503,2014-12-14 14:18:02:348
-1.8793,-8.9269,-0.787,-1.3578,-9.4335,-2.3098,3.236,0.1634,-1.7748,13.43,39.28,-26.55,48.8,72.08,140.29,0.0,68.811,35.178085,126.9089,,155.0646531228374,,71.02258,,0 / 20,3553,2014-12-14 14:18:02:398
-1.0746,-8.7736,-1.4192,-1.3491,-9.4267,-2.3424,-0.5133,0.6681,1.4938,14.18,41.46,-23.3,48.8,72.08,140.29,0.0,68.817,35.178085,126.9089,,155.0646531228374,,71.02258,,0 / 20,3603,2014-12-14 14:18:02:448
0.3431,-10.2105,-1.0744,-1.2449,-9.4731,-2.2091,1.1657,-0.6023,0.9933,13.8,41.46,-22.74,44.84,74.0,150.06,0.0,68.817,35.178085,126.9089,,155.0646531228374,,71.02258,,0 / 20,3653,2014-12-14 14:18:02:498
2.029,-9.8656,-0.9594,-0.7913,-9.5944,-1.8687,2.7527,-0.6736,1.9823,16.43,42.21,-19.55,47.56,78.06,157.05,0.0,68.817,35.178085,126.9089,,155.0646531228374,,71.02258,,0 / 20,3703,2014-12-14 14:18:02:548
-1.0363,-9.7507,-0.672,-0.5,-9.6391,-1.7344,1.4578,-0.2687,0.9848,15.68,41.15,-18.49,47.56,78.06,157.05,0.0,68.817,35.178085,126.9089,,155.0646531228374,,71.02258,,0 / 20,3753,2014-12-14 14:18:02:598
-2.7414,-9.1759,-0.8253,-0.8377,-9.642,-1.5813,-1.7939,0.2679,0.6555,16.05,41.84,-18.3,44.98,79.39,163.92,0.0,68.817,35.178085,126.9089,,155.0646531228374,,71.02258,,0 / 20,3803,2014-12-14 14:18:02:648
0.4197,-10.9193,-1.1702,-0.3362,-9.7079,-1.347,1.2074,-0.8414,0.4949,16.43,39.28,-17.8,51.78,80.66,158.21,0.0,68.817,35.178085,126.9089,,155.0646531228374,,71.02258,,0 / 20,3853,2014-12-14 14:18:02:698
5.42,-14.3678,1.3587,-0.0084,-9.7477,-1.0741,4.1951,-3.9301,2.3369,14.55,40.03,-18.92,51.78,80.66,158.21,0.0,68.817,35.178085,126.9089,,155.0646531228374,,71.02258,,0 / 20,3903,2014-12-14 14:18:02:748
5.2284,-15.0767,4.7306,0.772,-9.7647,-0.4749,5.5669,-4.4237,5.0773,12.74,37.03,-19.17,29.93,83.71,179.55,0.0,68.147,35.178085,126.9089,,155.0646531228374,,71.02258,,0 / 20,3953,2014-12-14 14:18:02:798
-1.9559,-11.0726,-4.4654,0.6558,-9.7803,-0.2923,-2.7927,-0.343,-3.7462,10.87,33.71,-20.67,332.64,84.7,-121.6,0.0,68.147,35.178085,126.9089,,155.0646531228374,,71.02258,,0 / 20,4003,2014-12-14 14:18:02:848
-4.8871,-16.7818,-2.3005,0.0492,-9.7919,-0.5353,-4.8741,-4.551,-1.3764,7.18,29.34,-22.92,332.64,84.7,-121.6,0.0,68.147,35.178085,126.9089,,155.0646531228374,,71.02258,,0 / 20,4053,2014-12-14 14:18:02:898
-2.3008,-14.3678,-2.8178,-0.2314,-9.7806,-0.6752,-1.6589,-2.7325,-1.2283,6.8,28.59,-22.92,10.97,86.86,-174.75,0.0,68.147,35.178085,126.9089,,155.0646531228374,,71.02258,,0 / 20,4103,2014-12-14 14:18:02:948
-1.4961,-6.7045,-4.5803,-0.5517,-9.6954,-1.3657,-0.6768,4.2866,-2.95,5.3,26.34,-25.67,29.04,81.36,158.0,0.0,68.147,35.178085,126.9089,,155.0646531228374,,71.02258,,0 / 20,4155,2014-12-14 14:18:03:000
-2.933,-5.2485,-4.3121,-0.7899,-9.6142,-1.7646,-2.2025,6.1503,-2.3519,4.24,25.59,-25.24,29.04,81.36,158.0,0.0,68.147,35.178085,126.9089,,155.0646531228374,,71.02258,,0 / 20,4203,2014-12-14 14:18:03:048
-4.2166,-2.1448,-5.4808,-1.4612,-9.3573,-2.5449,-2.7232,7.0506,-2.7677,4.99,24.9,-24.74,30.29,78.63,155.88,0.0,68.147,35.178085,126.9089,,155.0646531228374,,71.02258,,0 / 20,4253,2014-12-14 14:18:03:098
-4.3507,-1.6084,-5.998,-1.7092,-9.2231,-2.8606,-2.5701,7.1483,-2.8832,6.43,25.65,-23.74,34.68,72.59,150.14,0.0,69.157,35.178085,126.9089,,155.0646531228374,,71.02258,,0 / 20,4303,2014-12-14 14:18:03:148
-0.9214,-15.115,7.5852,-2.5005,-8.985,-3.031,-2.4666,0.2299,4.8778,5.68,25.65,-19.42,35.22,65.4,146.0,0.0,69.157,35.178085,126.9089,,155.0646531228374,,71.02258,,0 / 20,4353,2014-12-14 14:18:03:198
1.1286,-14.5977,9.4435,0.2668,-9.6499,1.7256,6.7797,-7.5973,14.8804,5.3,27.09,-18.36,35.22,65.4,146.0,0.0,69.157,35.178085,126.9089,,155.0646531228374,,71.02258,,0 / 20,4403,2014-12-14 14:18:03:248
-9.9833,-3.5242,-20.4051,-0.1471,-9.7785,0.7274,-2.91,9.5585,-17.8432,4.62,27.09,-18.24,218.7,79.74,-8.79,0.0,69.157,35.178085,126.9089,,155.0646531228374,,71.02258,,0 / 20,4453,2014-12-14 14:18:03:298
-5.2512,-30.2117,24.8468,-1.0334,-9.7103,0.9009,-2.4814,-17.6275,14.4668,3.87,29.65,-15.24,184.11,85.66,11.43,0.0,69.157,35.178085,126.9089,,155.0646531228374,,71.02258,,0 / 20,4503,2014-12-14 14:18:03:348
-9.0637,-0.6888,-6.3429,-2.161,-9.5075,-1.0523,-15.9195,13.4781,-14.5478,4.62,30.78,-13.36,169.97,85.42,29.27,0.0,69.157,35.178085,126.9089,,155.0646531228374,,71.02258,,0 / 20,4553,2014-12-14 14:18:03:398
-2.2242,-5.8615,-2.7028,-2.2938,-9.4506,-1.2632,-1.1001,3.9884,-2.5494,6.05,31.53,-11.3,169.97,85.42,29.27,0.0,69.157,35.178085,126.9089,,155.0646531228374,,71.02258,,0 / 20,4603,2014-12-14 14:18:03:448
0.822,-8.7544,-4.3504,-1.4423,-9.615,-1.2817,5.2367,-2.7825,-0.6201,4.62,31.15,-9.99,52.07,74.51,118.84,0.0,69.157,35.178085,126.9089,,155.0646531228374,,71.02258,,0 / 20,4653,2014-12-14 14:18:03:498
-0.6723,-9.7124,-1.515,-1.1181,-9.6011,-1.655,-0.7368,0.9295,0.2765,5.68,32.96,-6.99,44.3,78.25,145.96,0.0,67.588,35.178085,126.9089,,155.0646531228374,,71.02258,,0 / 20,4703,2014-12-14 14:18:03:548
0.7454,-10.2488,-1.7066,-1.2485,-9.5864,-1.647,-0.0395,0.3163,0.0604,6.05,32.28,-5.17,44.3,78.25,145.96,0.0,67.588,35.178085,126.9089,,155.0646531228374,,71.02258,,0 / 20,4753,2014-12-14 14:18:03:598
0.7837,-9.5399,-1.7449,-0.8705,-9.6195,-1.6966,1.5706,0.3691,0.0559,6.43,33.34,-3.11,48.73,77.83,142.84,0.0,67.588,35.178085,126.9089,,155.0646531228374,,71.02258,,0 / 20,4803,2014-12-14 14:18:03:648
-1.0363,-9.4633,-1.515,-0.571,-9.6501,-1.6491,1.731,0.0415,0.1737,7.93,33.03,-1.3,61.81,79.75,160.9,0.0,67.588,35.178085,126.9089,,155.0646531228374,,71.02258,,0 / 20,4853,2014-12-14 14:18:03:698
-1.7835,-9.6932,-0.787,-0.8029,-9.6527,-1.5335,-0.9794,-0.1486,0.812,7.55,33.71,-2.24,61.81,79.75,160.9,0.0,67.588,35.178085,126.9089,,155.0646531228374,,71.02258,,0 / 20,4903,2014-12-14 14:18:03:748
1.186,-10.3829,-0.9786,-0.7669,-9.6771,-1.3913,1.12,-0.5196,0.6657,8.68,33.03,0.45,77.86,79.83,152.36,0.0,67.588,35.178085,126.9089,,155.0646531228374,,71.02258,,0 / 20,4953,2014-12-14 14:18:03:798
8.0639,-16.7626,1.0139,-0.0594,-9.756,-0.9934,4.39,-4.133,0.6594,9.74,34.84,0.01,80.05,82.75,164.05,0.0,69.121,35.178085,126.9089,,155.0646531228374,,71.02258,,0 / 20,5059,2014-12-14 14:18:03:904
8.0639,-16.7626,1.0139,-0.0594,-9.756,-0.9934,4.39,-4.133,0.6594,9.74,34.84,0.01,80.05,82.75,164.05,0.0,69.121,35.178085,126.9089,,155.0646531228374,,71.02258,,0 / 20,5061,2014-12-14 14:18:03:906
0.1706,-12.2029,-0.5954,0.7709,-9.7754,-0.1344,-0.7647,-0.584,-0.927,7.93,35.96,-4.74,80.05,82.75,164.05,0.0,69.121,35.178085,126.9089,,155.0646531228374,,71.02258,,0 / 20,5103,2014-12-14 14:18:03:948
-4.2549,-15.9196,-3.814,0.4007,-9.7848,-0.5175,-4.1302,-3.2801,-3.5785,3.12,35.21,-8.05,333.51,85.42,-99.89,0.0,69.121,35.178085,126.9089,,155.0646531228374,,71.02258,,0 / 20,5153,2014-12-14 14:18:03:998
-2.6265,-16.2453,-3.5841,0.4007,-9.7848,-0.5175,-4.1302,-3.2801,-3.5785,3.12,35.21,-8.05,333.51,85.42,-99.89,0.0,69.121,35.178085,126.9089,,155.0646531228374,,71.02258,,0 / 20,5203,2014-12-14 14:18:04:048
-1.4387,-9.5208,-5.1551,-0.3274,-9.7297,-1.1814,-2.2188,1.3964,-3.2552,-1.32,32.65,-12.42,323.65,86.17,-142.25,0.0,69.121,35.178085,126.9089,,155.0646531228374,,71.02258,,0 / 20,5253,2014-12-14 14:18:04:098
-1.7643,-6.8194,-4.6187,-0.4975,-9.6326,-1.7707,-1.3822,4.8456,-2.4908,-3.13,27.84,-19.17,4.38,80.42,165.65,0.0,69.121,35.178085,126.9089,,155.0646531228374,,71.02258,,0 / 20,5303,2014-12-14 14:18:04:148
-4.5998,-2.9686,-4.6953,-0.9321,-9.5157,-2.1803,-3.4266,7.171,-2.1506,-2.07,27.09,-19.11,7.77,79.19,164.31,0.0,69.121,35.178085,126.9089,,155.0646531228374,,71.02258,,0 / 20,5353,2014-12-14 14:18:04:198
-5.0596,-1.2635,-5.749,-1.7718,-9.1846,-2.9451,-3.198,7.5326,-2.481,-2.38,26.34,-19.61,7.77,79.19,164.31,0.0,69.471,35.178085,126.9089,,155.0646531228374,,71.02258,,0 / 20,5403,2014-12-14 14:18:04:248
-6.7455,-3.371,-2.243,-2.0977,-8.9882,-3.3139,-3.384,7.2976,-3.3468,-2.07,25.21,-17.55,17.38,69.48,148.97,0.0,69.471,35.178085,126.9089,,155.0646531228374,,71.02258,,0 / 20,5453,2014-12-14 14:18:04:298
23.6012,-28.0851,33.832,0.0367,-9.767,0.8803,25.3174,-19.411,34.3818,0.55,25.28,-16.11,29.02,66.02,138.42,0.0,69.471,35.178085,126.9089,,155.0646531228374,,71.02258,,0 / 20,5503,2014-12-14 14:18:04:348
-3.8335,-7.2218,2.5274,0.3757,-9.6582,1.6579,5.3331,-6.6286,12.9145,0.55,25.96,-15.24,29.02,66.02,138.42,0.0,69.471,35.178085,126.9089,,155.0646531228374,,71.02258,,0 / 20,5553,2014-12-14 14:18:04:398
-3.9101,-20.1536,8.6964,-0.5839,-9.72,1.1624,-4.4614,-7.0152,2.9991,0.93,25.96,-14.05,205.01,80.02,-12.77,0.0,69.471,35.178085,126.9089,,155.0646531228374,,71.02258,,0 / 20,5603,2014-12-14 14:18:04:448
-2.5307,-20.6326,3.8493,-0.5415,-9.7471,0.9335,0.2632,-7.3982,-2.8471,1.62,25.59,-14.42,155.44,82.38,26.67,0.0,69.471,35.178085,126.9089,,155.0646531228374,,71.02258,,0 / 20,5653,2014-12-14 14:18:04:498
3.121,-14.3103,-0.6337,-1.2269,-9.7232,-0.3527,-11.427,9.7441,-12.8279,2.74,27.09,-11.55,158.82,83.68,30.12,0.0,69.471,35.178085,126.9089,,155.0646531228374,,71.02258,,0 / 20,5703,2014-12-14 14:18:04:548
3.5425,-11.2259,-2.3197,-1.4117,-9.6549,-0.98,5.019,-3.8712,0.8821,3.87,28.59,-8.17,158.82,83.68,30.12,0.0,66.089,35.178085,126.9089,,155.0646531228374,,71.02258,,0 / 20,5753,2014-12-14 14:18:04:598
-1.4387,-9.3867,-0.6529,-0.9476,-9.6697,-1.33,0.2654,0.6889,-0.337,5.3,28.96,-5.67,59.99,79.91,124.77,0.0,66.089,35.178085,126.9089,,155.0646531228374,,71.02258,,0 / 20,5803,2014-12-14 14:18:04:648
-0.6915,-9.9422,-0.0398,-1.0237,-9.6727,-1.2498,-0.3136,0.692,0.5104,5.3,28.59,-4.99,52.15,80.52,140.68,0.0,66.089,35.178085,126.9089,,155.0646531228374,,71.02258,,0 / 20,5853,2014-12-14 14:18:04:698
0.6496,-9.425,-2.1664,-0.8076,-9.6955,-1.2309,1.2231,0.5571,-0.9941,6.43,28.96,-3.11,52.15,80.52,140.68,0.0,66.089,35.178085,126.9089,,155.0646531228374,,71.02258,,0 / 20,5903,2014-12-14 14:18:04:748
1.3968,-9.5591,-0.9211,-0.5018,-9.713,-1.2552,2.4945,0.0916,0.2349,7.55,28.59,-1.74,73.34,81.37,146.73,0.0,66.089,35.178085,126.9089,,155.0646531228374,,71.02258,,0 / 20,5953,2014-12-14 14:18:04:798
-2.0326,-9.061,-0.0015,-0.5591,-9.7145,-1.2188,-1.362,0.7724,0.8469,8.68,28.96,-0.3,85.29,82.08,158.21,0.0,66.089,35.178085,126.9089,,155.0646531228374,,71.02258,,0 / 20,6003,2014-12-14 14:18:04:848
0.458,-9.4441,-1.1319,-0.6582,-9.7227,-1.0985,-0.2337,0.3268,0.7116,8.3,28.59,1.7,100.04,82.14,155.36,0.0,66.089,35.178085,126.9089,,155.0646531228374,,71.02258,,0 / 20,6053,2014-12-14 14:18:04:898
1.3968,-9.3867,-1.1893,-0.226,-9.7365,-1.1485,2.1105,0.2356,-0.3129,10.87,29.34,-1.61,73.55,83.14,168.87,0.0,67.924,35.178085,126.9089,,155.0646531228374,,71.02258,,0 / 20,6103,2014-12-14 14:18:04:948
3.3892,-11.4366,0.1709,-0.0327,-9.7503,-1.0488,1.4536,-0.2296,0.9469,11.62,28.96,1.14,73.55,83.14,168.87,0.0,67.924,35.178085,126.9089,,155.0646531228374,,71.02258,,0 / 20,6155,2014-12-14 14:18:05:000
0.1898,-14.3487,0.5732,0.4252,-9.7794,-0.5934,0.4455,-3.0644,1.8044,10.87,30.4,-0.05,75.38,83.86,178.21,0.0,67.924,35.178085,126.9089,,155.0646531228374,,71.02258,,0 / 20,6203,2014-12-14 14:18:05:048
-5.1362,-13.2183,-5.8831,0.1412,-9.7702,-0.8331,-3.1742,-3.7832,-3.7472,11.99,32.96,-3.11,34.03,85.73,-144.38,0.0,67.924,35.178085,126.9089,,155.0646531228374,,71.02258,,0 / 20,6253,2014-12-14 14:18:05:098
-4.9255,-13.6973,-4.3313,-0.6001,-9.6795,-1.455,-3.5546,-2.1788,-2.8656,10.49,33.71,-4.17,34.03,85.73,-144.38,0.0,67.924,35.178085,126.9089,,155.0646531228374,,71.02258,,0 / 20,6303,2014-12-14 14:18:05:148
-3.1437,-8.7544,-3.2967,-1.0072,-9.6235,-1.5951,-3.0548,-0.3775,-1.101,8.68,34.09,-7.3,56.07,78.91,147.73,0.0,67.924,35.178085,126.9089,,155.0646531228374,,71.02258,,0 / 20,6354,2014-12-14 14:18:05:199
-3.2587,-7.3176,-2.971,-1.3797,-9.529,-1.8617,-1.6775,3.4185,-0.8185,7.18,35.59,-9.55,56.07,78.91,147.73,0.0,67.924,35.178085,126.9089,,155.0646531228374,,71.02258,,0 / 20,6403,2014-12-14 14:18:05:248
-3.0288,-7.4134,-2.3963,-1.6188,-9.4615,-2.0077,-1.4643,2.9503,-0.4249,6.43,34.84,-13.99,39.91,76.33,143.46,0.0,67.953,35.178085,126.9089,,155.0646531228374,,71.02258,,0 / 20,6453,2014-12-14 14:18:05:298
-0.8639,-7.126,-2.4538,-1.6257,-9.4289,-2.1503,1.279,1.731,0.3527,6.8,35.21,-14.24,42.14,73.93,140.56,0.0,67.953,35.178085,126.9089,,155.0646531228374,,71.02258,,0 / 20,6503,2014-12-14 14:18:05:348
0.209,-8.1414,-0.7678,-1.5304,-9.4536,-2.1114,1.6416,1.3884,0.9437,6.05,35.59,-13.11,42.14,73.93,140.56,0.0,67.953,35.178085,126.9089,,155.0646531228374,,71.02258,,0 / 20,6554,2014-12-14 14:18:05:399
-1.0172,-9.8081,2.6615,-1.442,-9.5371,-1.7707,0.504,0.6139,3.4977,7.55,35.21,-12.3,43.7,74.58,144.06,0.0,67.953,35.178085,126.9089,,155.0646531228374,,71.02258,,0 / 20,6604,2014-12-14 14:18:05:449
-0.0401,-9.9039,0.2476,-1.1317,-9.6809,-1.082,1.4441,-0.4028,1.6036,6.8,35.96,-12.3,43.7,74.58,144.06,0.0,67.953,35.178085,126.9089,,155.0646531228374,,71.02258,,0 / 20,6653,2014-12-14 14:18:05:498
-0.3466,-11.609,3.4661,-1.6544,-9.6346,-0.7801,-3.5126,-1.464,3.2847,7.18,35.59,-12.11,56.51,80.81,133.71,0.0,67.953,35.178085,126.9089,,155.0646531228374,,71.02258,,0 / 20,6703,2014-12-14 14:18:05:548
-0.0401,-8.5245,0.2092,-1.4073,-9.692,-0.504,1.5176,0.678,0.8954,8.3,34.84,-11.42,56.51,80.81,133.71,0.0,67.953,35.178085,126.9089,,155.0646531228374,,71.02258,,0 / 20,6753,2014-12-14 14:18:05:598
0.7837,-9.6166,1.6653,-1.1818,-9.7258,-0.4279,1.9565,-0.0851,0.9192,8.68,35.59,-11.86,85.56,81.23,109.7,0.0,64.878,35.178085,126.9089,,155.0646531228374,,71.02258,,0 / 20,6803,2014-12-14 14:18:05:648
0.6879,-9.4633,0.9564,-0.6987,-9.7816,0.0553,1.4689,0.1408,1.5279,7.18,34.84,-10.55,82.51,82.64,109.91,0.0,64.878,35.178085,126.9089,,155.0646531228374,,71.02258,,0 / 20,6853,2014-12-14 14:18:05:698
0.458,-9.6357,0.6882,-0.5245,-9.7911,0.172,1.2788,0.0868,0.6522,7.55,34.46,-8.74,126.77,85.9,85.47,0.0,64.878,35.178085,126.9089,,155.0646531228374,,71.02258,,0 / 20,6903,2014-12-14 14:18:05:748
-0.7106,-9.8656,0.8031,-0.4867,-9.79,0.2984,-0.2367,-0.2347,0.6169,6.8,35.59,-9.67,126.77,85.9,85.47,0.0,64.878,35.178085,126.9089,,155.0646531228374,,71.02258,,0 / 20,6953,2014-12-14 14:18:05:798
-0.0018,-9.3483,0.056,-0.4749,-9.7903,0.3088,0.2581,0.242,-0.0876,6.8,35.21,-9.67,151.96,86.66,58.49,0.0,64.878,35.178085,126.9089,,155.0646531228374,,71.02258,,0 / 20,7003,2014-12-14 14:18:05:848
0.2281,-9.6357,1.0714,-0.3328,-9.793,0.3948,0.3865,-0.1001,0.5827,6.8,34.84,-9.24,170.74,87.05,45.66,0.0,64.878,35.178085,126.9089,,155.0646531228374,,71.02258,,0 / 20,7053,2014-12-14 14:18:05:898
0.7262,-9.7315,1.0714,-0.2389,-9.7922,0.4746,0.7646,-0.0374,0.4977,6.8,35.96,-10.11,170.74,87.05,45.66,0.0,64.878,35.178085,126.9089,,155.0646531228374,,71.02258,,0 / 20,7103,2014-12-14 14:18:05:948
0.5538,-9.5782,1.2246,-0.086,-9.7874,0.6078,0.6646,0.0837,0.6277,6.8,35.21,-10.74,186.75,86.89,26.71,0.0,58.398,35.178085,126.9089,,155.0646531228374,,71.02258,,0 / 20,7153,2014-12-14 14:18:05:998
0.5538,-9.674,1.1097,0.0188,-9.7816,0.6997,0.5529,0.0028,0.3418,5.3,34.84,-9.67,211.58,86.07,1.49,0.0,58.398,35.178085,126.9089,,155.0646531228374,,71.02258,,0 / 20,7203,2014-12-14 14:18:06:048
0.5155,-9.425,0.9373,0.0927,-9.7778,0.7455,0.4649,0.1124,0.2843,6.8,35.59,-11.3,211.58,86.07,1.49,0.0,58.398,35.178085,126.9089,,155.0646531228374,,71.02258,,0 / 20,7254,2014-12-14 14:18:06:099
0.5921,-9.4058,0.5158,0.155,-9.776,0.759,0.4304,0.1485,-0.0785,6.43,35.21,-10.99,224.41,85.61,-7.09,0.0,58.398,35.178085,126.9089,,155.0646531228374,,71.02258,,0 / 20,7303,2014-12-14 14:18:06:148
0.2473,-9.5591,0.8223,0.1939,-9.7732,0.7859,0.0721,0.0253,0.0485,7.18,35.59,-8.74,242.27,85.47,-11.54,0.0,58.398,35.178085,126.9089,,155.0646531228374,,71.02258,,0 / 20,7353,2014-12-14 14:18:06:198
0.6879,-9.6932,0.8798,0.2453,-9.7719,0.7873,0.4105,-0.1014,0.1157,6.05,35.59,-9.24,242.27,85.47,-11.54,0.0,58.398,35.178085,126.9089,,155.0646531228374,,71.02258,,0 / 20,7403,2014-12-14 14:18:06:248
0.9561,-9.425,0.7457,0.298,-9.769,0.805,0.3519,0.1062,0.0817,7.18,37.4,-10.11,245.87,85.18,-17.31,0.0,58.398,35.178085,126.9089,,155.0646531228374,,71.02258,,0 / 20,7453,2014-12-14 14:18:06:298
1.186,-9.4441,0.7265,0.375,-9.7678,0.7872,0.5101,0.2387,-0.1966,6.43,36.34,-9.36,250.02,84.98,-20.32,0.0,62.4,35.178085,126.9089,,155.0646531228374,,71.02258,,0 / 20,7503,2014-12-14 14:18:06:348
0.5921,-9.4441,0.0943,0.4033,-9.771,0.7322,-0.2379,0.1854,-0.3213,5.68,35.96,-8.3,264.45,84.95,-29.1,0.0,62.4,35.178085,126.9089,,155.0646531228374,,71.02258,,0 / 20,7554,2014-12-14 14:18:06:399
0.822,-9.9422,0.5541,0.4695,-9.7761,0.6143,0.1097,-0.2347,-0.4991,5.3,37.4,-7.8,264.45,84.95,-29.1,0.0,62.4,35.178085,126.9089,,155.0646531228374,,71.02258,,0 / 20,7603,2014-12-14 14:18:06:448
0.6879,-9.7124,0.9373,0.4887,-9.7743,0.6287,0.2751,-0.1747,0.2125,6.05,37.03,-8.3,271.27,85.48,-37.39,0.0,62.4,35.178085,126.9089,,155.0646531228374,,71.02258,,0 / 20,7653,2014-12-14 14:18:06:498
1.1094,-9.7698,1.5886,0.5047,-9.7721,0.6501,0.3167,-0.1021,0.3655,4.99,37.78,-8.92,271.27,85.48,-37.39,0.0,62.4,35.178085,126.9089,,155.0646531228374,,71.02258,,0 / 20,7703,2014-12-14 14:18:06:548
0.7645,-9.3292,-0.2697,0.5906,-9.7558,0.8035,0.0705,-0.0897,0.5001,5.3,38.9,-8.49,269.66,85.19,-37.83,0.0,62.4,35.178085,126.9089,,155.0646531228374,,71.02258,,0 / 20,7753,2014-12-14 14:18:06:598
0.1706,-9.4058,0.4008,0.6214,-9.764,0.6693,0.4233,0.3751,-1.1332,6.43,36.65,-9.24,270.47,84.16,-36.32,0.0,62.4,35.178085,126.9089,,155.0646531228374,,71.02258,,0 / 20,7803,2014-12-14 14:18:06:648