ACCELEROMETER X (m/s²),ACCELEROMETER Y (m/s²),ACCELEROMETER Z (m/s²),GRAVITY X (m/s²),GRAVITY Y (m/s²),GRAVITY Z (m/s²),LINEAR ACCELERATION X (m/s²),LINEAR ACCELERATION Y (m/s²),LINEAR ACCELERATION Z (m/s²),MAGNETIC FIELD X (μT),MAGNETIC FIELD Y (μT),MAGNETIC FIELD Z (μT),ORIENTATION X (°),ORIENTATION Y (°),ORIENTATION Z (°),PROXIMITY (i),SOUND LEVEL (dB),LOCATION Latitude : ,LOCATION Longitude : ,LOCATION Altitude ( m),LOCATION Altitude-google ( m),LOCATION Speed ( Kmh),LOCATION Accuracy ( m),LOCATION ORIENTATION (°),Satellites in range,Time since start in ms ,YYYY-MO-DD HH-MI-SS_SSS
3.3509,-10.8618,3.6003,-0.0082,-9.7613,0.9415,2.4814,-0.8051,2.1941,16.74,32.28,-25.86,178.25,86.05,33.22,0.0,63.239,35.178024,126.9089,,155.40265673227503,,68.841934,,0 / 20,4,2014-12-14 14:14:02:521
4.0981,-11.1684,3.9643,0.4475,-9.7164,1.2498,3.543,-0.9917,2.2733,17.12,34.53,-25.61,216.5,84.49,0.5,0.0,63.239,35.178024,126.9089,,155.40265673227503,,68.841934,,0 / 20,55,2014-12-14 14:14:02:572
0.3622,-9.2717,1.6078,0.5537,-9.7029,1.3105,-1.6979,0.8121,-1.316,16.37,34.53,-26.74,216.5,84.49,0.5,0.0,63.239,35.178024,126.9089,,155.40265673227503,,68.841934,,0 / 20,106,2014-12-14 14:14:02:623
-1.3237,-9.6357,1.0905,0.4417,-9.7017,1.3611,-1.2813,0.3786,0.5679,15.68,33.78,-26.86,241.84,81.66,-22.9,0.0,63.239,35.178024,126.9089,,155.40265673227503,,68.841934,,0 / 20,154,2014-12-14 14:14:02:671
-0.5191,-10.1913,1.033,0.3384,-9.7074,1.3501,-1.4935,0.1817,-0.1942,15.68,33.4,-31.36,231.85,81.61,-17.98,0.0,63.239,35.178024,126.9089,,155.40265673227503,,68.841934,,0 / 20,204,2014-12-14 14:14:02:721
0.1898,-8.1605,1.3396,0.258,-9.7117,1.3367,0.0165,1.4605,-0.0354,16.05,31.21,-31.11,222.18,82.1,-9.88,0.0,63.239,35.178024,126.9089,,155.40265673227503,,68.841934,,0 / 20,254,2014-12-14 14:14:02:771
0.2281,-7.8157,2.1059,0.1928,-9.7088,1.368,-0.5308,1.9165,-0.0256,13.8,30.84,-32.92,222.18,82.1,-9.88,0.0,63.239,35.178024,126.9089,,155.40265673227503,,68.841934,,0 / 20,304,2014-12-14 14:14:02:821
0.3047,-8.0647,2.5657,0.1993,-9.678,1.5708,0.1089,1.1274,0.9423,13.8,29.34,-29.24,219.48,81.9,-8.02,0.0,66.443,35.178024,126.9089,,155.40265673227503,,68.841934,,0 / 20,355,2014-12-14 14:14:02:872
0.458,-7.7582,3.3129,0.2289,-9.6295,1.8415,0.2045,0.6589,1.8013,15.68,30.46,-30.74,220.06,80.71,-7.23,0.0,66.443,35.178024,126.9089,,155.40265673227503,,68.841934,,0 / 20,404,2014-12-14 14:14:02:921
1.2435,-8.5437,3.083,0.2729,-9.5812,2.0728,0.3957,0.9717,1.2653,15.68,29.34,-32.05,220.06,80.71,-7.23,0.0,66.443,35.178024,126.9089,,155.40265673227503,,68.841934,,0 / 20,454,2014-12-14 14:14:02:971
0.7454,-10.1338,3.811,0.4029,-9.5292,2.2811,0.2137,-0.592,1.0893,14.55,28.96,-29.24,220.78,77.69,-7.5,0.0,66.443,35.178024,126.9089,,155.40265673227503,,68.841934,,0 / 20,504,2014-12-14 14:14:03:021
1.2627,-9.6932,3.2937,0.4029,-9.5292,2.2811,0.2137,-0.592,1.0893,14.55,30.09,-26.17,231.66,76.34,-10.02,0.0,66.443,35.178024,126.9089,,155.40265673227503,,68.841934,,0 / 20,554,2014-12-14 14:14:03:071
-6.8413,-15.6706,3.0447,0.3302,-9.5457,2.2228,-2.9072,0.8556,-4.2504,14.93,31.96,-24.99,231.66,76.34,-10.02,0.0,66.443,35.178024,126.9089,,155.40265673227503,,68.841934,,0 / 20,604,2014-12-14 14:14:03:121
0.3431,-17.5672,7.3553,-0.2121,-9.5033,2.4111,-1.1535,-8.3748,6.2663,13.43,32.28,-24.99,229.66,76.75,-8.45,0.0,66.443,35.178024,126.9089,,155.40265673227503,,68.841934,,0 / 20,654,2014-12-14 14:14:03:171
1.2627,-8.4862,-1.5533,-0.2321,-9.726,1.2331,-4.2119,5.8576,-10.5162,12.3,34.15,-23.18,219.01,75.74,1.28,0.0,64.218,35.178024,126.9089,,155.40265673227503,,68.841934,,0 / 20,704,2014-12-14 14:14:03:221
-1.8601,-9.3483,-3.5649,-0.0358,-9.7772,0.759,2.3964,-1.3938,-3.3516,12.68,34.9,-21.36,212.53,85.56,2.7,0.0,64.218,35.178024,126.9089,,155.40265673227503,,68.841934,,0 / 20,754,2014-12-14 14:14:03:271
-1.9368,-8.7353,-2.1472,-0.2874,-9.8017,0.1173,-0.977,0.454,-2.0363,12.68,35.28,-17.17,212.53,85.56,2.7,0.0,64.218,35.178024,126.9089,,155.40265673227503,,68.841934,,0 / 20,804,2014-12-14 14:14:03:321
-1.8218,-9.5016,-1.3234,-0.5784,-9.7882,-0.1638,-1.9747,0.436,-1.6575,12.68,36.03,-16.05,149.69,88.19,67.79,0.0,64.218,35.178024,126.9089,,155.40265673227503,,68.841934,,0 / 20,854,2014-12-14 14:14:03:371
0.6496,-9.789,-1.7258,-0.3974,-9.7944,-0.2857,1.6736,-0.5716,-0.973,13.05,36.34,-14.61,90.0,87.14,125.71,0.0,64.218,35.178024,126.9089,,155.40265673227503,,68.841934,,0 / 20,904,2014-12-14 14:14:03:421
-0.0976,-9.3483,-1.7066,-0.2668,-9.7919,-0.4678,0.5725,-0.1146,-1.114,15.3,39.34,-11.49,77.01,86.85,150.3,0.0,64.218,35.178024,126.9089,,155.40265673227503,,68.841934,,0 / 20,954,2014-12-14 14:14:03:471
-0.4807,-9.2525,-1.9748,-0.218,-9.776,-0.7432,0.0634,0.0387,-1.3074,13.8,37.84,-13.05,77.01,86.85,150.3,0.0,64.218,35.178024,126.9089,,155.40265673227503,,68.841934,,0 / 20,1005,2014-12-14 14:14:03:522
-1.2854,-9.1568,-2.2813,-0.3233,-9.7594,-0.9059,-0.9428,0.5494,-1.1365,13.8,37.84,-11.74,57.88,85.47,163.65,0.0,69.342,35.178024,126.9089,,155.40265673227503,,68.841934,,0 / 20,1054,2014-12-14 14:14:03:571
-1.6494,-9.31,-2.0898,-0.4104,-9.7466,-1.0028,-1.1867,0.1495,-1.3215,14.93,37.84,-11.42,57.88,85.47,163.65,0.0,69.342,35.178024,126.9089,,155.40265673227503,,68.841934,,0 / 20,1104,2014-12-14 14:14:03:621
0.8795,-11.4366,-0.3847,-0.4789,-9.741,-1.0267,0.5237,-1.9154,0.6515,15.3,38.96,-10.68,66.02,83.66,157.74,0.0,69.342,35.178024,126.9089,,155.40265673227503,,68.841934,,0 / 20,1154,2014-12-14 14:14:03:671
2.6037,-13.1225,-0.4996,-0.2182,-9.7551,-0.9803,2.1046,-2.0999,-0.1081,14.93,37.46,-10.8,66.64,83.37,155.0,0.0,69.342,35.178024,126.9089,,155.40265673227503,,68.841934,,0 / 20,1204,2014-12-14 14:14:03:721
6.7036,-15.3832,2.4316,0.3139,-9.7727,-0.7527,4.8388,-4.0948,1.8906,15.3,37.46,-11.05,66.64,83.37,155.0,0.0,69.342,35.178024,126.9089,,155.40265673227503,,68.841934,,0 / 20,1254,2014-12-14 14:14:03:771
0.094,-12.4328,-4.8486,1.0239,-9.7508,-0.2098,1.2737,-0.095,-2.3338,12.68,36.71,-13.93,22.9,85.23,-157.36,0.0,69.342,35.178024,126.9089,,155.40265673227503,,68.841934,,0 / 20,1304,2014-12-14 14:14:03:821
-4.8105,-16.3028,-2.7986,0.5911,-9.7697,-0.6111,-4.653,-3.9934,-2.642,10.87,37.09,-16.74,321.33,83.88,-101.58,0.0,68.328,35.178024,126.9089,,155.40265673227503,,68.841934,,0 / 20,1354,2014-12-14 14:14:03:871
-2.7223,-15.3832,-1.0552,0.2595,-9.7795,-0.6809,-5.3889,-4.6519,-1.4724,9.37,35.28,-19.8,321.33,83.88,-101.58,0.0,68.328,35.178024,126.9089,,155.40265673227503,,68.841934,,0 / 20,1404,2014-12-14 14:14:03:921
-0.4233,-8.697,-4.7336,-0.2846,-9.7612,-0.8989,-3.0088,-0.0494,-2.4971,5.68,34.9,-24.99,357.11,85.74,-159.13,0.0,68.328,35.178024,126.9089,,155.40265673227503,,68.841934,,0 / 20,1454,2014-12-14 14:14:03:971
-2.8372,-6.4363,-4.3313,-0.5521,-9.6517,-1.6464,-1.9241,4.7099,-2.2945,5.3,33.03,-27.05,22.99,82.17,164.03,0.0,68.328,35.178024,126.9089,,155.40265673227503,,68.841934,,0 / 20,1504,2014-12-14 14:14:04:021
-5.0021,-2.6813,-5.021,-0.9824,-9.5405,-2.0454,-3.1781,6.469,-2.1874,5.3,30.84,-28.36,29.31,76.62,154.35,0.0,68.328,35.178024,126.9089,,155.40265673227503,,68.841934,,0 / 20,1554,2014-12-14 14:14:04:071
-4.4465,-1.5318,-4.2355,-1.8316,-9.214,-2.8139,-2.845,7.3152,-1.7818,6.8,31.96,-27.74,29.31,76.62,154.35,0.0,68.328,35.178024,126.9089,,155.40265673227503,,68.841934,,0 / 20,1604,2014-12-14 14:14:04:121
-4.1974,-2.2406,-1.879,-2.2568,-9.0818,-2.9323,-1.7382,3.8877,1.6621,6.43,31.96,-26.43,34.12,69.98,146.94,0.0,68.328,35.178024,126.9089,,155.40265673227503,,68.841934,,0 / 20,1654,2014-12-14 14:14:04:171
0.8029,-14.636,9.6543,-2.3409,-9.2198,-2.3843,-1.1609,-2.1479,6.7727,7.18,33.4,-26.24,34.12,69.98,146.94,0.0,68.328,35.178024,126.9089,,155.40265673227503,,68.841934,,0 / 20,1704,2014-12-14 14:14:04:221
-1.0363,-11.4749,6.9721,-0.0896,-9.7088,1.3789,18.301,-15.7667,29.2684,8.62,36.03,-24.42,46.0,70.08,135.53,0.0,67.705,35.178024,126.9089,,155.40265673227503,,68.841934,,0 / 20,1754,2014-12-14 14:14:04:271
-0.4807,-26.6674,16.3405,-1.3975,-9.7052,-0.1637,-14.9008,-2.6776,-8.2684,8.3,35.65,-23.11,208.65,79.7,-1.77,0.0,67.705,35.178024,126.9089,,155.40265673227503,,68.841934,,0 / 20,1804,2014-12-14 14:14:04:321
-3.0288,-6.5321,-9.6956,-0.397,-9.7975,0.1507,6.7006,-5.9449,-4.2054,11.62,37.84,-24.42,208.65,79.7,-1.77,0.0,67.705,35.178024,126.9089,,155.40265673227503,,68.841934,,0 / 20,1854,2014-12-14 14:14:04:371
-9.8683,0.2116,-8.4886,-0.7763,-9.7579,-0.5931,-5.387,6.2555,-11.0994,11.62,38.59,-20.74,73.54,84.28,127.38,0.0,67.705,35.178024,126.9089,,155.40265673227503,,68.841934,,0 / 20,1904,2014-12-14 14:14:04:421
4.0981,-13.4865,0.1326,-1.2921,-9.5875,-1.6062,5.7852,-4.0824,0.7215,12.68,43.03,-18.74,73.54,84.28,127.38,0.0,67.705,35.178024,126.9089,,155.40265673227503,,68.841934,,0 / 20,1954,2014-12-14 14:14:04:471
-2.7606,-8.2946,-0.1548,-0.9605,-9.6039,-1.7357,-1.4486,0.7427,2.0039,14.18,43.4,-14.3,56.4,77.87,141.18,0.0,67.705,35.178024,126.9089,,155.40265673227503,,68.841934,,0 / 20,2004,2014-12-14 14:14:04:521
-1.477,-9.3292,-1.63,-1.0846,-9.598,-1.6947,-1.6017,1.1578,0.759,14.18,43.4,-13.24,57.12,78.16,147.38,0.0,67.705,35.178024,126.9089,,155.40265673227503,,68.841934,,0 / 20,2054,2014-12-14 14:14:04:571
1.3585,-9.5591,-1.8215,-0.9977,-9.6139,-1.6577,1.4667,-0.4795,0.3966,15.3,44.46,-11.3,57.12,78.16,147.38,0.0,69.66,35.178024,126.9089,,155.40265673227503,,68.841934,,0 / 20,2104,2014-12-14 14:14:04:621
1.1286,-9.7698,-1.1893,-0.6977,-9.6396,-1.662,1.9924,-0.1799,0.0382,15.68,45.59,-11.74,60.92,78.62,148.96,0.0,69.66,35.178024,126.9089,,155.40265673227503,,68.841934,,0 / 20,2154,2014-12-14 14:14:04:671
-1.8985,-9.2525,-0.9211,-0.5869,-9.6762,-1.482,-0.614,0.3421,1.1014,17.87,45.96,-10.61,60.92,78.62,148.96,0.0,69.66,35.178024,126.9089,,155.40265673227503,,68.841934,,0 / 20,2204,2014-12-14 14:14:04:721
1.301,-10.8427,-1.4958,-0.7508,-9.6799,-1.3809,-1.0285,-0.5339,0.8375,20.05,45.59,-8.17,65.75,80.65,158.39,0.0,69.66,35.178024,126.9089,,155.40265673227503,,68.841934,,0 / 20,2254,2014-12-14 14:14:04:771
1.8374,-14.4636,0.4583,-0.5937,-9.7044,-1.2818,2.2436,-1.3875,-0.0195,19.74,43.78,-8.36,76.4,81.72,155.15,0.0,69.66,35.178024,126.9089,,155.40265673227503,,68.841934,,0 / 20,2304,2014-12-14 14:14:04:821
8.3321,-16.1304,1.4354,-0.2322,-9.7308,-1.1946,1.9583,-2.9333,0.4119,20.12,45.59,-10.11,61.57,82.87,169.0,0.0,69.66,35.178024,126.9089,,155.40265673227503,,68.841934,,0 / 20,2354,2014-12-14 14:14:04:871
1.1094,-11.9347,-0.5954,1.016,-9.7539,0.0084,-0.1162,-2.3386,3.443,18.99,45.96,-14.49,61.57,82.87,169.0,0.0,69.66,35.178024,126.9089,,155.40265673227503,,68.841934,,0 / 20,2404,2014-12-14 14:14:04:921
-1.5345,-10.5745,-5.1934,0.7631,-9.7677,-0.4251,-3.4006,-0.7046,-4.7946,16.05,45.21,-18.36,318.41,84.05,-89.53,0.0,66.928,35.178024,126.9089,,155.40265673227503,,68.841934,,0 / 20,2454,2014-12-14 14:14:04:971
-2.2816,-16.4561,-1.5533,0.181,-9.7854,-0.6189,-4.5273,-5.5234,-1.1156,10.87,44.46,-25.74,346.01,85.72,-141.5,0.0,66.928,35.178024,126.9089,,155.40265673227503,,68.841934,,0 / 20,2504,2014-12-14 14:14:05:021
-2.6648,-10.9002,-4.2547,-0.2829,-9.7647,-0.8611,-2.8473,0.8395,-2.6053,7.55,40.78,-29.67,346.01,85.72,-141.5,0.0,66.928,35.178024,126.9089,,155.40265673227503,,68.841934,,0 / 20,2554,2014-12-14 14:14:05:071
-1.7069,-7.5283,-4.0247,-0.3851,-9.7453,-1.0254,-1.7429,2.552,-2.7094,6.8,38.59,-31.92,27.7,84.7,161.81,0.0,66.928,35.178024,126.9089,,155.40265673227503,,68.841934,,0 / 20,2604,2014-12-14 14:14:05:121
-3.9484,-4.1181,-3.8715,-0.7097,-9.6623,-1.5189,-2.2963,5.4825,-1.9376,4.93,34.53,-35.24,28.83,80.16,154.96,0.0,66.928,35.178024,126.9089,,155.40265673227503,,68.841934,,0 / 20,2654,2014-12-14 14:14:05:171
-4.4848,-2.2789,-5.1551,-1.15,-9.5469,-1.9249,-2.8766,7.1725,-2.2535,7.55,34.9,-35.3,28.83,80.16,154.96,0.0,66.928,35.178024,126.9089,,155.40265673227503,,68.841934,,0 / 20,2704,2014-12-14 14:14:05:221
-3.5269,-1.3785,-4.8486,-2.1276,-9.0788,-3.0363,-1.7194,6.7747,-1.5573,7.55,34.9,-36.67,37.38,72.35,146.17,0.0,66.928,35.178024,126.9089,,155.40265673227503,,68.841934,,0 / 20,2754,2014-12-14 14:14:05:271
-2.2433,-13.3141,5.5927,-2.3098,-9.016,-3.0899,-1.6527,3.4477,0.2213,11.99,37.84,-30.92,42.11,66.83,143.22,0.0,68.638,35.178024,126.9089,,155.40265673227503,,68.841934,,0 / 20,2804,2014-12-14 14:14:05:321
25.3638,-30.1926,38.6408,-1.0409,-9.7464,-0.3086,14.4753,-13.8141,27.0519,12.3,38.21,-36.24,42.11,66.83,143.22,0.0,68.638,35.178024,126.9089,,155.40265673227503,,68.841934,,0 / 20,2854,2014-12-14 14:14:05:371
-1.6877,-6.9919,1.7419,0.2855,-9.5785,2.0837,0.2296,-2.0654,7.0337,11.99,37.09,-34.55,86.05,83.64,106.51,0.0,68.638,35.178024,126.9089,,155.40265673227503,,68.841934,,0 / 20,2904,2014-12-14 14:14:05:421
-4.5806,-2.3172,-13.1633,-0.7719,-9.7455,0.7739,5.3967,-1.9181,-9.0335,12.3,36.34,-34.42,153.4,81.16,41.82,0.0,68.638,35.178024,126.9089,,155.40265673227503,,68.841934,,0 / 20,2954,2014-12-14 14:14:05:471
-2.6073,-8.0839,-5.8065,-0.7719,-9.7455,0.7739,5.3967,-1.9181,-9.0335,12.3,36.34,-34.42,153.4,81.16,41.82,0.0,68.638,35.178024,126.9089,,155.40265673227503,,68.841934,,0 / 20,3004,2014-12-14 14:14:05:521
-0.6723,-10.8618,-4.5229,-1.7692,-9.614,-0.7818,-7.1355,8.3612,-9.7461,11.99,36.71,-31.49,152.84,83.6,44.92,0.0,68.638,35.178024,126.9089,,155.40265673227503,,68.841934,,0 / 20,3055,2014-12-14 14:14:05:572
-1.2471,-8.8502,-1.3426,-1.1283,-9.6363,-1.4278,0.2901,0.718,-1.6962,12.68,40.78,-27.93,61.62,80.3,132.14,0.0,68.638,35.178024,126.9089,,155.40265673227503,,68.841934,,0 / 20,3104,2014-12-14 14:14:05:621
-1.4578,-8.3521,-1.9365,-1.1471,-9.6339,-1.4294,-0.1509,1.0738,0.131,12.3,41.53,-26.67,61.62,80.3,132.14,0.0,69.471,35.178024,126.9089,,155.40265673227503,,68.841934,,0 / 20,3154,2014-12-14 14:14:05:671
1.2818,-9.4058,-1.4384,-1.103,-9.6307,-1.4846,1.4422,-0.15,-0.0224,11.99,42.28,-24.24,52.28,79.23,141.25,0.0,69.471,35.178024,126.9089,,155.40265673227503,,68.841934,,0 / 20,3204,2014-12-14 14:14:05:721
1.914,-9.674,-0.787,-0.867,-9.6518,-1.5036,1.8528,0.2793,-0.1226,13.05,42.65,-24.74,52.28,79.23,141.25,0.0,69.471,35.178024,126.9089,,155.40265673227503,,68.841934,,0 / 20,3254,2014-12-14 14:14:05:771
-2.3391,-10.1338,0.0368,-0.59,-9.6876,-1.4048,-0.81,-0.1025,0.8419,12.68,42.28,-18.8,44.32,80.86,158.66,0.0,69.471,35.178024,126.9089,,155.40265673227503,,68.841934,,0 / 20,3304,2014-12-14 14:14:05:821
-0.5765,-9.9422,-0.7678,-0.8171,-9.6912,-1.258,0.4399,-0.2742,0.4389,14.55,41.9,-17.67,59.34,81.2,147.0,0.0,69.471,35.178024,126.9089,,155.40265673227503,,68.841934,,0 / 20,3355,2014-12-14 14:14:05:872
-0.4999,-12.3945,-1.6108,-0.5467,-9.7173,-1.2024,3.2937,-1.5488,0.1658,13.8,41.53,-17.49,59.34,81.2,147.0,0.0,69.471,35.178024,126.9089,,155.40265673227503,,68.841934,,0 / 20,3404,2014-12-14 14:14:05:921
2.7762,-14.0038,0.4774,-0.2672,-9.7426,-1.0868,1.2622,-3.4288,0.8768,13.8,40.78,-16.61,52.62,82.26,155.55,0.0,69.471,35.178024,126.9089,,155.40265673227503,,68.841934,,0 / 20,3454,2014-12-14 14:14:05:971
7.5083,-14.9809,3.811,0.4598,-9.7658,-0.767,6.8593,-4.4919,2.581,13.05,38.21,-18.8,52.62,82.26,155.55,0.0,67.527,35.178024,126.9089,,155.40265673227503,,68.841934,,0 / 20,3504,2014-12-14 14:14:06:021
-2.8372,-13.1992,-4.8677,0.7113,-9.7736,-0.3762,-1.6734,0.1593,-3.7284,9.74,34.53,-22.3,358.14,84.77,-149.06,0.0,67.527,35.178024,126.9089,,155.40265673227503,,68.841934,,0 / 20,3554,2014-12-14 14:14:06:071
-3.9292,-16.686,-2.5304,0.4346,-9.7797,-0.5816,-4.3609,-2.9835,-3.5026,8.62,33.03,-22.3,323.88,85.29,-117.87,0.0,67.527,35.178024,126.9089,,155.40265673227503,,68.841934,,0 / 20,3604,2014-12-14 14:14:06:121
-3.4694,-13.659,-3.2967,-0.1392,-9.7778,-0.7393,-2.1905,-2.8255,-0.9111,5.68,30.84,-22.67,323.88,85.29,-117.87,0.0,67.527,35.178024,126.9089,,155.40265673227503,,68.841934,,0 / 20,3656,2014-12-14 14:14:06:173
-2.1284,-9.9231,-4.2738,-0.4312,-9.7459,-1.0005,-2.1424,0.8171,-2.6657,4.93,28.96,-23.18,21.04,85.6,169.34,0.0,67.527,35.178024,126.9089,,155.40265673227503,,68.841934,,0 / 20,3704,2014-12-14 14:14:06:221
-3.5269,-5.1718,-4.1589,-0.6702,-9.6592,-1.5561,-1.4761,5.1958,-2.3552,4.55,28.96,-22.74,29.59,81.28,157.65,0.0,67.527,35.178024,126.9089,,155.40265673227503,,68.841934,,0 / 20,3754,2014-12-14 14:14:06:271
-4.5615,-2.528,-4.906,-1.0647,-9.5511,-1.9529,-2.8803,6.7195,-2.1872,4.18,25.65,-24.17,29.59,81.28,157.65,0.0,68.083,35.178024,126.9089,,155.40265673227503,,68.841934,,0 / 20,3804,2014-12-14 14:14:06:321
-4.868,-1.321,-5.5383,-1.5906,-9.3527,-2.4835,-3.0266,7.691,-2.5947,4.55,26.03,-24.05,33.39,76.89,151.4,0.0,68.083,35.178024,126.9089,,155.40265673227503,,68.841934,,0 / 20,3854,2014-12-14 14:14:06:371
14.5777,-23.6213,28.4486,-2.3946,-8.9241,-3.286,-1.945,6.3507,-0.4266,5.68,27.9,-19.17,35.64,65.51,143.92,0.0,68.083,35.178024,126.9089,,155.40265673227503,,68.841934,,0 / 20,3904,2014-12-14 14:14:06:421
2.3355,-16.4178,12.2023,0.2532,-9.6146,1.9145,2.489,-5.8341,11.3408,7.55,27.53,-17.86,35.64,65.51,143.92,0.0,68.083,35.178024,126.9089,,155.40265673227503,,68.841934,,0 / 20,3954,2014-12-14 14:14:06:471
0.6879,-5.5358,2.6615,0.0898,-9.5841,2.0754,-2.5585,2.1991,2.1297,5.68,28.65,-17.36,219.16,78.64,-7.53,0.0,68.083,35.178024,126.9089,,155.40265673227503,,68.841934,,0 / 20,4004,2014-12-14 14:14:06:521
4.5579,-19.2723,-8.5078,-0.7034,-9.739,0.9098,5.4804,-7.0977,-6.1201,4.93,31.21,-15.99,152.96,82.77,38.13,0.0,68.083,35.178024,126.9089,,155.40265673227503,,68.841934,,0 / 20,4054,2014-12-14 14:14:06:571
-2.0134,-8.6012,-5.7873,-0.5021,-9.7852,0.4104,3.5043,3.2558,-8.3551,5.3,30.84,-16.55,152.96,82.77,38.13,0.0,68.083,35.178024,126.9089,,155.40265673227503,,68.841934,,0 / 20,4104,2014-12-14 14:14:06:621
3.6766,-13.5057,0.2859,-1.1503,-9.6965,-0.908,2.9113,-2.5085,-1.8131,5.68,33.03,-10.55,146.87,86.21,50.74,0.0,68.083,35.178024,126.9089,,155.40265673227503,,68.841934,,0 / 20,4154,2014-12-14 14:14:06:671
-0.9405,-9.061,-4.1014,-0.6684,-9.7332,-0.9941,2.6896,0.4604,-2.0883,6.05,33.4,-11.42,60.41,81.41,128.29,0.0,67.796,35.178024,126.9089,,155.40265673227503,,68.841934,,0 / 20,4204,2014-12-14 14:14:06:721
-2.205,-8.218,-1.7066,-0.7398,-9.7062,-1.1886,-1.0362,1.2873,-0.1498,6.8,33.03,-9.18,60.41,81.41,128.29,0.0,67.796,35.178024,126.9089,,155.40265673227503,,68.841934,,0 / 20,4254,2014-12-14 14:14:06:771
0.7454,-9.6932,-2.3388,-0.9115,-9.6824,-1.261,-0.9784,1.2429,-0.471,6.8,36.03,-7.42,52.64,81.79,148.1,0.0,67.796,35.178024,126.9089,,155.40265673227503,,68.841934,,0 / 20,4304,2014-12-14 14:14:06:821
2.5271,-10.038,-0.9019,-0.5645,-9.7048,-1.2916,2.5288,0.0923,0.2975,9.37,36.34,-3.11,70.73,80.99,146.52,0.0,67.796,35.178024,126.9089,,155.40265673227503,,68.841934,,0 / 20,4354,2014-12-14 14:14:06:871
-0.3849,-9.7124,-0.9403,-0.309,-9.7242,-1.2307,1.0681,0.3847,0.3456,8.62,33.4,-2.42,70.73,80.99,146.52,0.0,67.796,35.178024,126.9089,,155.40265673227503,,68.841934,,0 / 20,4404,2014-12-14 14:14:06:921
-1.3812,-10.3446,-0.0015,-0.3852,-9.7384,-1.0893,-0.9075,-0.0379,1.431,9.37,33.03,-0.24,76.49,82.57,165.91,0.0,67.796,35.178024,126.9089,,155.40265673227503,,68.841934,,0 / 20,4454,2014-12-14 14:14:06:971
3.0444,-10.7661,-1.3809,-0.4076,-9.7557,-0.9119,0.8956,0.2624,0.7185,10.87,37.84,-0.49,93.84,83.75,153.95,0.0,69.638,35.178024,126.9089,,155.40265673227503,,68.841934,,0 / 20,4504,2014-12-14 14:14:07:021
1.301,-13.9463,0.0751,-0.098,-9.7632,-0.9169,0.171,-2.6477,0.3065,11.62,34.9,-0.42,93.84,83.75,153.95,0.0,69.638,35.178024,126.9089,,155.40265673227503,,68.841934,,0 / 20,4554,2014-12-14 14:14:07:071
7.2401,-16.5902,0.8415,0.5017,-9.7681,-0.7095,6.1335,-5.2968,1.3877,11.24,34.15,-0.86,74.69,84.6,173.9,0.0,69.638,35.178024,126.9089,,155.40265673227503,,68.841934,,0 / 20,4604,2014-12-14 14:14:07:121
-0.9214,-10.996,-1.2851,0.7225,-9.7794,-0.1084,-0.6113,-3.0813,5.2219,9.37,35.65,-1.8,74.69,84.6,173.9,0.0,69.638,35.178024,126.9089,,155.40265673227503,,68.841934,,0 / 20,4654,2014-12-14 14:14:07:171
-2.3199,-11.609,-4.8869,0.4867,-9.7926,-0.1964,-2.0607,0.6686,-2.6605,6.05,37.09,-5.74,332.19,85.73,-98.53,0.0,69.638,35.178024,126.9089,,155.40265673227503,,68.841934,,0 / 20,4704,2014-12-14 14:14:07:221
-2.7989,-13.4099,-3.5841,-0.1806,-9.7774,-0.7351,-1.7163,-2.5628,-1.388,-0.57,34.53,-14.36,8.17,85.57,166.2,0.0,69.638,35.178024,126.9089,,155.40265673227503,,68.841934,,0 / 20,4754,2014-12-14 14:14:07:271
-2.1092,-10.6511,-3.9673,-0.3991,-9.7454,-1.0188,-1.6022,0.2553,-2.5978,-1.32,31.59,-15.24,8.17,85.57,166.2,0.0,69.112,35.178024,126.9089,,155.40265673227503,,68.841934,,0 / 20,4804,2014-12-14 14:14:07:321
-2.8564,-5.67,-3.7374,-0.8451,-9.6265,-1.6693,-2.2993,5.6774,-1.7431,-1.7,28.59,-22.24,13.53,83.59,158.61,0.0,69.112,35.178024,126.9089,,155.40265673227503,,68.841934,,0 / 20,4854,2014-12-14 14:14:07:371
-3.661,-4.5013,-3.7374,-1.0355,-9.577,-1.8384,-2.4973,5.9346,-1.7238,-1.32,26.4,-21.36,19.86,79.0,153.15,0.0,69.112,35.178024,126.9089,,155.40265673227503,,68.841934,,0 / 20,4904,2014-12-14 14:14:07:421
-4.6572,-1.9532,-5.0976,-1.4937,-9.4274,-2.2503,-2.9207,6.8736,-2.119,-1.7,27.53,-20.49,19.86,79.0,153.15,0.0,69.112,35.178024,126.9089,,155.40265673227503,,68.841934,,0 / 20,4954,2014-12-14 14:14:07:471
13.4282,-22.1269,24.866,-2.254,-9.0591,-3.0037,-1.7813,5.9843,-1.3026,-1.32,26.4,-16.55,22.89,74.01,146.42,0.0,69.112,35.178024,126.9089,,155.40265673227503,,68.841934,,0 / 20,5034,2014-12-14 14:14:07:551
25.383,-28.3917,36.2268,-0.5261,-9.7881,0.2945,20.4339,-16.0061,31.7577,0.18,27.53,-16.05,23.07,67.48,143.11,0.0,69.112,35.178024,126.9089,,155.40265673227503,,68.841934,,0 / 20,5054,2014-12-14 14:14:07:571
0.3431,-5.191,1.8377,0.178,-9.6071,1.9604,-2.9322,-0.7556,4.5263,-0.2,26.78,-14.8,23.07,67.48,143.11,0.0,69.112,35.178024,126.9089,,155.40265673227503,,68.841934,,0 / 20,5104,2014-12-14 14:14:07:621
-8.4314,-4.712,-16.4202,-0.0318,-9.67,1.631,-1.0721,5.5086,-6.3615,0.18,24.59,-15.11,188.03,78.42,-5.19,0.0,69.112,35.178024,126.9089,,155.40265673227503,,68.841934,,0 / 20,5154,2014-12-14 14:14:07:671
-7.6459,-1.2444,-14.3127,-0.5691,-9.7702,0.6245,3.9036,0.8357,-6.4849,2.74,27.15,-11.05,133.99,80.11,43.69,0.0,66.887,35.178024,126.9089,,155.40265673227503,,68.841934,,0 / 20,5204,2014-12-14 14:14:07:721
-2.3966,-8.6586,-3.7757,-1.5504,-9.6641,-0.6101,-5.0151,5.8672,-5.7063,3.49,29.34,-10.3,133.99,80.11,43.69,0.0,66.887,35.178024,126.9089,,155.40265673227503,,68.841934,,0 / 20,5254,2014-12-14 14:14:07:771
3.2168,-13.6973,0.0943,-1.1851,-9.7075,-0.7279,3.8271,-3.6266,0.339,3.49,28.96,-7.86,59.35,80.22,111.48,0.0,66.887,35.178024,126.9089,,155.40265673227503,,68.841934,,0 / 20,5304,2014-12-14 14:14:07:821
-1.5536,-8.7928,-1.0744,-0.6594,-9.7358,-0.9746,2.7294,0.6682,-2.6882,5.68,30.84,-5.49,59.97,83.11,145.92,0.0,66.887,35.178024,126.9089,,155.40265673227503,,68.841934,,0 / 20,5355,2014-12-14 14:14:07:872
0.822,-10.1338,-0.8828,-0.764,-9.7166,-1.0838,-1.0904,1.3335,-0.4768,5.3,30.09,-4.8,59.97,83.11,145.92,0.0,66.887,35.178024,126.9089,,155.40265673227503,,68.841934,,0 / 20,5404,2014-12-14 14:14:07:921
0.8987,-9.789,-1.0361,-0.6452,-9.7259,-1.0773,1.5283,-0.0647,-0.0061,6.8,29.71,-3.11,53.71,82.23,144.82,0.0,66.887,35.178024,126.9089,,155.40265673227503,,68.841934,,0 / 20,5454,2014-12-14 14:14:07:971
2.393,-9.8465,-0.8828,-0.6452,-9.7259,-1.0773,1.5283,-0.0647,-0.0061,6.8,29.71,-1.99,74.31,82.64,149.08,0.0,70.769,35.178024,126.9089,,155.40265673227503,,68.841934,,0 / 20,5504,2014-12-14 14:14:08:021
-1.3812,-8.9843,-1.0361,-0.318,-9.7543,-0.9605,-1.6382,0.9292,0.4936,8.62,29.34,-0.24,80.86,83.66,168.49,0.0,70.769,35.178024,126.9089,,155.40265673227503,,68.841934,,0 / 20,5554,2014-12-14 14:14:08:071
-0.1934,-8.5054,-1.6683,-0.3946,-9.7478,-0.9978,-0.2629,1.1446,-0.2048,9.74,30.09,-0.86,80.86,83.66,168.49,0.0,70.769,35.178024,126.9089,,155.40265673227503,,68.841934,,0 / 20,5604,2014-12-14 14:14:08:121
0.0748,-9.6357,-1.6108,-0.2795,-9.7397,-1.109,1.1072,0.0031,-0.6962,11.62,28.96,1.39,101.2,83.72,158.42,0.0,70.769,35.178024,126.9089,,155.40265673227503,,68.841934,,0 / 20,5654,2014-12-14 14:14:08:171
-1.0746,-9.3292,-1.6491,-0.3221,-9.7266,-1.2085,-0.5937,0.4426,-0.6992,11.99,30.09,0.89,101.2,83.72,158.42,0.0,70.769,35.178024,126.9089,,155.40265673227503,,68.841934,,0 / 20,5704,2014-12-14 14:14:08:221
1.665,-13.2183,0.1326,0.2203,-9.7493,-1.0363,4.2146,-3.2406,1.7137,13.43,31.59,0.01,96.68,82.67,165.08,0.0,70.769,35.178024,126.9089,,155.40265673227503,,68.841934,,0 / 20,5754,2014-12-14 14:14:08:271
-2.4349,-12.9693,-0.8828,0.2332,-9.7618,-0.9073,-1.0036,-2.8141,0.2808,14.18,30.84,-1.74,58.34,83.8,-168.0,0.0,70.769,35.178024,126.9089,,155.40265673227503,,68.841934,,0 / 20,5804,2014-12-14 14:14:08:321
-4.1591,-11.4366,-4.1589,-0.1535,-9.7518,-1.0244,-2.8613,-0.4649,-1.5239,12.3,34.15,-2.42,58.34,83.8,-168.0,0.0,66.278,35.178024,126.9089,,155.40265673227503,,68.841934,,0 / 20,5854,2014-12-14 14:14:08:371
-4.025,-10.5936,-3.4883,-0.8399,-9.6663,-1.4237,-4.5096,-1.4545,-1.3968,11.62,36.34,-6.11,61.5,83.94,171.48,0.0,66.278,35.178024,126.9089,,155.40265673227503,,68.841934,,0 / 20,5904,2014-12-14 14:14:08:421
-1.3429,-10.5553,-4.4845,-1.1735,-9.5979,-1.635,-1.8195,0.4539,-1.7826,9.37,36.71,-7.86,54.21,80.3,149.46,0.0,66.278,35.178024,126.9089,,155.40265673227503,,68.841934,,0 / 20,5954,2014-12-14 14:14:08:471
-3.0288,-9.1759,-3.2201,-1.2463,-9.544,-1.8788,-0.7107,0.9093,-1.4981,7.93,37.09,-9.18,54.21,80.3,149.46,0.0,66.278,35.178024,126.9089,,155.40265673227503,,68.841934,,0 / 20,6004,2014-12-14 14:14:08:521
-2.1475,-6.9919,-3.1051,-1.7647,-9.3779,-2.2608,-1.011,2.7323,-1.3894,6.43,37.46,-11.3,41.48,76.71,146.44,0.0,66.278,35.178024,126.9089,,155.40265673227503,,68.841934,,0 / 20,6054,2014-12-14 14:14:08:571
-1.9942,-6.9727,-2.0706,-1.8453,-9.3341,-2.3747,-0.0574,2.8673,0.1301,5.68,36.4,-10.3,36.82,73.0,142.02,0.0,66.278,35.178024,126.9089,,155.40265673227503,,68.841934,,0 / 20,6104,2014-12-14 14:14:08:621
-0.749,-7.854,-0.4613,-1.868,-9.3868,-2.1375,0.47,1.1565,2.6625,6.43,37.09,-10.42,38.13,73.17,138.85,0.0,66.278,35.178024,126.9089,,155.40265673227503,,68.841934,,0 / 20,6154,2014-12-14 14:14:08:671
-0.5574,-10.5362,0.9373,-1.7847,-9.4692,-1.8221,-0.49,0.7111,1.311,5.3,36.71,-9.61,38.13,73.17,138.85,0.0,67.709,35.178024,126.9089,,155.40265673227503,,68.841934,,0 / 20,6204,2014-12-14 14:14:08:721
0.0365,-11.9347,1.2821,-1.7247,-9.5376,-1.4936,1.4197,-1.4129,2.4592,7.18,37.46,-9.42,51.09,76.55,130.89,0.0,67.709,35.178024,126.9089,,155.40265673227503,,68.841934,,0 / 20,6254,2014-12-14 14:14:08:771
-0.1359,-8.4862,-0.1165,-1.7223,-9.6149,-0.87,0.8712,-1.0047,2.7522,7.55,37.46,-9.18,64.43,77.72,120.81,0.0,67.709,35.178024,126.9089,,155.40265673227503,,68.841934,,0 / 20,6304,2014-12-14 14:14:08:821
0.7837,-8.9269,0.42,-1.5054,-9.6603,-0.7634,1.7787,1.415,0.8302,6.8,36.34,-8.74,64.43,77.72,120.81,0.0,67.709,35.178024,126.9089,,155.40265673227503,,68.841934,,0 / 20,6354,2014-12-14 14:14:08:871
1.301,-11.0918,2.4316,-1.2279,-9.7158,-0.515,1.8642,-0.9765,2.3288,7.93,39.71,-6.99,73.21,80.09,116.89,0.0,67.709,35.178024,126.9089,,155.40265673227503,,68.841934,,0 / 20,6404,2014-12-14 14:14:08:921
0.9561,-10.038,1.3587,-0.8114,-9.7728,-0.0626,1.0838,0.3033,0.9902,8.62,38.96,-6.55,102.91,83.52,106.88,0.0,67.709,35.178024,126.9089,,155.40265673227503,,68.841934,,0 / 20,6454,2014-12-14 14:14:08:971
0.3814,-9.9231,0.7074,-0.6089,-9.7873,0.0956,1.2219,-0.2469,0.947,6.8,37.46,-8.3,102.91,83.52,106.88,0.0,55.86,35.178024,126.9089,,155.40265673227503,,68.841934,,0 / 20,6504,2014-12-14 14:14:09:021
-0.5191,-9.6166,0.3242,-0.5311,-9.7911,0.1517,0.3199,0.0393,0.2971,7.18,39.34,-8.74,126.82,86.4,81.08,0.0,55.86,35.178024,126.9089,,155.40265673227503,,68.841934,,0 / 20,6554,2014-12-14 14:14:09:071
0.3814,-9.6357,0.305,-0.5165,-9.7915,0.172,0.2621,0.1345,-0.0134,8.62,37.84,-6.99,155.44,86.71,72.1,0.0,55.86,35.178024,126.9089,,155.40265673227503,,68.841934,,0 / 20,6604,2014-12-14 14:14:09:121
0.6688,-9.8273,0.2092,-0.4663,-9.7939,0.1784,0.7013,0.0865,0.0862,7.93,38.21,-8.74,155.44,86.71,72.1,0.0,55.86,35.178024,126.9089,,155.40265673227503,,68.841934,,0 / 20,6654,2014-12-14 14:14:09:171
0.4772,-9.6932,1.033,-0.1956,-9.8011,0.2651,0.7314,0.0975,0.5441,7.93,38.21,-7.68,165.39,87.81,57.7,0.0,55.86,35.178024,126.9089,,155.40265673227503,,68.841934,,0 / 20,6704,2014-12-14 14:14:09:221
0.4389,-9.7315,0.7074,-0.1129,-9.7995,0.3571,0.5405,-0.0113,0.5508,7.93,39.71,-9.61,203.89,87.81,17.55,0.0,55.86,35.178024,126.9089,,155.40265673227503,,68.841934,,0 / 20,6754,2014-12-14 14:14:09:271
0.2664,-9.6166,0.42,-0.0222,-9.7979,0.4131,0.3455,0.1281,0.0359,7.55,37.46,-8.05,227.82,87.58,3.08,0.0,55.86,35.178024,126.9089,,155.40265673227503,,68.841934,,0 / 20,6810,2014-12-14 14:14:09:327
0.2473,-9.5782,0.4774,-0.0044,-9.7975,0.4226,0.0478,-0.0858,0.1152,6.8,36.71,-9.61,227.82,87.58,3.08,0.0,62.068,35.178024,126.9089,,155.40265673227503,,68.841934,,0 / 20,6854,2014-12-14 14:14:09:371
0.2664,-9.5782,0.6307,0.0431,-9.7965,0.4441,0.1906,0.0923,0.1724,6.8,37.46,-8.8,227.89,87.47,-3.89,0.0,62.068,35.178024,126.9089,,155.40265673227503,,68.841934,,0 / 20,6904,2014-12-14 14:14:09:421
0.3622,-9.5974,0.6499,0.0567,-9.7948,0.4784,0.0566,0.1994,0.2185,7.55,37.46,-8.61,235.58,87.18,-6.76,0.0,62.068,35.178024,126.9089,,155.40265673227503,,68.841934,,0 / 20,6954,2014-12-14 14:14:09:471
0.5538,-9.6549,0.784,0.1224,-9.7918,0.5257,0.4144,-0.0176,0.3345,6.8,36.03,-7.42,235.58,87.18,-6.76,0.0,62.068,35.178024,126.9089,,155.40265673227503,,68.841934,,0 / 20,7004,2014-12-14 14:14:09:521
0.4772,-9.7507,0.784,0.1792,-9.7884,0.5699,0.3394,-0.0855,0.2966,7.55,37.46,-7.42,252.49,86.84,-13.11,0.0,62.068,35.178024,126.9089,,155.40265673227503,,68.841934,,0 / 20,7054,2014-12-14 14:14:09:571
0.3047,-9.6357,0.4966,0.2243,-9.7862,0.5922,0.1171,0.0892,-0.1303,7.55,37.46,-8.11,256.76,86.27,-19.74,0.0,62.068,35.178024,126.9089,,155.40265673227503,,68.841934,,0 / 20,7104,2014-12-14 14:14:09:621
0.0748,-9.6932,0.5349,0.2275,-9.7862,0.5904,0.043,0.0103,-0.0261,7.93,37.46,-7.68,256.76,86.27,-19.74,0.0,62.068,35.178024,126.9089,,155.40265673227503,,68.841934,,0 / 20,7155,2014-12-14 14:14:09:672
0.3814,-9.6932,0.5732,0.2056,-9.7863,0.5963,0.0214,-0.0028,0.0352,7.55,38.96,-9.42,250.72,86.3,-21.07,0.0,61.0,35.178024,126.9089,,155.40265673227503,,68.841934,,0 / 20,7204,2014-12-14 14:14:09:721
0.2473,-9.7698,0.669,0.2254,-9.7857,0.5991,0.093,0.0845,-0.0188,7.93,37.46,-7.42,262.49,86.26,-20.62,0.0,61.0,35.178024,126.9089,,155.40265673227503,,68.841934,,0 / 20,7254,2014-12-14 14:14:09:771
0.2664,-9.6932,0.5541,0.2357,-9.785,0.6078,0.0326,-0.0659,0.0857,7.18,36.71,-8.74,262.49,86.26,-20.62,0.0,61.0,35.178024,126.9089,,155.40265673227503,,68.841934,,0 / 20,7305,2014-12-14 14:14:09:822
-0.0593,-9.5208,0.1134,0.225,-9.7857,0.5992,-0.0309,0.2059,-0.4706,7.55,38.96,-7.86,254.22,86.19,-21.2,0.0,61.0,35.178024,126.9089,,155.40265673227503,,68.841934,,0 / 20,7354,2014-12-14 14:14:09:871
0.0557,-9.7124,0.4774,0.2064,-9.7887,0.5564,-0.1103,-0.0587,-0.1671,7.93,38.59,-8.74,253.44,86.45,-20.67,0.0,61.0,35.178024,126.9089,,155.40265673227503,,68.841934,,0 / 20,7404,2014-12-14 14:14:09:921
0.1323,-9.674,0.2476,0.1993,-9.7898,0.5397,0.0278,0.001,-0.1375,7.55,38.21,-7.61,253.44,86.45,-20.67,0.0,61.0,35.178024,126.9089,,155.40265673227503,,68.841934,,0 / 20,7454,2014-12-14 14:14:09:971
0.4197,-9.7698,0.5349,0.2032,-9.7905,0.5241,0.1348,-0.1256,0.0575,7.93,39.71,-7.68,257.32,86.64,-20.27,0.0,61.0,35.178024,126.9089,,155.40265673227503,,68.841934,,0 / 20,7504,2014-12-14 14:14:10:021
0.3047,-9.674,0.4774,0.2284,-9.7906,0.5124,0.1421,-0.0037,-0.0957,7.93,37.09,-8.11,256.74,86.71,-21.19,0.0,63.223,35.178024,126.9089,,155.40265673227503,,68.841934,,0 / 20,7554,2014-12-14 14:14:10:071
0.2664,-9.7315,0.3625,0.2275,-9.7903,0.5181,-0.0124,-0.0525,0.012,7.55,37.46,-7.68,259.56,86.69,-23.83,0.0,63.223,35.178024,126.9089,,155.40265673227503,,68.841934,,0 / 20,7605,2014-12-14 14:14:10:122
0.1706,-9.674,0.2859,0.2319,-9.7908,0.5067,0.0098,-0.0241,-0.0781,6.8,37.46,-6.8,259.56,86.69,-23.83,0.0,63.223,35.178024,126.9089,,155.40265673227503,,68.841934,,0 / 20,7654,2014-12-14 14:14:10:171
0.1132,-9.674,0.4391,0.2174,-9.7915,0.4991,-0.093,-0.0294,-0.0101,8.99,37.46,-8.8,253.45,86.74,-24.59,0.0,63.223,35.178024,126.9089,,155.40265673227503,,68.841934,,0 / 20,7704,2014-12-14 14:14:10:221
0.2473,-9.5591,0.1326,0.2132,-9.7931,0.4699,0.0229,0.1035,-0.2877,7.93,37.46,-7.92,258.83,86.82,-23.53,0.0,63.223,35.178024,126.9089,,155.40265673227503,,68.841934,,0 / 20,7754,2014-12-14 14:14:10:271
0.2856,-9.6932,0.2859,0.227,-9.7953,0.4142,0.0258,-0.0256,-0.164,7.93,38.21,-8.74,258.24,87.18,-27.85,0.0,63.223,35.178024,126.9089,,155.40265673227503,,68.841934,,0 / 20,7804,2014-12-14 14:14:10:321
0.4389,-9.6549,0.42,0.2401,-9.795,0.4123,0.1802,0.0335,0.0303,8.62,37.46,-9.18,258.24,87.18,-27.85,0.0,63.223,35.178024,126.9089,,155.40265673227503,,68.841934,,0 / 20,7854,2014-12-14 14:14:10:371
0.3622,-9.7315,0.5732,0.2596,-9.7944,0.4152,0.1034,-0.0021,0.0504,8.3,37.09,-9.67,258.83,87.14,-32.01,0.0,63.1,35.178024,126.9089,,155.40265673227503,,68.841934,,0 / 20,7904,2014-12-14 14:14:10:421
0.4005,-9.789,0.9373,0.2754,-9.7919,0.462,0.0983,0.0683,0.3075,7.55,37.46,-9.99,258.41,86.86,-30.79,0.0,63.1,35.178024,126.9089,,155.40265673227503,,68.841934,,0 / 20,7954,2014-12-14 14:14:10:471
0.2664,-9.5974,0.7074,0.2845,-9.7892,0.5114,0.0064,-0.003,0.281,6.8,37.46,-9.61,258.41,86.86,-30.79,0.0,63.1,35.178024,126.9089,,155.40265673227503,,68.841934,,0 / 20,8004,2014-12-14 14:14:10:521
0.4197,-9.5782,0.8798,0.2828,-9.786,0.5698,0.0103,0.0722,0.3206,7.18,37.09,-9.99,253.87,86.48,-28.53,0.0,63.1,35.178024,126.9089,,155.40265673227503,,68.841934,,0 / 20,8054,2014-12-14 14:14:10:571
0.5921,-9.6549,0.8989,0.3061,-9.7829,0.6099,0.1942,0.0449,0.2855,7.18,37.84,-8.8,257.68,86.01,-26.65,0.0,63.1,35.178024,126.9089,,155.40265673227503,,68.841934,,0 / 20,8104,2014-12-14 14:14:10:621
0.4197,-9.5016,1.0139,0.3564,-9.7766,0.6798,0.157,0.0393,0.3257,6.8,37.84,-9.86,257.68,86.01,-26.65,0.0,63.1,35.178024,126.9089,,155.40265673227503,,68.841934,,0 / 20,8154,2014-12-14 14:14:10:671
0.1898,-9.6166,0.9181,0.3564,-9.7766,0.6798,0.157,0.0393,0.3257,7.18,37.46,-10.11,256.53,85.51,-27.67,0.0,63.1,35.178024,126.9089,,155.40265673227503,,68.841934,,0 / 20,8204,2014-12-14 14:14:10:721
0.5538,-9.6549,0.9564,0.3423,-9.7707,0.7662,0.0433,0.0249,0.2168,5.68,37.84,-9.24,254.93,85.24,-24.77,0.0,58.11,35.178024,126.9089,,155.40265673227503,,68.841934,,0 / 20,8254,2014-12-14 14:14:10:771
0.5155,-9.4633,0.8606,0.3666,-9.7677,0.7924,0.1633,0.0719,0.1599,6.05,38.21,-10.3,250.39,85.09,-24.08,0.0,58.11,35.178024,126.9089,,155.40265673227503,,68.841934,,0 / 20,8304,2014-12-14 14:14:10:821
0.4772,-9.674,0.9756,0.3865,-9.7657,0.8074,0.1347,-0.0127,0.1277,7.18,38.21,-9.67,250.39,85.09,-24.08,0.0,58.11,35.178024,126.9089,,155.40265673227503,,68.841934,,0 / 20,8354,2014-12-14 14:14:10:871
0.458,-9.5974,0.9181,0.3983,-9.7639,0.8228,0.0846,0.0024,0.0919,6.8,37.46,-10.3,256.92,84.65,-25.83,0.0,58.11,35.178024,126.9089,,155.40265673227503,,68.841934,,0 / 20,8404,2014-12-14 14:14:10:921
0.5347,-9.6166,1.0714,0.4209,-9.7603,0.8541,0.1194,0.0024,0.165,5.3,37.84,-10.99,246.47,84.58,-26.06,0.0,58.11,35.178024,126.9089,,155.40265673227503,,68.841934,,0 / 20,8454,2014-12-14 14:14:10:971
0.573,-9.5591,0.7265,0.4361,-9.7589,0.863,0.0742,0.0465,0.0431,6.8,37.84,-11.42,246.47,84.58,-26.06,0.0,58.11,35.178024,126.9089,,155.40265673227503,,68.841934,,0 / 20,8504,2014-12-14 14:14:11:021
0.5155,-9.674,0.7648,0.4445,-9.7589,0.8583,0.1136,0.0523,-0.0688,6.43,38.96,-10.74,252.61,84.34,-26.81,0.0,58.11,35.178024,126.9089,,155.40265673227503,,68.841934,,0 / 20,8554,2014-12-14 14:14:11:071
0.9178,-9.5399,0.4008,0.4838,-9.7612,0.8091,0.2883,-0.0404,-0.3254,6.8,38.59,-9.67,252.61,84.34,-26.81,0.0,54.349,35.178024,126.9089,,155.40265673227503,,68.841934,,0 / 20,8604,2014-12-14 14:14:11:121
-0.0976,-9.789,0.4583,0.5426,-9.7655,0.7151,0.2821,0.1461,-0.6961,6.43,38.59,-8.86,264.88,84.48,-30.87,0.0,54.349,35.178024,126.9089,,155.40265673227503,,68.841934,,0 / 20,8654,2014-12-14 14:14:11:171
0.6496,-9.9806,0.7074,0.4744,-9.7734,0.6527,0.1915,-0.5665,0.0548,6.05,37.84,-8.36,266.51,84.75,-37.19,0.0,54.349,35.178024,126.9089,,155.40265673227503,,68.841934,,0 / 20,8704,2014-12-14 14:14:11:221
0.6304,-9.9039,0.6116,0.4829,-9.7737,0.6414,0.1294,-0.049,-0.0922,6.05,39.71,-9.18,267.47,85.28,-36.01,0.0,54.349,35.178024,126.9089,,155.40265673227503,,68.841934,,0 / 20,8754,2014-12-14 14:14:11:271
0.8987,-9.8656,0.669,0.5164,-9.7724,0.6356,0.3194,-0.222,0.0131,4.55,37.84,-9.24,266.13,85.21,-39.09,0.0,54.349,35.178024,126.9089,,155.40265673227503,,68.841934,,0 / 20,8804,2014-12-14 14:14:11:321
0.6688,-9.5208,0.3817,0.596,-9.7668,0.6518,0.079,0.1824,-0.2079,6.05,39.71,-8.74,266.13,85.21,-39.09,0.0,54.349,35.178024,126.9089,,155.40265673227503,,68.841934,,0 / 20,8854,2014-12-14 14:14:11:371
0.4005,-9.7507,-0.308,0.6055,-9.7721,0.5564,-0.0943,-0.0236,-0.8,4.93,37.84,-10.11,266.89,84.83,-42.44,0.0,72.741,35.178024,126.9089,,155.40265673227503,,68.841934,,0 / 20,8904,2014-12-14 14:14:11:421