ACCELEROMETER X (m/s²),ACCELEROMETER Y (m/s²),ACCELEROMETER Z (m/s²),GRAVITY X (m/s²),GRAVITY Y (m/s²),GRAVITY Z (m/s²),LINEAR ACCELERATION X (m/s²),LINEAR ACCELERATION Y (m/s²),LINEAR ACCELERATION Z (m/s²),MAGNETIC FIELD X (μT),MAGNETIC FIELD Y (μT),MAGNETIC FIELD Z (μT),ORIENTATION X (°),ORIENTATION Y (°),ORIENTATION Z (°),PROXIMITY (i),SOUND LEVEL (dB),LOCATION Latitude : ,LOCATION Longitude : ,LOCATION Altitude ( m),LOCATION Altitude-google ( m),LOCATION Speed ( Kmh),LOCATION Accuracy ( m),LOCATION ORIENTATION (°),Satellites in range,Time since start in ms ,YYYY-MO-DD HH-MI-SS_SSS
-0.0593,-9.4058,0.7648,0.2257,-9.7914,0.4981,-0.112,-0.2076,0.0905,10.87,34.9,-27.99,231.23,86.7,-26.74,0.0,72.212,35.17804,126.90893,,154.8402269413939,,70.741936,,0 / 20,3,2014-12-14 14:15:32:039
-0.155,-9.5974,0.6882,0.1645,-9.7904,0.54,-0.416,0.116,0.2811,11.24,34.9,-28.42,228.67,86.8,-24.38,0.0,72.212,35.17804,126.90893,,154.8402269413939,,70.741936,,0 / 20,53,2014-12-14 14:15:32:089
0.0174,-9.7124,0.6116,0.269,-9.7873,0.5536,-0.3573,0.0353,0.0092,13.8,33.78,-26.24,228.12,86.7,-16.94,0.0,55.934,35.17804,126.90893,,154.8402269413939,,70.741936,,0 / 20,103,2014-12-14 14:15:32:139
0.1898,-9.8656,0.4966,0.2252,-9.7885,0.5518,-0.1368,-0.2198,-0.1799,14.18,35.96,-24.11,236.26,86.52,-22.2,0.0,55.934,35.17804,126.90893,,154.8402269413939,,70.741936,,0 / 20,153,2014-12-14 14:15:32:189
0.4197,-9.9231,0.6882,0.2085,-9.7896,0.5383,-0.0632,-0.1743,-0.0066,15.3,36.4,-24.3,236.26,86.52,-22.2,0.0,55.934,35.17804,126.90893,,154.8402269413939,,70.741936,,0 / 20,203,2014-12-14 14:15:32:239
0.6879,-10.153,1.2055,0.2214,-9.7888,0.549,0.1786,-0.1786,0.0873,15.68,37.46,-24.11,240.6,86.54,-21.96,0.0,55.934,35.17804,126.90893,,154.8402269413939,,70.741936,,0 / 20,253,2014-12-14 14:15:32:289
0.937,-10.517,1.991,0.2513,-9.7865,0.5752,0.3496,-0.3525,0.5383,15.68,37.09,-24.24,241.49,86.33,-23.6,0.0,55.934,35.17804,126.90893,,154.8402269413939,,70.741936,,0 / 20,303,2014-12-14 14:15:32:339
1.2244,-10.881,1.7994,0.3172,-9.7727,0.7508,0.332,-0.7156,1.4554,15.3,35.28,-27.93,235.51,85.23,-22.9,0.0,55.934,35.17804,126.90893,,154.8402269413939,,70.741936,,0 / 20,353,2014-12-14 14:15:32:389
1.2818,-10.6128,-0.2889,0.3771,-9.7509,0.9738,0.7258,-0.814,0.8205,13.43,33.78,-23.55,235.51,85.23,-22.9,0.0,63.784,35.17804,126.90893,,154.8402269413939,,70.741936,,0 / 20,403,2014-12-14 14:15:32:439
-1.8985,-10.2488,-1.0169,0.4862,-9.7727,0.6548,-0.5303,-0.1937,-1.8597,13.43,34.53,-27.8,242.17,83.88,-28.38,0.0,63.784,35.17804,126.90893,,154.8402269413939,,70.741936,,0 / 20,453,2014-12-14 14:15:32:489
-0.4807,-10.2488,0.4008,0.1801,-9.7942,0.4592,-0.7529,-0.1235,-0.2707,13.05,33.03,-26.61,242.33,86.18,-32.84,0.0,63.784,35.17804,126.90893,,154.8402269413939,,70.741936,,0 / 20,503,2014-12-14 14:15:32:539
-0.4807,-9.31,0.1326,0.0305,-9.7962,0.4522,-1.1698,0.4341,-0.0976,13.05,30.46,-29.3,242.33,86.18,-32.84,0.0,63.784,35.17804,126.90893,,154.8402269413939,,70.741936,,0 / 20,553,2014-12-14 14:15:32:589
-0.2317,-8.6203,0.1134,-0.0555,-9.7982,0.4044,-0.1756,1.1967,-0.3053,13.05,30.09,-30.86,206.86,87.35,-3.85,0.0,63.784,35.17804,126.90893,,154.8402269413939,,70.741936,,0 / 20,603,2014-12-14 14:15:32:639
-0.0593,-8.218,0.8606,-0.0578,-9.7981,0.4042,0.0707,1.3998,0.0949,11.62,28.96,-31.05,193.86,87.61,7.81,0.0,63.784,35.17804,126.90893,,154.8402269413939,,70.741936,,0 / 20,653,2014-12-14 14:15:32:689
0.1132,-8.5054,2.6423,-0.0406,-9.7844,0.6591,0.0137,1.2118,1.1634,12.68,29.71,-30.49,196.67,87.37,7.47,0.0,63.784,35.17804,126.90893,,154.8402269413939,,70.741936,,0 / 20,703,2014-12-14 14:15:32:739
0.458,-8.3521,3.2937,-0.0261,-9.7739,0.8005,0.1987,0.8781,1.8527,13.8,29.71,-30.86,196.67,87.37,7.47,0.0,62.269,35.17804,126.90893,,154.8402269413939,,70.741936,,0 / 20,753,2014-12-14 14:15:32:789
1.5883,-8.946,2.7573,0.2656,-9.6982,1.4296,2.0821,-0.2845,3.314,14.18,28.21,-30.67,202.5,85.32,1.87,0.0,62.269,35.17804,126.90893,,154.8402269413939,,70.741936,,0 / 20,803,2014-12-14 14:15:32:839
0.209,-7.4134,1.876,0.4199,-9.6615,1.6276,0.6203,1.0567,0.7089,11.99,26.78,-30.92,221.36,80.13,-14.46,0.0,62.269,35.17804,126.90893,,154.8402269413939,,70.741936,,0 / 20,853,2014-12-14 14:15:32:889
0.3239,-8.0647,1.9526,0.3672,-9.6378,1.7744,-0.1037,1.0504,0.2883,12.3,28.59,-28.49,223.15,79.71,-12.76,0.0,62.269,35.17804,126.90893,,154.8402269413939,,70.741936,,0 / 20,903,2014-12-14 14:15:32:939
0.822,-9.7124,3.332,0.392,-9.6245,1.8401,0.2475,0.2372,0.3897,11.99,29.71,-26.74,223.15,79.71,-12.76,0.0,62.269,35.17804,126.90893,,154.8402269413939,,70.741936,,0 / 20,953,2014-12-14 14:15:32:989
-0.0018,-9.9806,2.604,0.3665,-9.5869,2.0317,-0.9922,-1.2461,0.4334,13.05,29.34,-25.74,225.04,78.94,-12.03,0.0,62.269,35.17804,126.90893,,154.8402269413939,,70.741936,,0 / 20,1003,2014-12-14 14:15:33:039
3.1976,-15.1533,8.3898,-0.0542,-9.5315,2.3063,-0.9928,-6.2631,5.6462,12.3,30.84,-24.05,227.98,77.85,-10.22,0.0,62.269,35.17804,126.90893,,154.8402269413939,,70.741936,,0 / 20,1053,2014-12-14 14:15:33:089
1.1477,-10.0189,2.7764,0.1692,-9.4672,2.5524,3.268,-4.4223,4.9339,12.68,29.71,-23.05,227.98,77.85,-10.22,0.0,66.748,35.17804,126.90893,,154.8402269413939,,70.741936,,0 / 20,1103,2014-12-14 14:15:33:139
0.4772,-9.7124,-3.3542,-0.6392,-9.6871,1.3864,-1.6203,1.4223,-3.1642,12.3,32.34,-22.49,224.08,74.88,-3.79,0.0,66.748,35.17804,126.90893,,154.8402269413939,,70.741936,,0 / 20,1153,2014-12-14 14:15:33:189
1.55,-10.5553,-3.0477,-0.5721,-9.7328,1.0558,0.9116,-0.5474,-4.4791,11.24,32.71,-19.42,187.05,81.04,24.75,0.0,66.748,35.17804,126.90893,,154.8402269413939,,70.741936,,0 / 20,1203,2014-12-14 14:15:33:239
-1.2088,-8.9652,-3.4117,-0.2289,-9.804,-0.0048,-0.4267,0.7062,-3.6369,12.3,34.15,-17.92,181.65,86.49,32.2,0.0,66.748,35.17804,126.90893,,154.8402269413939,,70.741936,,0 / 20,1253,2014-12-14 14:15:33:289
-0.5382,-10.0764,-1.0361,-0.2718,-9.8013,-0.1762,-0.5845,-0.1483,-2.3148,12.3,33.4,-17.61,181.65,86.49,32.2,0.0,66.748,35.17804,126.90893,,154.8402269413939,,70.741936,,0 / 20,1303,2014-12-14 14:15:33:339
0.8987,-9.5782,-1.9557,-0.4256,-9.7811,-0.5653,0.6189,-0.1166,-1.5474,13.05,35.65,-15.24,95.03,88.11,122.96,0.0,66.748,35.17804,126.90893,,154.8402269413939,,70.741936,,0 / 20,1353,2014-12-14 14:15:33:389
0.2281,-9.4825,-1.7832,-0.3356,-9.7783,-0.6652,1.2153,-0.1023,-1.3647,14.18,37.46,-14.49,74.53,85.86,143.02,0.0,67.354,35.17804,126.90893,,154.8402269413939,,70.741936,,0 / 20,1403,2014-12-14 14:15:33:439
-0.9214,-8.8694,-1.3809,-0.2299,-9.768,-0.8393,-0.4537,-0.0324,-0.3599,14.93,37.84,-12.3,59.67,85.15,163.43,0.0,67.354,35.17804,126.90893,,154.8402269413939,,70.741936,,0 / 20,1453,2014-12-14 14:15:33:489
-1.3429,-10.1147,-1.4384,-0.229,-9.7622,-0.904,0.4253,0.4438,-0.2689,14.18,36.03,-12.3,59.67,85.15,163.43,0.0,67.354,35.17804,126.90893,,154.8402269413939,,70.741936,,0 / 20,1503,2014-12-14 14:15:33:539
-3.9292,-8.9077,-1.9173,-0.5521,-9.7387,-1.0114,-3.0785,0.117,-0.9401,14.18,37.09,-12.8,52.98,84.54,165.79,0.0,67.354,35.17804,126.90893,,154.8402269413939,,70.741936,,0 / 20,1554,2014-12-14 14:15:33:590
0.1323,-10.2679,-1.5533,-0.7785,-9.7108,-1.1557,0.7443,-1.4181,-0.1891,14.93,36.71,-10.11,52.98,84.54,165.79,0.0,67.354,35.17804,126.90893,,154.8402269413939,,70.741936,,0 / 20,1603,2014-12-14 14:15:33:639
2.7953,-13.3716,-0.8636,-0.3931,-9.7272,-1.1822,2.0976,-2.2267,-0.4329,14.93,35.96,-11.05,68.4,82.29,151.45,0.0,67.354,35.17804,126.90893,,154.8402269413939,,70.741936,,0 / 20,1653,2014-12-14 14:15:33:689
4.3088,-14.387,-0.2506,-0.1548,-9.741,-1.1221,3.3269,-3.4931,0.4724,15.68,36.03,-10.99,68.4,82.29,151.45,0.0,67.354,35.17804,126.90893,,154.8402269413939,,70.741936,,0 / 20,1703,2014-12-14 14:15:33:739
0.0557,-11.724,1.3204,0.5776,-9.7879,-0.1821,-0.6063,-2.0773,3.6526,14.18,35.28,-11.86,38.88,84.01,-170.17,0.0,67.354,35.17804,126.90893,,154.8402269413939,,70.741936,,0 / 20,1753,2014-12-14 14:15:33:789
-2.1092,-12.816,-3.929,0.5169,-9.7895,-0.2625,-0.6988,-0.3533,-2.0861,11.99,35.65,-16.11,336.22,86.61,-116.92,0.0,67.086,35.17804,126.90893,,154.8402269413939,,70.741936,,0 / 20,1803,2014-12-14 14:15:33:839
-2.6839,-15.0767,-2.5304,-0.004,-9.7887,-0.5936,-5.0269,-2.9554,-2.4214,10.12,36.03,-17.86,336.22,86.61,-116.92,0.0,67.086,35.17804,126.90893,,154.8402269413939,,70.741936,,0 / 20,1853,2014-12-14 14:15:33:889
-1.5345,-14.3103,-4.2547,-0.1937,-9.7756,-0.7548,-0.919,-3.0633,-1.5055,8.3,35.28,-25.3,29.25,85.44,165.61,0.0,67.086,35.17804,126.90893,,154.8402269413939,,70.741936,,0 / 20,1903,2014-12-14 14:15:33:939
-1.4578,-8.8885,-4.2355,-0.389,-9.7184,-1.2536,-0.929,2.0716,-2.728,6.8,34.53,-28.36,29.25,85.44,165.61,0.0,67.086,35.17804,126.90893,,154.8402269413939,,70.741936,,0 / 20,1953,2014-12-14 14:15:33:989
-3.6419,-5.3826,-3.3159,-0.5924,-9.663,-1.5637,-1.9095,4.2504,-1.8483,7.18,33.78,-32.36,26.25,82.31,162.76,0.0,67.086,35.17804,126.90893,,154.8402269413939,,70.741936,,0 / 20,2004,2014-12-14 14:15:34:040
-4.8488,-3.1411,-4.1014,-1.4973,-9.4275,-2.2473,-3.3296,6.8487,-1.9542,7.93,31.59,-31.49,35.68,77.81,152.28,0.0,67.086,35.17804,126.90893,,154.8402269413939,,70.741936,,0 / 20,2053,2014-12-14 14:15:34:089
-3.5078,-2.2981,-2.6645,-1.7691,-9.328,-2.4554,-2.9137,6.6985,-1.6085,8.3,30.84,-33.11,35.68,77.81,152.28,0.0,69.943,35.17804,126.90893,,154.8402269413939,,70.741936,,0 / 20,2103,2014-12-14 14:15:34:139
5.9564,-16.6285,16.7237,-2.2032,-9.3608,-1.9217,1.3316,-3.5526,8.087,9.37,35.28,-25.99,39.82,72.02,144.23,0.0,69.943,35.17804,126.90893,,154.8402269413939,,70.741936,,0 / 20,2153,2014-12-14 14:15:34:189
13.0642,-20.7475,22.931,-1.3266,-9.7111,-0.3247,10.3825,-9.1604,19.9404,9.74,33.4,-25.74,54.08,72.66,131.1,0.0,69.943,35.17804,126.90893,,154.8402269413939,,70.741936,,0 / 20,2203,2014-12-14 14:15:34:239
-2.8181,-7.2409,-4.2738,-0.0941,-9.6334,1.8328,-0.427,1.8812,-1.0011,10.12,35.28,-26.86,202.82,79.21,2.94,0.0,69.943,35.17804,126.90893,,154.8402269413939,,70.741936,,0 / 20,2253,2014-12-14 14:15:34:289
-10.4431,-17.0691,4.0984,-0.8585,-9.6978,1.1773,-10.7116,2.1852,-9.7999,8.62,36.71,-25.61,202.82,79.21,2.94,0.0,69.943,35.17804,126.90893,,154.8402269413939,,70.741936,,0 / 20,2303,2014-12-14 14:15:34:339
-11.6117,-0.4972,-12.0521,-1.4908,-9.6909,-0.1843,-7.9029,8.4912,-11.9073,9.37,38.21,-20.74,151.43,81.03,42.8,0.0,69.943,35.17804,126.90893,,154.8402269413939,,70.741936,,0 / 20,2353,2014-12-14 14:15:34:389
2.9486,-12.0113,-2.1472,-1.8249,-9.6134,-0.6498,-4.0485,5.2984,-6.4647,10.12,38.59,-19.86,93.83,81.19,97.05,0.0,69.943,35.17804,126.90893,,154.8402269413939,,70.741936,,0 / 20,2403,2014-12-14 14:15:34:439
0.2473,-8.9652,-3.6991,-0.9394,-9.7035,-1.0627,0.7905,0.5441,-1.8222,11.62,41.15,-17.86,75.87,82.03,123.05,0.0,68.247,35.17804,126.90893,,154.8402269413939,,70.741936,,0 / 20,2453,2014-12-14 14:15:34:489
-2.6265,-8.9077,-1.2851,-0.9154,-9.7032,-1.0868,0.3745,0.3309,-0.3092,11.99,40.78,-15.24,75.87,82.03,123.05,0.0,68.247,35.17804,126.90893,,154.8402269413939,,70.741936,,0 / 20,2503,2014-12-14 14:15:34:539
-0.5191,-8.9077,-1.4575,-1.0496,-9.6771,-1.193,0.7936,0.8862,-1.1599,14.18,42.65,-12.17,64.37,81.67,139.89,0.0,68.247,35.17804,126.90893,,154.8402269413939,,70.741936,,0 / 20,2553,2014-12-14 14:15:34:589
1.0519,-9.31,-3.2393,-0.933,-9.671,-1.3308,1.6706,0.5043,-1.8684,13.43,43.4,-11.3,68.69,80.68,138.66,0.0,68.247,35.17804,126.90893,,154.8402269413939,,70.741936,,0 / 20,2603,2014-12-14 14:15:34:639
-2.4349,-9.5016,-0.8445,-0.6906,-9.6813,-1.4019,3.2892,-0.4912,0.0355,15.3,43.4,-9.61,68.69,80.68,138.66,0.0,68.247,35.17804,126.90893,,154.8402269413939,,70.741936,,0 / 20,2653,2014-12-14 14:15:34:689
-2.569,-9.1759,-0.2314,-0.6055,-9.7025,-1.2905,-2.0388,0.3685,0.6045,14.93,43.78,-8.99,64.9,81.64,154.86,0.0,68.247,35.17804,126.90893,,154.8402269413939,,70.741936,,0 / 20,2703,2014-12-14 14:15:34:739
-0.155,-9.8848,-0.8445,-0.7276,-9.7097,-1.1674,-0.0116,-0.5739,0.265,17.49,44.15,-6.55,73.27,81.64,154.86,0.0,68.247,35.17804,126.90893,,154.8402269413939,,70.741936,,0 / 20,2753,2014-12-14 14:15:34:789
0.5155,-11.2642,-1.2276,-0.4951,-9.7305,-1.1151,1.3477,-1.5266,0.1685,18.62,44.53,-8.99,73.27,81.64,154.86,0.0,68.247,35.17804,126.90893,,154.8402269413939,,70.741936,,0 / 20,2803,2014-12-14 14:15:34:839
3.8873,-14.2337,1.2438,-0.3073,-9.7467,-1.0383,1.5378,-2.7974,0.6455,20.43,46.34,-8.74,75.11,82.85,156.06,0.0,68.688,35.17804,126.90893,,154.8402269413939,,70.741936,,0 / 20,2853,2014-12-14 14:15:34:889
2.393,-12.2604,1.3204,0.6856,-9.7783,-0.2915,5.438,-3.7252,5.5291,18.99,47.84,-13.49,350.18,85.64,-113.04,0.0,68.688,35.17804,126.90893,,154.8402269413939,,70.741936,,0 / 20,2903,2014-12-14 14:15:34:939
-4.9446,-15.1916,-2.9902,0.6842,-9.7743,-0.4059,1.4923,-0.8723,0.5395,17.12,48.15,-18.74,350.18,85.64,-113.04,0.0,68.688,35.17804,126.90893,,154.8402269413939,,70.741936,,0 / 20,2953,2014-12-14 14:15:34:989
-2.5115,-16.6668,-1.4192,0.3606,-9.7857,-0.5293,-5.1689,-3.7759,-2.2153,14.55,48.15,-20.49,340.47,85.35,-120.67,0.0,68.688,35.17804,126.90893,,154.8402269413939,,70.741936,,0 / 20,3003,2014-12-14 14:15:35:039
-2.7414,-13.3333,-3.6224,-0.1573,-9.774,-0.7838,-2.692,-1.6421,-2.369,8.3,44.46,-28.36,14.98,86.16,179.5,0.0,68.688,35.17804,126.90893,,154.8402269413939,,70.741936,,0 / 20,3053,2014-12-14 14:15:35:089
-2.0517,-8.6586,-4.1589,-0.3892,-9.7374,-1.0961,-1.8049,1.9983,-2.6712,7.55,40.78,-31.36,14.98,86.16,179.5,0.0,68.688,35.17804,126.90893,,154.8402269413939,,70.741936,,0 / 20,3103,2014-12-14 14:15:35:139
-4.2741,-4.9994,-3.5458,-1.0311,-9.5944,-1.748,-3.1653,6.6838,-1.8472,7.18,36.03,-34.86,28.0,83.19,160.45,0.0,69.52,35.17804,126.90893,,154.8402269413939,,70.741936,,0 / 20,3153,2014-12-14 14:15:35:189
-4.4848,-2.6813,-4.4845,-1.2763,-9.5234,-1.961,-3.0546,7.1638,-2.1138,7.93,35.65,-34.74,36.81,78.06,149.46,0.0,69.52,35.17804,126.90893,,154.8402269413939,,70.741936,,0 / 20,3203,2014-12-14 14:15:35:239
-4.504,-1.3019,-5.749,-1.8038,-9.3098,-2.4988,-2.7277,7.4451,-2.6952,8.3,35.65,-34.11,36.81,78.06,149.46,0.0,69.52,35.17804,126.90893,,154.8402269413939,,70.741936,,0 / 20,3253,2014-12-14 14:15:35:289
-5.1745,-4.6162,-0.7678,-2.2997,-9.0579,-2.9724,-1.9963,6.006,-0.3043,8.62,36.71,-34.42,39.67,71.68,144.17,0.0,69.52,35.17804,126.90893,,154.8402269413939,,70.741936,,0 / 20,3303,2014-12-14 14:15:35:339
1.2818,-15.4598,12.528,0.1257,-9.6439,1.7748,10.9361,-11.4586,22.0885,12.68,40.03,-31.05,54.55,72.09,131.61,0.0,69.52,35.17804,126.90893,,154.8402269413939,,70.741936,,0 / 20,3353,2014-12-14 14:15:35:389
-16.4779,-15.1916,-2.6837,0.1027,-9.5625,2.1722,0.4841,3.5218,0.5379,10.49,37.09,-32.17,54.55,72.09,131.61,0.0,69.52,35.17804,126.90893,,154.8402269413939,,70.741936,,0 / 20,3403,2014-12-14 14:15:35:439
10.9951,-18.7934,-6.6303,-1.0962,-9.7007,0.9299,-14.0733,-0.5806,-10.024,10.12,38.21,-34.86,204.79,77.19,-2.71,0.0,69.52,35.17804,126.90893,,154.8402269413939,,70.741936,,0 / 20,3453,2014-12-14 14:15:35:489
-7.6268,-3.2368,-7.1667,-1.1336,-9.7403,0.109,-4.9284,8.7699,-13.1646,11.62,39.34,-31.36,158.24,83.0,39.73,0.0,69.52,35.17804,126.90893,,154.8402269413939,,70.741936,,0 / 20,3503,2014-12-14 14:15:35:539
3.5042,-14.1571,-0.4038,-1.5421,-9.6414,-0.9146,5.2548,-3.833,-0.2568,12.3,40.78,-27.49,158.24,83.0,39.73,0.0,65.424,35.17804,126.90893,,154.8402269413939,,70.741936,,0 / 20,3553,2014-12-14 14:15:35:589
-0.7106,-9.2525,-1.9173,-1.1517,-9.6682,-1.1704,1.8113,0.8246,-2.6628,12.68,41.15,-23.55,72.61,79.47,120.67,0.0,65.424,35.17804,126.90893,,154.8402269413939,,70.741936,,0 / 20,3603,2014-12-14 14:15:35:639
-2.1092,-8.6395,-1.6108,-1.1324,-9.6579,-1.2702,-0.0937,1.4999,-0.331,13.8,43.03,-25.74,72.61,79.47,120.67,0.0,65.424,35.17804,126.90893,,154.8402269413939,,70.741936,,0 / 20,3653,2014-12-14 14:15:35:689
1.0711,-9.6357,-2.4346,-1.1051,-9.6543,-1.3201,1.204,0.3403,-0.5084,12.3,43.03,-22.24,56.25,80.01,138.28,0.0,65.424,35.17804,126.90893,,154.8402269413939,,70.741936,,0 / 20,3703,2014-12-14 14:15:35:739
2.393,-9.5591,-0.9977,-0.8718,-9.6561,-1.473,2.0963,0.1486,-0.8322,13.8,45.21,-21.86,57.79,79.89,140.07,0.0,65.424,35.17804,126.90893,,154.8402269413939,,70.741936,,0 / 20,3753,2014-12-14 14:15:35:789
-1.4195,-9.4058,-0.9211,-0.5624,-9.6992,-1.3343,-0.5078,0.1947,0.559,14.18,43.4,-18.55,57.79,79.89,140.07,0.0,65.424,35.17804,126.90893,,154.8402269413939,,70.741936,,0 / 20,3803,2014-12-14 14:15:35:839
-1.9559,-10.2105,-0.2314,-0.7172,-9.7041,-1.2195,-1.0768,-0.7712,0.7776,15.68,44.46,-17.42,52.13,81.51,157.15,0.0,65.424,35.17804,126.90893,,154.8402269413939,,70.741936,,0 / 20,3854,2014-12-14 14:15:35:890
3.485,-11.7431,-0.7104,-0.6161,-9.7283,-1.0724,2.9925,-0.9208,0.205,16.37,41.9,-17.86,60.59,82.75,150.12,0.0,69.871,35.17804,126.90893,,154.8402269413939,,70.741936,,0 / 20,3904,2014-12-14 14:15:35:940
1.6075,-14.2337,0.8606,-0.2169,-9.7538,-0.9931,1.8366,-1.189,0.2797,15.68,42.65,-18.74,60.59,82.75,150.12,0.0,69.871,35.17804,126.90893,,154.8402269413939,,70.741936,,0 / 20,3953,2014-12-14 14:15:35:989
6.5887,-15.5748,3.8685,0.413,-9.7854,-0.4957,5.849,-4.6156,3.8021,13.05,40.09,-19.86,40.76,84.05,167.68,0.0,69.871,35.17804,126.90893,,154.8402269413939,,70.741936,,0 / 20,4003,2014-12-14 14:15:36:039
2.5654,-12.3179,0.9181,0.7681,-9.7756,0.1313,1.7519,-2.0599,4.1351,11.62,37.46,-20.05,351.98,86.23,-140.2,0.0,69.871,35.17804,126.90893,,154.8402269413939,,70.741936,,0 / 20,4053,2014-12-14 14:15:36:089
-4.7914,-15.6514,-3.8523,0.5274,-9.7837,-0.4152,-4.2768,-2.6992,-3.877,8.99,32.65,-23.99,308.25,85.21,-102.93,0.0,69.871,35.17804,126.90893,,154.8402269413939,,70.741936,,0 / 20,4104,2014-12-14 14:15:36:140
-2.2433,-15.479,-1.7641,0.0252,-9.7886,-0.5942,-3.3959,-4.4504,-1.4804,7.18,30.09,-24.3,326.98,86.08,-128.21,0.0,69.871,35.17804,126.90893,,154.8402269413939,,70.741936,,0 / 20,4153,2014-12-14 14:15:36:189
-2.1667,-10.5745,-4.2738,-0.3701,-9.7557,-0.9271,-1.8475,1.1348,-2.8327,5.3,28.28,-25.74,326.98,86.08,-128.21,0.0,68.288,35.17804,126.90893,,154.8402269413939,,70.741936,,0 / 20,4204,2014-12-14 14:15:36:240
-2.6456,-6.2639,-4.0631,-0.5609,-9.7087,-1.2634,-1.4224,4.2324,-2.5455,5.3,27.15,-27.05,30.62,81.9,156.06,0.0,68.288,35.17804,126.90893,,154.8402269413939,,70.741936,,0 / 20,4253,2014-12-14 14:15:36:289
-4.1783,-3.256,-4.293,-1.0832,-9.5754,-1.8189,-2.8443,6.6027,-2.0945,5.3,24.53,-25.74,30.62,81.9,156.06,0.0,68.288,35.17804,126.90893,,154.8402269413939,,70.741936,,0 / 20,4303,2014-12-14 14:15:36:339
-4.1017,-2.3364,-5.2126,-1.5628,-9.4038,-2.3015,-2.6604,6.9714,-2.4237,5.3,25.28,-23.8,35.74,77.53,149.23,0.0,68.288,35.17804,126.90893,,154.8402269413939,,70.741936,,0 / 20,4353,2014-12-14 14:15:36:389
-3.3353,-11.4557,4.175,-2.1984,-9.0357,-3.1135,-1.5238,5.9754,-1.4906,5.68,26.03,-20.86,35.74,77.53,149.23,0.0,68.288,35.17804,126.90893,,154.8402269413939,,70.741936,,0 / 20,4403,2014-12-14 14:15:36:439
1.5692,-14.5594,11.2827,-2.3897,-9.0849,-2.815,4.2118,-7.9501,13.1827,6.05,26.03,-20.49,36.8,67.13,144.77,0.0,68.288,35.17804,126.90893,,154.8402269413939,,70.741936,,0 / 20,4453,2014-12-14 14:15:36:489
-2.0134,-11.3408,7.8726,0.1892,-9.6258,1.8652,8.1485,-8.0308,17.1158,6.8,26.78,-19.17,42.28,67.88,139.67,0.0,68.288,35.17804,126.90893,,154.8402269413939,,70.741936,,0 / 20,4503,2014-12-14 14:15:36:539
-9.2552,-3.256,-18.6042,0.1077,-9.5697,2.1402,0.7693,4.0705,-0.958,5.68,26.78,-18.3,42.28,67.88,139.67,0.0,68.288,35.17804,126.90893,,154.8402269413939,,70.741936,,0 / 20,4553,2014-12-14 14:15:36:589
-14.4088,0.8247,-15.9795,-0.4654,-9.7645,0.7794,8.9863,-4.4085,-4.9484,6.05,27.9,-14.36,185.26,82.99,11.19,0.0,68.288,35.17804,126.90893,,154.8402269413939,,70.741936,,0 / 20,4603,2014-12-14 14:15:36:639
-1.841,-9.061,-2.8178,-1.7914,-9.6129,-0.7436,-10.8788,9.7257,-10.9678,6.43,29.34,-12.61,70.07,78.59,112.54,0.0,66.399,35.17804,126.90893,,154.8402269413939,,70.741936,,0 / 20,4653,2014-12-14 14:15:36:689
0.9944,-9.674,-3.6416,-1.884,-9.5786,-0.9331,-1.0891,1.8043,-2.6275,6.05,29.34,-13.05,70.07,78.59,112.54,0.0,66.399,35.17804,126.90893,,154.8402269413939,,70.741936,,0 / 20,4704,2014-12-14 14:15:36:740
0.9944,-9.674,-3.6416,-1.0921,-9.6737,-1.1819,2.4865,0.7918,-3.371,6.8,31.59,-8.55,63.73,77.62,116.35,0.0,66.399,35.17804,126.90893,,154.8402269413939,,70.741936,,0 / 20,4753,2014-12-14 14:15:36:789
-0.2892,-9.3292,-2.2622,-1.1426,-9.6366,-1.4146,-0.4866,0.8858,-0.4443,7.18,31.21,-6.55,56.31,80.38,142.97,0.0,66.399,35.17804,126.90893,,154.8402269413939,,70.741936,,0 / 20,4803,2014-12-14 14:15:36:839
-0.2892,-9.3292,-2.2622,-1.1426,-9.6366,-1.4146,-0.4866,0.8858,-0.4443,7.18,31.21,-6.55,56.31,80.38,142.97,0.0,66.399,35.17804,126.90893,,154.8402269413939,,70.741936,,0 / 20,4853,2014-12-14 14:15:36:889
0.822,-10.0955,0.7265,-0.5845,-9.6791,-1.4645,2.271,-0.0943,1.1709,8.62,30.84,-1.3,62.05,79.21,142.94,0.0,66.399,35.17804,126.90893,,154.8402269413939,,70.741936,,0 / 20,4904,2014-12-14 14:15:36:940
-1.3046,-10.2871,0.2859,-0.4593,-9.7218,-1.2022,0.277,-0.7502,1.861,8.99,31.59,-3.55,60.72,80.75,158.24,0.0,66.399,35.17804,126.90893,,154.8402269413939,,70.741936,,0 / 20,4953,2014-12-14 14:15:36:989
1.7991,-10.4787,-0.9019,-0.5979,-9.7272,-1.0933,-0.2458,0.3502,-0.4046,11.62,31.96,-0.86,60.72,80.75,158.24,0.0,66.399,35.17804,126.90893,,154.8402269413939,,70.741936,,0 / 20,5024,2014-12-14 14:15:37:060
1.7991,-10.4787,-0.9019,-0.5979,-9.7272,-1.0933,-0.2458,0.3502,-0.4046,11.62,31.96,-0.86,60.72,80.75,158.24,0.0,66.399,35.17804,126.90893,,154.8402269413939,,70.741936,,0 / 20,5053,2014-12-14 14:15:37:089
7.3933,-15.9005,1.3013,0.2223,-9.7632,-0.8947,5.0622,-4.4844,1.2032,10.49,31.96,-1.11,82.65,83.19,167.24,0.0,68.193,35.17804,126.90893,,154.8402269413939,,70.741936,,0 / 20,5103,2014-12-14 14:15:37:139
0.3239,-14.3295,5.6885,0.7242,-9.7755,-0.2909,2.1268,-3.5366,6.2292,8.99,33.78,-1.74,48.54,84.61,-166.04,0.0,68.193,35.17804,126.90893,,154.8402269413939,,70.741936,,0 / 20,5154,2014-12-14 14:15:37:190
-2.5115,-11.3025,-4.4654,0.7242,-9.7755,-0.2909,2.1268,-3.5366,6.2292,6.05,34.15,-6.11,48.54,84.61,-166.04,0.0,68.193,35.17804,126.90893,,154.8402269413939,,70.741936,,0 / 20,5203,2014-12-14 14:15:37:239
-2.3008,-14.0038,-2.7603,-0.1897,-9.7851,-0.6211,-2.5952,0.2034,-3.8727,5.3,34.53,-6.99,335.17,85.44,-111.89,0.0,68.193,35.17804,126.90893,,154.8402269413939,,70.741936,,0 / 20,5253,2014-12-14 14:15:37:289
-2.3008,-14.0038,-2.7603,-0.1897,-9.7851,-0.6211,-1.9686,-1.7144,-1.7811,-0.95,32.65,-14.05,335.17,85.44,-111.89,0.0,68.193,35.17804,126.90893,,154.8402269413939,,70.741936,,0 / 20,5303,2014-12-14 14:15:37:339
-2.2242,-12.5095,-3.4883,-0.4042,-9.7618,-0.8446,-1.8492,-0.3463,-2.3021,-1.7,32.34,-13.86,7.72,86.2,163.02,0.0,68.193,35.17804,126.90893,,154.8402269413939,,70.741936,,0 / 20,5354,2014-12-14 14:15:37:390
-3.1054,-6.0723,-3.3351,-0.6491,-9.6984,-1.2999,-1.1946,4.3687,-2.2211,-2.07,27.9,-16.11,15.91,84.52,154.42,0.0,68.193,35.17804,126.90893,,154.8402269413939,,70.741936,,0 / 20,5403,2014-12-14 14:15:37:439
-4.1208,-2.9112,-4.3121,-1.2183,-9.5675,-1.7744,-2.6696,6.376,-1.7801,-2.82,26.4,-19.61,15.91,84.52,154.42,0.0,68.193,35.17804,126.90893,,154.8402269413939,,70.741936,,0 / 20,5453,2014-12-14 14:15:37:489
-3.6993,-2.2789,-4.3313,-2.1757,-9.1172,-2.8833,-2.0057,6.8253,-3.0235,-2.45,25.28,-17.24,22.9,77.32,145.53,0.0,68.425,35.17804,126.90893,,154.8402269413939,,70.741936,,0 / 20,5504,2014-12-14 14:15:37:540
-4.2932,-7.9306,0.9373,-2.3829,-8.997,-3.0898,-1.5933,5.6376,-1.2631,-2.82,26.78,-14.8,16.27,68.39,142.96,0.0,68.425,35.17804,126.90893,,154.8402269413939,,70.741936,,0 / 20,5553,2014-12-14 14:15:37:589
-1.841,-8.218,3.8302,-0.0091,-9.7053,1.4062,22.3817,-18.0191,33.6948,-1.7,26.03,-14.67,16.27,68.39,142.96,0.0,68.425,35.17804,126.90893,,154.8402269413939,,70.741936,,0 / 20,5603,2014-12-14 14:15:37:639
-0.7106,-6.1681,1.0714,0.1696,-9.5777,2.0998,2.7496,-5.1264,11.7236,-1.7,24.53,-16.55,170.93,81.76,0.37,0.0,68.425,35.17804,126.90893,,154.8402269413939,,70.741936,,0 / 20,5653,2014-12-14 14:15:37:689
5.1518,-6.0914,-9.3699,-1.1502,-9.6388,1.3934,-4.1294,-9.5992,-1.9544,-0.2,25.28,-18.3,170.93,81.76,0.37,0.0,68.425,35.17804,126.90893,,154.8402269413939,,70.741936,,0 / 20,5704,2014-12-14 14:15:37:740
-9.715,0.5565,-14.7917,-0.6692,-9.7531,0.7737,7.8272,-1.6835,-10.0831,1.24,24.96,-14.24,129.16,79.38,39.54,0.0,68.425,35.17804,126.90893,,154.8402269413939,,70.741936,,0 / 20,5753,2014-12-14 14:15:37:789
4.3855,-12.4137,-0.4038,-1.194,-9.6967,-0.8484,2.4526,-2.9192,-0.3722,2.37,27.9,-11.74,129.16,79.38,39.54,0.0,68.425,35.17804,126.90893,,154.8402269413939,,70.741936,,0 / 20,5803,2014-12-14 14:15:37:839
0.8412,-8.8119,-4.2738,-0.8453,-9.732,-0.8631,5.1891,-1.2735,-0.2868,3.12,28.28,-10.36,52.86,81.41,125.4,0.0,68.425,35.17804,126.90893,,154.8402269413939,,70.741936,,0 / 20,5853,2014-12-14 14:15:37:889
-1.9559,-9.3483,-0.1739,-0.7244,-9.7152,-1.1231,-0.5057,1.0853,0.7824,4.24,28.59,-9.18,52.86,81.41,125.4,0.0,68.425,35.17804,126.90893,,154.8402269413939,,70.741936,,0 / 20,5903,2014-12-14 14:15:37:939
2.2972,-10.2105,-1.4001,-0.667,-9.7207,-1.1104,1.9347,0.1544,-0.4886,6.43,27.15,-7.68,54.73,82.06,144.55,0.0,67.538,35.17804,126.90893,,154.8402269413939,,70.741936,,0 / 20,5953,2014-12-14 14:15:37:989
2.2972,-10.2105,-1.4001,-0.667,-9.7207,-1.1104,1.9347,0.1544,-0.4886,6.8,28.28,-5.05,54.73,82.06,144.55,0.0,67.538,35.17804,126.90893,,154.8402269413939,,70.741936,,0 / 20,6003,2014-12-14 14:15:38:039
-1.3812,-9.4825,-0.9019,-0.4145,-9.7505,-0.962,-1.2909,0.8936,0.6195,7.18,27.53,-1.55,55.14,82.41,149.01,0.0,67.538,35.17804,126.90893,,154.8402269413939,,70.741936,,0 / 20,6053,2014-12-14 14:15:38:089
-0.6532,-9.674,-0.8636,-0.4814,-9.7477,-0.9598,-0.9336,0.4762,0.0753,7.55,27.9,-0.42,91.22,83.87,156.69,0.0,67.538,35.17804,126.90893,,154.8402269413939,,70.741936,,0 / 20,6104,2014-12-14 14:15:38:140
0.6879,-9.1376,-2.0131,-0.3909,-9.7507,-0.9708,1.0649,0.6935,-0.2743,8.62,27.53,0.95,99.1,83.87,158.06,0.0,67.538,35.17804,126.90893,,154.8402269413939,,70.741936,,0 / 20,6153,2014-12-14 14:15:38:189
2.2206,-12.6627,-2.8944,-0.3373,-9.732,-1.1598,-0.0271,-0.5017,-0.8573,8.62,27.53,0.95,99.1,83.87,158.06,0.0,67.538,35.17804,126.90893,,154.8402269413939,,70.741936,,0 / 20,6203,2014-12-14 14:15:38:239
-1.2662,-14.387,-0.059,0.3921,-9.7549,-0.9264,2.2899,-2.7766,2.4151,11.62,27.15,0.45,93.2,82.93,163.79,0.0,67.538,35.17804,126.90893,,154.8402269413939,,70.741936,,0 / 20,6253,2014-12-14 14:15:38:289
-4.4082,-11.8772,-1.994,0.0933,-9.7703,-0.8381,-3.1493,-2.385,-0.0825,10.12,29.03,-1.92,44.15,84.11,-157.06,0.0,68.858,35.17804,126.90893,,154.8402269413939,,70.741936,,0 / 20,6303,2014-12-14 14:15:38:339
-4.6572,-12.1838,-4.1397,-0.1815,-9.7606,-0.9314,-4.3038,-0.6183,-1.5309,10.49,30.09,-1.74,44.15,84.11,-157.06,0.0,68.858,35.17804,126.90893,,154.8402269413939,,70.741936,,0 / 20,6353,2014-12-14 14:15:38:389
-2.2625,-11.5324,-4.7719,-0.8643,-9.6658,-1.4127,-4.0395,-1.6613,-2.1923,9.74,30.84,-3.49,68.81,84.45,168.98,0.0,68.858,35.17804,126.90893,,154.8402269413939,,70.741936,,0 / 20,6404,2014-12-14 14:15:38:440
-1.4578,-11.4174,-5.0018,-1.0976,-9.5993,-1.6791,-1.3258,-0.454,-2.532,8.62,33.03,-5.11,63.42,80.28,148.54,0.0,68.858,35.17804,126.90893,,154.8402269413939,,70.741936,,0 / 20,6453,2014-12-14 14:15:38:489
-4.025,-6.3596,-5.749,-1.542,-9.3852,-2.3897,-3.0775,3.5652,-2.3682,7.18,32.65,-9.99,45.35,78.2,146.83,0.0,68.858,35.17804,126.90893,,154.8402269413939,,70.741936,,0 / 20,6507,2014-12-14 14:15:38:543
-2.8947,-6.0914,-3.3542,-1.6936,-9.2095,-2.9131,0.2334,3.8368,-3.4881,7.18,34.53,-9.18,45.35,78.2,146.83,0.0,68.858,35.17804,126.90893,,154.8402269413939,,70.741936,,0 / 20,6553,2014-12-14 14:15:38:589
-4.0442,-5.5167,-0.0398,-1.921,-9.1511,-2.9558,-1.9876,3.8388,2.8062,5.68,35.28,-8.74,30.94,68.93,146.98,0.0,68.858,35.17804,126.90893,,154.8402269413939,,70.741936,,0 / 20,6603,2014-12-14 14:15:38:639
-4.6189,-7.2601,1.148,-2.33,-9.1309,-2.7146,-2.2915,3.1455,2.7118,7.55,33.78,-7.42,37.67,68.93,146.98,0.0,68.858,35.17804,126.90893,,154.8402269413939,,70.741936,,0 / 20,6654,2014-12-14 14:15:38:690
-3.4694,-11.8006,-1.994,-2.001,-9.4194,-1.8548,1.3373,-2.5774,-0.7244,8.99,34.15,-6.17,37.67,68.93,146.98,0.0,68.858,35.17804,126.90893,,154.8402269413939,,70.741936,,0 / 20,6704,2014-12-14 14:15:38:740
-1.2279,-8.6203,-0.4805,-1.7909,-9.5507,-1.3217,1.3376,0.3286,1.3493,7.93,33.78,-5.11,53.67,74.12,130.86,0.0,68.858,35.17804,126.90893,,154.8402269413939,,70.741936,,0 / 20,6753,2014-12-14 14:15:38:789
-0.9789,-10.2679,0.8989,-1.7299,-9.581,-1.176,0.727,-0.0589,1.295,8.99,33.03,-5.49,74.71,77.68,124.21,0.0,68.858,35.17804,126.90893,,154.8402269413939,,70.741936,,0 / 20,6804,2014-12-14 14:15:38:840
0.937,-9.5016,1.0522,-1.6552,-9.612,-1.0203,1.0053,-0.7075,2.1644,8.99,33.03,-5.49,74.71,77.68,124.21,0.0,68.858,35.17804,126.90893,,154.8402269413939,,70.741936,,0 / 20,6854,2014-12-14 14:15:38:890
0.937,-9.5016,1.0522,-1.6552,-9.612,-1.0203,1.0053,-0.7075,2.1644,8.99,33.03,-5.49,74.71,77.68,124.21,0.0,68.858,35.17804,126.90893,,154.8402269413939,,70.741936,,0 / 20,6903,2014-12-14 14:15:38:939
-0.4424,-9.789,0.3817,-0.828,-9.7689,-0.2308,2.4492,-0.2042,2.0753,8.99,33.4,-6.55,88.25,81.29,117.57,0.0,68.858,35.17804,126.90893,,154.8402269413939,,70.741936,,0 / 20,6953,2014-12-14 14:15:38:989
0.1323,-9.5016,-0.2889,-0.7834,-9.7737,-0.1778,0.3285,-0.0312,0.5667,8.99,36.03,-6.99,115.75,85.3,102.79,0.0,68.1,35.17804,126.90893,,154.8402269413939,,70.741936,,0 / 20,7003,2014-12-14 14:15:39:039
0.094,-9.6549,0.4008,-0.6068,-9.7871,-0.1223,0.7806,-0.0042,0.5969,8.99,35.65,-7.86,115.75,85.3,102.79,0.0,68.1,35.17804,126.90893,,154.8402269413939,,70.741936,,0 / 20,7053,2014-12-14 14:15:39:089
0.2664,-9.4441,0.6116,-0.5466,-9.7914,-0.02,0.4183,0.0231,0.9456,8.3,36.34,-8.36,120.36,86.38,101.4,0.0,68.1,35.17804,126.90893,,154.8402269413939,,70.741936,,0 / 20,7103,2014-12-14 14:15:39:139
0.4197,-9.674,0.5349,-0.3919,-9.7983,0.0982,0.8175,0.081,0.4427,7.93,36.71,-8.17,131.59,87.03,86.09,0.0,68.1,35.17804,126.90893,,154.8402269413939,,70.741936,,0 / 20,7153,2014-12-14 14:15:39:189
0.4005,-9.674,0.8798,-0.31,-9.7997,0.1984,0.4846,0.0134,0.791,7.93,36.03,-7.86,165.95,87.85,57.38,0.0,68.1,35.17804,126.90893,,154.8402269413939,,70.741936,,0 / 20,7203,2014-12-14 14:15:39:239
0.209,-9.5782,0.5732,-0.2682,-9.7999,0.2478,0.5792,0.0075,0.6821,8.99,35.65,-5.74,165.95,87.85,57.38,0.0,68.1,35.17804,126.90893,,154.8402269413939,,70.741936,,0 / 20,7253,2014-12-14 14:15:39:289
0.4197,-9.789,0.6116,-0.1782,-9.7993,0.3353,0.1107,0.0214,0.1883,9.37,36.03,-7.92,181.25,87.87,47.26,0.0,62.869,35.17804,126.90893,,154.8402269413939,,70.741936,,0 / 20,7303,2014-12-14 14:15:39:339
0.7645,-9.7124,0.8989,-0.0513,-9.7981,0.407,0.6262,-0.1328,0.3699,7.93,34.9,-7.74,206.03,87.77,22.02,0.0,62.869,35.17804,126.90893,,154.8402269413939,,70.741936,,0 / 20,7353,2014-12-14 14:15:39:389
0.7071,-9.5399,0.5349,0.0555,-9.7956,0.463,0.7401,-0.0082,0.47,7.18,36.34,-8.3,206.03,87.77,22.02,0.0,62.869,35.17804,126.90893,,154.8402269413939,,70.741936,,0 / 20,7403,2014-12-14 14:15:39:439
0.2664,-9.7507,0.4583,0.1466,-9.7953,0.4473,0.2057,0.0424,-0.0563,8.3,34.9,-6.11,239.12,87.27,-6.83,0.0,62.869,35.17804,126.90893,,154.8402269413939,,70.741936,,0 / 20,7453,2014-12-14 14:15:39:489
0.1706,-9.425,-0.1356,0.1559,-9.7951,0.4493,0.0758,-0.068,0.0469,7.55,35.28,-6.61,255.8,87.25,-18.14,0.0,62.869,35.17804,126.90893,,154.8402269413939,,70.741936,,0 / 20,7503,2014-12-14 14:15:39:539
0.2856,-9.5399,-0.2697,0.1593,-9.796,0.4281,0.0432,0.1802,-0.3024,7.55,36.03,-5.99,255.8,87.25,-18.14,0.0,62.869,35.17804,126.90893,,154.8402269413939,,70.741936,,0 / 20,7553,2014-12-14 14:15:39:589
-0.0401,-9.1376,-0.8636,0.1758,-9.7991,0.3435,0.2073,0.0653,-0.6552,6.43,35.65,-7.92,253.37,87.33,-20.41,0.0,64.825,35.17804,126.90893,,154.8402269413939,,70.741936,,0 / 20,7604,2014-12-14 14:15:39:640
-0.6723,-8.8694,-0.8253,0.2347,-9.801,0.2356,-0.218,0.3428,-0.8057,6.43,35.65,-5.3,283.8,88.06,-44.88,0.0,64.825,35.17804,126.90893,,154.8402269413939,,70.741936,,0 / 20,7653,2014-12-14 14:15:39:689
0.1132,-10.2488,0.6882,0.1765,-9.8047,0.087,0.2089,-0.3857,-0.5707,6.43,36.03,-6.11,283.8,88.06,-44.88,0.0,64.825,35.17804,126.90893,,154.8402269413939,,70.741936,,0 / 20,7703,2014-12-14 14:15:39:739
1.2627,-9.6549,-0.2697,0.2235,-9.8024,0.1821,0.4874,0.0263,0.1847,7.18,40.03,-6.67,292.82,88.85,-63.75,0.0,64.825,35.17804,126.90893,,154.8402269413939,,70.741936,,0 / 20,7753,2014-12-14 14:15:39:789
1.5117,-9.7124,-0.2314,0.3746,-9.7985,0.1416,1.1587,-0.0391,-0.1951,7.93,36.71,-7.11,285.3,88.32,-50.82,0.0,64.825,35.17804,126.90893,,154.8402269413939,,70.741936,,0 / 20,7803,2014-12-14 14:15:39:839
0.4005,-9.6166,-1.3043,0.4497,-9.7945,0.1906,0.0254,0.0141,-0.0932,7.93,36.71,-7.11,285.3,88.32,-50.82,0.0,64.825,35.17804,126.90893,,154.8402269413939,,70.741936,,0 / 20,7853,2014-12-14 14:15:39:889