ACCELEROMETER X (m/s²),ACCELEROMETER Y (m/s²),ACCELEROMETER Z (m/s²),GRAVITY X (m/s²),GRAVITY Y (m/s²),GRAVITY Z (m/s²),LINEAR ACCELERATION X (m/s²),LINEAR ACCELERATION Y (m/s²),LINEAR ACCELERATION Z (m/s²),MAGNETIC FIELD X (μT),MAGNETIC FIELD Y (μT),MAGNETIC FIELD Z (μT),ORIENTATION X (°),ORIENTATION Y (°),ORIENTATION Z (°),PROXIMITY (i),SOUND LEVEL (dB),LOCATION Latitude : ,LOCATION Longitude : ,LOCATION Altitude ( m),LOCATION Altitude-google ( m),LOCATION Speed ( Kmh),LOCATION Accuracy ( m),LOCATION ORIENTATION (°),Satellites in range,Time since start in ms ,YYYY-MO-DD HH-MI-SS_SSS
0.1898,-9.5974,-0.308,0.3233,-9.7995,-0.1871,-0.1268,0.08,-0.0836,13.05,34.53,-25.74,329.12,87.68,-116.79,0.0,73.215,35.178032,126.908905,,155.2722712333892,,81.80322,,0 / 20,2,2014-12-14 14:16:11:343
-0.2125,-9.5974,-0.2314,0.2614,-9.8013,-0.1933,-0.4231,0.0315,-0.0406,13.8,33.4,-25.24,330.53,87.82,-120.06,0.0,73.215,35.178032,126.908905,,155.2722712333892,,81.80322,,0 / 20,52,2014-12-14 14:16:11:393
0.1132,-9.4825,-0.2697,0.2373,-9.8016,-0.2077,-0.2887,0.1312,-0.1548,14.18,35.21,-23.92,336.53,88.13,-125.35,0.0,73.215,35.178032,126.908905,,155.2722712333892,,81.80322,,0 / 20,102,2014-12-14 14:16:11:443
-0.3275,-9.6549,-0.1739,0.2021,-9.8024,-0.2081,-0.4867,0.0029,-0.0042,13.43,34.53,-24.36,336.53,88.13,-125.35,0.0,73.215,35.178032,126.908905,,155.2722712333892,,81.80322,,0 / 20,152,2014-12-14 14:16:11:493
0.2281,-9.6549,-0.2122,0.1582,-9.8035,-0.193,0.0774,-0.005,0.0244,15.68,34.53,-25.3,349.35,88.31,-135.84,0.0,47.169,35.178032,126.908905,,155.2722712333892,,81.80322,,0 / 20,202,2014-12-14 14:16:11:543
0.1515,-9.6932,0.2859,0.1612,-9.8038,-0.1725,0.0417,-0.0317,0.2831,15.3,33.4,-22.49,351.47,88.62,-136.94,0.0,47.169,35.178032,126.908905,,155.2722712333892,,81.80322,,0 / 20,252,2014-12-14 14:16:11:593
0.1515,-9.8656,0.2859,0.1499,-9.8051,-0.0874,0.0274,-0.202,0.4693,15.3,35.59,-25.24,343.39,88.79,-132.0,0.0,47.169,35.178032,126.908905,,155.2722712333892,,81.80322,,0 / 20,302,2014-12-14 14:16:11:643
0.5155,-10.0572,0.9181,0.1634,-9.8052,-0.0328,0.1915,-0.3275,0.7532,16.05,34.53,-22.49,343.39,88.79,-132.0,0.0,47.169,35.178032,126.908905,,155.2722712333892,,81.80322,,0 / 20,352,2014-12-14 14:16:11:693
1.2052,-10.0572,1.0522,0.2025,-9.8045,0.0395,0.5505,-0.418,1.0007,16.05,35.96,-21.3,297.73,88.79,-78.98,0.0,47.169,35.178032,126.908905,,155.2722712333892,,81.80322,,0 / 20,402,2014-12-14 14:16:11:743
1.9907,-10.6511,3.0447,0.5052,-9.7812,0.4925,1.2828,-0.7778,2.1707,16.05,34.9,-21.74,270.81,86.85,-50.73,0.0,47.169,35.178032,126.908905,,155.2722712333892,,81.80322,,0 / 20,452,2014-12-14 14:16:11:793
2.9486,-10.3446,1.033,0.8504,-9.7365,0.8051,1.8705,-0.1095,0.5708,16.05,34.53,-22.61,270.81,86.85,-50.73,0.0,54.897,35.178032,126.908905,,155.2722712333892,,81.80322,,0 / 20,502,2014-12-14 14:16:11:843
2.9486,-11.8006,0.0368,1.112,-9.7158,0.733,1.838,-1.6488,-0.6959,16.05,34.9,-23.49,270.03,83.14,-46.57,0.0,54.897,35.178032,126.908905,,155.2722712333892,,81.80322,,0 / 20,552,2014-12-14 14:16:11:893
-1.9559,-9.8273,0.3433,0.9744,-9.7409,0.5798,-1.7423,-0.4079,-0.8625,14.55,34.9,-27.42,274.53,82.19,-56.61,0.0,54.897,35.178032,126.908905,,155.2722712333892,,81.80322,,0 / 20,602,2014-12-14 14:16:11:943
0.4963,-10.2296,1.3396,0.5375,-9.7623,0.7604,-1.5739,0.2794,1.2673,14.93,31.53,-29.61,273.32,83.36,-59.25,0.0,54.897,35.178032,126.908905,,155.2722712333892,,81.80322,,0 / 20,652,2014-12-14 14:16:11:993
1.2627,-9.789,0.8223,0.4933,-9.7572,0.8504,0.1197,-0.0569,0.4534,14.18,31.9,-28.74,241.03,84.25,-30.12,0.0,54.897,35.178032,126.908905,,155.2722712333892,,81.80322,,0 / 20,702,2014-12-14 14:16:12:043
1.1477,-7.8732,0.4583,0.6697,-9.7473,0.8435,0.9788,1.267,-0.2178,13.8,31.21,-30.3,241.03,84.25,-30.12,0.0,54.897,35.178032,126.908905,,155.2722712333892,,81.80322,,0 / 20,752,2014-12-14 14:16:12:093
-0.0401,-6.5896,1.4162,0.7161,-9.7446,0.8373,-0.1028,2.7285,-0.1013,13.8,28.96,-30.49,248.75,83.69,-38.45,0.0,54.897,35.178032,126.908905,,155.2722712333892,,81.80322,,0 / 20,802,2014-12-14 14:16:12:143
-0.3275,-6.5129,1.7802,0.6211,-9.7379,0.9783,-0.8776,2.6641,0.7107,13.43,28.96,-30.92,248.62,83.55,-40.54,0.0,65.635,35.178032,126.908905,,155.2722712333892,,81.80322,,0 / 20,852,2014-12-14 14:16:12:193
0.573,-8.1222,3.3129,0.6526,-9.6848,1.3963,0.0537,0.7759,1.8946,13.43,28.21,-30.49,236.48,82.45,-27.41,0.0,65.635,35.178032,126.908905,,155.2722712333892,,81.80322,,0 / 20,902,2014-12-14 14:16:12:243
1.3393,-9.6932,4.5007,0.6586,-9.6293,1.736,0.1644,0.5735,2.0558,14.55,28.21,-29.61,236.48,82.45,-27.41,0.0,65.635,35.178032,126.908905,,155.2722712333892,,81.80322,,0 / 20,952,2014-12-14 14:16:12:293
1.7799,-11.2259,5.3245,0.7518,-9.5482,2.1063,0.8374,-1.8232,2.9592,15.3,28.59,-27.24,235.4,79.09,-20.78,0.0,65.635,35.178032,126.908905,,155.2722712333892,,81.80322,,0 / 20,1002,2014-12-14 14:16:12:343
-0.7873,-9.6357,0.0751,0.8877,-9.4442,2.4878,0.1718,-0.5976,0.8296,15.68,29.34,-26.55,244.43,74.66,-19.83,0.0,65.635,35.178032,126.908905,,155.2722712333892,,81.80322,,0 / 20,1052,2014-12-14 14:16:12:393
-4.025,-16.3028,6.8572,0.1761,-9.54,2.2645,-5.068,-5.998,2.3211,14.18,33.03,-26.86,222.55,76.61,-4.45,0.0,65.635,35.178032,126.908905,,155.2722712333892,,81.80322,,0 / 20,1102,2014-12-14 14:16:12:443
-4.4848,-5.1144,-12.7992,-0.274,-9.6954,1.4473,-5.4796,4.8286,-13.8178,13.43,31.9,-25.24,222.55,76.61,-4.45,0.0,65.635,35.178032,126.908905,,155.2722712333892,,81.80322,,0 / 20,1152,2014-12-14 14:16:12:493
5.3434,-11.4174,-1.879,-0.0892,-9.7922,0.5245,4.1971,-1.1444,-2.9256,12.68,34.15,-22.17,200.83,81.36,10.72,0.0,64.572,35.178032,126.908905,,155.2722712333892,,81.80322,,0 / 20,1202,2014-12-14 14:16:12:543
-0.8064,-9.0035,-1.6683,-0.2891,-9.8019,-0.0945,-0.9091,0.5074,-1.9235,12.68,33.78,-20.86,133.05,88.68,77.37,0.0,64.572,35.178032,126.908905,,155.2722712333892,,81.80322,,0 / 20,1252,2014-12-14 14:16:12:593
-1.9176,-8.9652,-2.7603,-0.4296,-9.7894,-0.3907,-1.2847,0.3708,-2.3057,14.18,35.59,-17.49,81.7,86.61,132.28,0.0,64.572,35.178032,126.908905,,155.2722712333892,,81.80322,,0 / 20,1302,2014-12-14 14:16:12:643
0.458,-9.4058,-1.5725,-0.2704,-9.7849,-0.5942,1.1421,-0.1834,-0.8038,13.8,35.96,-17.49,81.7,86.61,132.28,0.0,64.572,35.178032,126.908905,,155.2722712333892,,81.80322,,0 / 20,1352,2014-12-14 14:16:12:693
-0.3275,-9.2525,-1.7641,-0.2359,-9.7766,-0.7294,-0.0377,0.1091,-0.9203,13.43,38.21,-13.93,61.48,86.18,155.53,0.0,64.572,35.178032,126.908905,,155.2722712333892,,81.80322,,0 / 20,1402,2014-12-14 14:16:12:743
-0.0401,-9.5208,-0.4996,-0.1632,-9.7689,-0.8435,0.2282,-0.2015,0.0132,14.93,37.46,-14.8,50.34,84.94,167.95,0.0,64.572,35.178032,126.908905,,155.2722712333892,,81.80322,,0 / 20,1452,2014-12-14 14:16:12:793
-0.5574,-10.0189,-0.2889,-0.1887,-9.7749,-0.7661,-0.3122,-0.4631,0.4949,15.3,37.09,-12.17,50.34,84.94,167.95,0.0,69.289,35.178032,126.908905,,155.2722712333892,,81.80322,,0 / 20,1503,2014-12-14 14:16:12:844
-1.3237,-10.2679,-1.1893,-0.4972,-9.7578,-0.8422,-1.6926,-0.1629,-0.5801,16.05,35.96,-10.86,55.69,85.39,166.16,0.0,69.289,35.178032,126.908905,,155.2722712333892,,81.80322,,0 / 20,1552,2014-12-14 14:16:12:893
0.9944,-11.8581,-0.4038,-0.4697,-9.7585,-0.8496,0.3068,-1.3638,-0.218,16.37,36.71,-11.3,74.01,84.32,151.06,0.0,69.289,35.178032,126.908905,,155.2722712333892,,81.80322,,0 / 20,1602,2014-12-14 14:16:12:943
5.1901,-14.3678,0.9947,0.1813,-9.7859,-0.6106,1.8046,-3.1262,0.6691,16.74,38.21,-11.3,74.01,84.32,151.06,0.0,69.289,35.178032,126.908905,,155.2722712333892,,81.80322,,0 / 20,1652,2014-12-14 14:16:12:993
2.2206,-13.9846,6.5315,1.0272,-9.7507,-0.1997,7.316,-5.0871,2.1612,15.68,37.46,-10.86,34.94,86.28,-163.46,0.0,69.289,35.178032,126.908905,,155.2722712333892,,81.80322,,0 / 20,1703,2014-12-14 14:16:13:044
1.0328,-12.0497,-5.1168,1.0896,-9.7454,-0.1033,-0.197,-0.5008,-4.4765,13.43,38.21,-14.61,312.15,83.55,-82.21,0.0,69.289,35.178032,126.908905,,155.2722712333892,,81.80322,,0 / 20,1752,2014-12-14 14:16:13:093
-4.504,-16.1112,-2.5687,0.8645,-9.7622,-0.3513,-5.7133,-4.8096,-2.1518,10.87,38.21,-16.11,312.15,83.55,-82.21,0.0,69.289,35.178032,126.908905,,155.2722712333892,,81.80322,,0 / 20,1802,2014-12-14 14:16:13:143
-3.1821,-13.6206,-3.0668,-0.0361,-9.7766,-0.7661,-2.8789,-1.3025,-2.4007,7.93,35.28,-20.74,326.34,84.54,-112.11,0.0,69.767,35.178032,126.908905,,155.2722712333892,,81.80322,,0 / 20,1853,2014-12-14 14:16:13:194
-2.3199,-9.2909,-4.1014,-0.2941,-9.742,-1.0851,-1.8396,3.2678,-2.7743,7.55,35.21,-23.49,19.76,85.51,177.3,0.0,69.767,35.178032,126.908905,,155.2722712333892,,81.80322,,0 / 20,1902,2014-12-14 14:16:13:243
-4.1974,-4.6737,-3.7948,-0.5768,-9.685,-1.4278,-2.6754,5.8867,-2.1384,5.3,32.65,-26.55,19.76,85.51,177.3,0.0,69.767,35.178032,126.908905,,155.2722712333892,,81.80322,,0 / 20,1953,2014-12-14 14:16:13:294
-4.4657,-0.7079,-5.8448,-1.3476,-9.4845,-2.0975,-2.9678,8.2844,-3.1624,6.05,31.9,-28.74,29.52,80.97,158.0,0.0,69.767,35.178032,126.908905,,155.2722712333892,,81.80322,,0 / 20,2002,2014-12-14 14:16:13:343
-3.4694,-0.2482,-5.4616,-1.9083,-9.2077,-2.7833,-2.9678,8.2844,-3.1624,6.43,30.84,-27.49,35.45,69.87,145.56,0.0,69.767,35.178032,126.908905,,155.2722712333892,,81.80322,,0 / 20,2052,2014-12-14 14:16:13:393
29.023,-31.6486,38.6408,-1.1466,-9.7315,-0.3914,14.9704,-14.7185,27.1018,7.93,35.65,-23.36,35.45,69.87,145.56,0.0,69.767,35.178032,126.908905,,155.2722712333892,,81.80322,,0 / 20,2102,2014-12-14 14:16:13:443
-1.3812,-11.5324,9.0029,-1.1466,-9.7315,-0.3914,14.9704,-14.7185,27.1018,8.3,34.9,-22.61,80.25,82.9,108.85,0.0,69.767,35.178032,126.908905,,155.2722712333892,,81.80322,,0 / 20,2152,2014-12-14 14:16:13:493
-7.167,-8.8502,-7.7989,-0.1463,-9.6612,1.6762,-1.407,0.3212,4.6807,8.62,35.28,-24.24,80.25,82.9,108.85,0.0,66.359,35.178032,126.908905,,155.2722712333892,,81.80322,,0 / 20,2202,2014-12-14 14:16:13:543
-1.726,-3.1602,-13.7763,-1.2737,-9.6547,1.1557,-6.9194,-11.4247,2.678,9.74,36.34,-23.49,200.94,80.12,4.99,0.0,66.359,35.178032,126.908905,,155.2722712333892,,81.80322,,0 / 20,2252,2014-12-14 14:16:13:593
1.7416,-14.3678,-1.6683,-1.8871,-9.5024,-1.521,3.1766,-3.9827,-0.5443,8.99,39.28,-22.3,82.93,81.72,105.68,0.0,66.359,35.178032,126.908905,,155.2722712333892,,81.80322,,0 / 20,2302,2014-12-14 14:16:13:643
1.665,-10.5745,-2.2813,-1.3807,-9.5928,-1.4973,3.1766,-3.9827,-0.5443,9.74,39.65,-20.05,82.93,81.72,105.68,0.0,66.359,35.178032,126.908905,,155.2722712333892,,81.80322,,0 / 20,2352,2014-12-14 14:16:13:693
-0.7298,-8.6586,-1.1702,-1.2759,-9.5796,-1.6657,0.4186,1.0615,0.5866,11.62,41.53,-16.36,50.71,77.49,142.11,0.0,66.359,35.178032,126.908905,,155.2722712333892,,81.80322,,0 / 20,2402,2014-12-14 14:16:13:743
0.1898,-9.5974,-0.3272,-1.2759,-9.5796,-1.6657,0.4186,1.0615,0.5866,11.62,41.53,-12.99,55.59,77.65,142.55,0.0,66.359,35.178032,126.908905,,155.2722712333892,,81.80322,,0 / 20,2452,2014-12-14 14:16:13:793
1.4734,-9.4825,-0.9977,-0.9656,-9.6286,-1.5898,2.2307,0.1399,0.4669,12.68,43.4,-10.61,60.3,78.66,143.99,0.0,71.899,35.178032,126.908905,,155.2722712333892,,81.80322,,0 / 20,2502,2014-12-14 14:16:13:843
0.8603,-9.4058,-0.9403,-0.6802,-9.6614,-1.5377,2.2307,0.1399,0.4669,15.3,43.71,-11.74,60.3,78.66,143.99,0.0,71.899,35.178032,126.908905,,155.2722712333892,,81.80322,,0 / 20,2552,2014-12-14 14:16:13:893
-1.7452,-9.1568,-0.3655,-0.7007,-9.6673,-1.4909,-0.2657,0.1994,0.6969,14.55,43.34,-9.11,61.3,80.13,156.14,0.0,71.899,35.178032,126.908905,,155.2722712333892,,81.80322,,0 / 20,2602,2014-12-14 14:16:13:943
2.6804,-11.4941,-1.0361,-0.6133,-9.7275,-1.0817,2.9309,-1.4835,0.1398,17.87,43.34,-8.67,79.36,81.43,145.74,0.0,71.899,35.178032,126.908905,,155.2722712333892,,81.80322,,0 / 20,2652,2014-12-14 14:16:13:993
-0.0018,-12.4903,-1.2276,-0.2382,-9.7438,-1.083,1.1143,-2.0069,-0.1775,18.99,44.46,-9.55,77.11,82.72,150.45,0.0,71.899,35.178032,126.908905,,155.2722712333892,,81.80322,,0 / 20,2702,2014-12-14 14:16:14:043
6.8952,-15.6514,1.8377,-0.2382,-9.7438,-1.083,1.1143,-2.0069,-0.1775,18.24,45.21,-9.55,77.11,82.72,150.45,0.0,71.899,35.178032,126.908905,,155.2722712333892,,81.80322,,0 / 20,2752,2014-12-14 14:16:14:093
2.5846,-12.9118,2.8914,0.879,-9.7669,0.0704,1.5846,-1.9853,4.0812,18.24,46.34,-13.93,7.9,85.45,-137.02,0.0,71.899,35.178032,126.908905,,155.2722712333892,,81.80322,,0 / 20,2802,2014-12-14 14:16:14:143
-5.2512,-15.9388,-4.0247,0.5667,-9.7725,-0.5902,-4.8662,-3.0762,-3.8604,14.93,44.84,-18.99,335.16,84.46,-112.64,0.0,71.899,35.178032,126.908905,,155.2722712333892,,81.80322,,0 / 20,2853,2014-12-14 14:16:14:194
-1.0555,-17.2224,-1.5533,0.5667,-9.7725,-0.5902,-4.8662,-3.0762,-3.8604,14.93,44.84,-18.99,335.16,84.46,-112.64,0.0,66.021,35.178032,126.908905,,155.2722712333892,,81.80322,,0 / 20,2902,2014-12-14 14:16:14:243
-3.9484,-13.065,-3.5075,0.2112,-9.7788,-0.7075,-1.6595,-5.2256,-0.7553,8.3,41.9,-30.3,343.03,85.21,-136.16,0.0,66.021,35.178032,126.908905,,155.2722712333892,,81.80322,,0 / 20,2952,2014-12-14 14:16:14:293
-2.1667,-9.3675,-4.2163,-0.2922,-9.7404,-1.1,-2.4999,1.8515,-2.7544,6.05,39.34,-31.61,22.57,83.34,165.13,0.0,66.021,35.178032,126.908905,,155.2722712333892,,81.80322,,0 / 20,3002,2014-12-14 14:16:14:343
-4.6956,-2.8728,-4.3121,-0.6214,-9.6526,-1.6161,-2.2914,5.548,-2.0385,6.05,37.46,-36.55,22.57,83.34,165.13,0.0,66.021,35.178032,126.908905,,155.2722712333892,,81.80322,,0 / 20,3052,2014-12-14 14:16:14:393
-5.0404,-1.9724,-4.4845,-1.1089,-9.5356,-2.0034,-3.4905,7.5339,-2.029,7.18,34.53,-36.67,27.72,79.83,158.97,0.0,66.021,35.178032,126.908905,,155.2722712333892,,81.80322,,0 / 20,3102,2014-12-14 14:16:14:443
-5.6343,-3.3135,-0.7487,-2.0562,-9.1361,-2.911,-3.1672,8.2244,-3.042,8.3,35.59,-33.55,37.04,68.69,144.76,0.0,66.021,35.178032,126.908905,,155.2722712333892,,81.80322,,0 / 20,3152,2014-12-14 14:16:14:493
14.2328,-22.7208,24.7893,-0.7238,-9.7799,-0.006,21.5591,-17.1358,31.1466,10.87,37.84,-31.86,37.04,68.69,144.76,0.0,66.021,35.178032,126.908905,,155.2722712333892,,81.80322,,0 / 20,3202,2014-12-14 14:16:14:543
2.7379,-17.05,13.9649,0.2223,-9.6625,1.6604,13.1114,-13.6274,25.0908,12.37,39.65,-30.11,106.24,85.77,90.47,0.0,70.122,35.178032,126.908905,,155.2722712333892,,81.80322,,0 / 20,3252,2014-12-14 14:16:14:593
0.4389,-4.9611,-3.3734,0.0842,-9.5982,2.0096,-0.5413,3.4817,-0.9021,10.49,36.71,-32.11,106.24,85.77,90.47,0.0,70.122,35.178032,126.908905,,155.2722712333892,,81.80322,,0 / 20,3302,2014-12-14 14:16:14:643
-8.3548,-0.3439,-17.1865,-1.152,-9.676,1.104,-12.3753,-7.601,-0.6535,13.05,36.34,-30.99,205.29,78.16,-2.4,0.0,70.122,35.178032,126.908905,,155.2722712333892,,81.80322,,0 / 20,3352,2014-12-14 14:16:14:693
1.4351,-12.9884,-2.7795,-1.1886,-9.7031,-0.7792,1.8818,-1.2949,-2.4989,11.99,38.59,-28.3,100.85,85.07,96.08,0.0,70.122,35.178032,126.908905,,155.2722712333892,,81.80322,,0 / 20,3402,2014-12-14 14:16:14:743
2.5463,-12.5669,0.2476,-0.7388,-9.7463,-0.7967,3.0931,0.0528,-1.0937,12.68,40.03,-26.05,100.85,85.07,96.08,0.0,70.122,35.178032,126.908905,,155.2722712333892,,81.80322,,0 / 20,3452,2014-12-14 14:16:14:793
-2.7606,-8.5054,-0.5188,-0.7757,-9.7133,-1.1047,-1.6103,1.4656,0.5838,14.55,44.46,-23.92,62.22,83.64,137.16,0.0,70.122,35.178032,126.908905,,155.2722712333892,,81.80322,,0 / 20,3502,2014-12-14 14:16:14:843
-1.477,-9.061,-1.6491,-0.9432,-9.6984,-1.1054,-0.7187,1.1099,-0.1939,15.68,43.34,-21.17,61.2,82.09,144.92,0.0,70.122,35.178032,126.908905,,155.2722712333892,,81.80322,,0 / 20,3552,2014-12-14 14:16:14:893
2.029,-9.9039,-0.3847,-0.787,-9.7062,-1.1582,1.8241,-0.0703,-0.0588,14.55,41.53,-20.92,61.2,82.09,144.92,0.0,70.937,35.178032,126.908905,,155.2722712333892,,81.80322,,0 / 20,3602,2014-12-14 14:16:14:943
1.7991,-9.789,-0.5954,-0.3492,-9.7406,-1.0814,1.9832,0.132,0.3911,14.93,42.65,-18.8,59.96,81.79,145.8,0.0,70.937,35.178032,126.908905,,155.2722712333892,,81.80322,,0 / 20,3652,2014-12-14 14:16:14:993
-2.0134,-10.1721,-0.2314,-0.5514,-9.7444,-0.9555,-1.5042,-0.1518,0.8099,16.37,41.9,-17.67,51.05,83.5,161.89,0.0,70.937,35.178032,126.908905,,155.2722712333892,,81.80322,,0 / 20,3702,2014-12-14 14:16:15:043
-0.0401,-10.2871,0.056,-0.5449,-9.7557,-0.8362,0.9613,-0.3623,0.8292,16.37,41.9,-17.67,51.05,83.5,161.89,0.0,70.937,35.178032,126.908905,,155.2722712333892,,81.80322,,0 / 20,3752,2014-12-14 14:16:15:093
2.1823,-14.6552,1.3013,0.1345,-9.7849,-0.6385,1.911,-3.9485,1.4015,15.3,38.9,-19.24,64.74,84.16,146.91,0.0,70.937,35.178032,126.908905,,155.2722712333892,,81.80322,,0 / 20,3802,2014-12-14 14:16:15:143
6.7994,-16.1687,4.0601,0.7602,-9.7764,-0.123,5.8841,-5.0382,4.5774,13.8,40.03,-18.74,22.1,86.18,-168.1,0.0,70.937,35.178032,126.908905,,155.2722712333892,,81.80322,,0 / 20,3852,2014-12-14 14:16:15:193
1.8566,-11.6282,-3.45,0.952,-9.7539,0.3555,0.4547,-1.8265,2.2324,11.99,35.96,-22.74,291.32,84.37,-76.54,0.0,70.937,35.178032,126.908905,,155.2722712333892,,81.80322,,0 / 20,3902,2014-12-14 14:16:15:243
-4.3316,-15.5365,-4.7719,0.4745,-9.7849,-0.4477,-4.9145,-4.0024,-3.5623,9.37,33.4,-24.3,291.32,84.37,-76.54,0.0,65.905,35.178032,126.908905,,155.2722712333892,,81.80322,,0 / 20,3952,2014-12-14 14:16:15:293
-3.661,-19.0616,-2.5879,0.2006,-9.7898,-0.5393,-4.5442,-5.8266,-1.8761,8.99,31.9,-23.61,0.14,86.64,-159.6,0.0,65.905,35.178032,126.908905,,155.2722712333892,,81.80322,,0 / 20,4002,2014-12-14 14:16:15:343
-4.3124,-11.8964,-2.7028,-0.1736,-9.7802,-0.699,-3.7433,-1.1132,-1.8859,6.43,30.09,-24.74,0.14,86.64,-159.6,0.0,65.905,35.178032,126.908905,,155.2722712333892,,81.80322,,0 / 20,4052,2014-12-14 14:16:15:393
-2.3391,-8.2755,-3.6607,-0.6195,-9.7227,-1.1206,-1.7243,3.7538,-2.2333,6.05,27.15,-25.67,25.19,85.79,166.05,0.0,65.905,35.178032,126.908905,,155.2722712333892,,81.80322,,0 / 20,4102,2014-12-14 14:16:15:443
-4.6381,-3.3901,-3.8715,-1.2027,-9.5947,-1.6325,-3.2265,7.4,-1.9947,4.93,26.4,-24.8,25.19,85.79,166.05,0.0,65.905,35.178032,126.908905,,155.2722712333892,,81.80322,,0 / 20,4152,2014-12-14 14:16:15:493
-4.2549,-0.7846,-6.6111,-1.6869,-9.4232,-2.1279,-2.5453,7.7464,-3.7006,4.93,24.9,-24.8,42.41,78.07,143.62,0.0,65.905,35.178032,126.908905,,155.2722712333892,,81.80322,,0 / 20,4202,2014-12-14 14:16:15:543
-3.9675,-6.4554,-2.0323,-2.6037,-8.9171,-3.1428,-1.8376,3.0885,0.7385,5.3,26.03,-22.49,37.21,68.69,142.49,0.0,65.905,35.178032,126.908905,,155.2722712333892,,81.80322,,0 / 20,4252,2014-12-14 14:16:15:593
27.4904,-31.5911,38.6408,-0.9141,-9.7621,-0.1899,18.56,-16.66,29.4285,6.05,27.46,-18.3,37.21,68.69,142.49,0.0,69.582,35.178032,126.908905,,155.2722712333892,,81.80322,,0 / 20,4302,2014-12-14 14:16:15:643
-1.7069,-6.8386,3.5428,-0.529,-9.6926,1.3942,-2.2281,0.9452,4.5176,6.43,27.15,-19.17,88.35,84.54,101.74,0.0,69.582,35.178032,126.908905,,155.2722712333892,,81.80322,,0 / 20,4352,2014-12-14 14:16:15:693
-2.6648,1.9359,-19.1023,-0.4271,-9.7315,1.1341,1.5631,6.7427,-5.8101,4.93,27.84,-17.86,88.35,84.54,101.74,0.0,69.582,35.178032,126.908905,,155.2722712333892,,81.80322,,0 / 20,4402,2014-12-14 14:16:15:743
-4.3507,-3.4476,-10.5386,-0.1519,-9.8017,0.2721,2.8214,3.5841,-8.0866,5.68,29.71,-15.24,175.78,82.9,20.64,0.0,69.582,35.178032,126.908905,,155.2722712333892,,81.80322,,0 / 20,4453,2014-12-14 14:16:15:794
-10.3281,0.0967,-8.6419,-1.2361,-9.7017,-0.7209,-15.368,12.3593,-14.5334,4.55,30.84,-14.17,169.81,88.18,29.17,0.0,69.582,35.178032,126.908905,,155.2722712333892,,81.80322,,0 / 20,4503,2014-12-14 14:16:15:844
3.4276,-12.2987,-2.0323,-1.1765,-9.6624,-1.1938,4.8638,-4.4355,0.5705,5.68,31.9,-12.17,169.81,88.18,29.17,0.0,69.582,35.178032,126.908905,,155.2722712333892,,81.80322,,0 / 20,4552,2014-12-14 14:16:15:893
-0.2317,-8.5245,-4.8294,-0.8835,-9.6252,-1.6569,0.8499,1.1713,-3.31,6.8,34.15,-9.11,57.2,80.16,135.42,0.0,69.379,35.178032,126.908905,,155.2722712333892,,81.80322,,0 / 20,4602,2014-12-14 14:16:15:943
-0.0401,-9.9422,-1.4192,-1.0375,-9.6041,-1.69,-1.1802,0.9426,0.1808,7.18,34.15,-5.67,57.2,80.16,135.42,0.0,69.379,35.178032,126.908905,,155.2722712333892,,81.80322,,0 / 20,4652,2014-12-14 14:16:15:993
0.9944,-9.2909,-2.1472,-0.7971,-9.6336,-1.6521,1.5848,0.0062,-0.2227,7.18,33.4,-4.8,47.66,78.33,148.45,0.0,69.379,35.178032,126.908905,,155.2722712333892,,81.80322,,0 / 20,4702,2014-12-14 14:16:16:043
-0.9789,-9.3867,-0.7104,-0.5096,-9.6593,-1.6152,2.0674,-0.0951,0.7746,7.18,32.65,-3.05,49.63,80.05,162.49,0.0,69.379,35.178032,126.908905,,155.2722712333892,,81.80322,,0 / 20,4752,2014-12-14 14:16:16:093
-1.3237,-9.9614,-0.1739,-0.5412,-9.6833,-1.4529,-0.8029,0.2732,0.9241,8.99,34.9,-3.92,49.63,80.05,162.49,0.0,69.379,35.178032,126.908905,,155.2722712333892,,81.80322,,0 / 20,4802,2014-12-14 14:16:16:143
3.3892,-10.6894,-1.8407,-0.387,-9.713,-1.2956,3.0326,-0.6044,-0.5059,10.49,34.53,-0.61,66.52,80.9,159.57,0.0,69.379,35.178032,126.908905,,155.2722712333892,,81.80322,,0 / 20,4852,2014-12-14 14:16:16:193
0.573,-10.6511,-2.0323,-0.127,-9.7233,-1.2698,3.5967,-1.2423,0.2145,10.49,33.4,-0.86,74.89,82.07,163.37,0.0,69.379,35.178032,126.908905,,155.2722712333892,,81.80322,,0 / 20,4902,2014-12-14 14:16:16:243
7.2975,-15.9196,3.9643,0.1488,-9.7596,-0.9476,3.844,-3.7802,3.0924,10.12,34.9,-0.24,63.3,84.39,-171.07,0.0,68.034,35.178032,126.908905,,155.2722712333892,,81.80322,,0 / 20,4952,2014-12-14 14:16:16:293
1.0711,-13.8122,3.4661,1.0039,-9.7551,0.03,-0.1386,-1.8687,1.5966,8.99,35.59,-3.55,63.3,84.39,-171.07,0.0,68.034,35.178032,126.908905,,155.2722712333892,,81.80322,,0 / 20,5021,2014-12-14 14:16:16:362
-1.4195,-11.6857,-4.6378,0.9152,-9.761,-0.2343,-3.7902,-2.0355,-4.1872,7.55,35.96,-5.11,335.5,84.12,-88.29,0.0,68.034,35.178032,126.908905,,155.2722712333892,,81.80322,,0 / 20,5052,2014-12-14 14:16:16:393
-3.9675,-16.322,-3.1435,0.3843,-9.7789,-0.6292,-4.6405,-4.3081,-2.6492,5.3,37.09,-9.92,335.5,84.12,-88.29,0.0,68.034,35.178032,126.908905,,155.2722712333892,,81.80322,,0 / 20,5102,2014-12-14 14:16:16:443
-3.1629,-11.8198,-4.2738,-0.2878,-9.7458,-1.0517,-2.8985,1.1764,-2.7251,-2.45,33.78,-16.61,355.03,85.47,-174.04,0.0,68.034,35.178032,126.908905,,155.2722712333892,,81.80322,,0 / 20,5152,2014-12-14 14:16:16:493
-0.9405,-8.7161,-4.6378,-0.365,-9.7219,-1.2335,-1.2815,2.9086,-2.923,-2.82,33.03,-17.42,5.22,82.46,163.51,0.0,68.034,35.178032,126.908905,,155.2722712333892,,81.80322,,0 / 20,5202,2014-12-14 14:16:16:543
-4.2166,-3.5242,-4.5037,-0.8425,-9.5596,-2.0187,-3.2326,6.8614,-2.2438,-3.88,29.34,-20.18,5.22,82.46,163.51,0.0,68.034,35.178032,126.908905,,155.2722712333892,,81.80322,,0 / 20,5252,2014-12-14 14:16:16:593
-4.6189,-2.5855,-4.6761,-1.0958,-9.481,-2.2541,-3.2634,7.2915,-2.2422,-2.82,28.21,-21.42,9.22,77.11,157.35,0.0,68.866,35.178032,126.908905,,155.2722712333892,,81.80322,,0 / 20,5302,2014-12-14 14:16:16:643
-7.1478,-3.6009,0.0943,-1.6749,-9.2424,-2.8185,-3.3884,7.4743,-2.7399,-3.51,28.21,-20.55,14.44,70.47,149.28,0.0,68.866,35.178032,126.908905,,155.2722712333892,,81.80322,,0 / 20,5352,2014-12-14 14:16:16:693
10.8418,-20.4985,19.9614,-2.3821,-8.9616,-3.1915,-4.1425,5.4101,1.179,-2.07,28.59,-18.86,14.44,70.47,149.28,0.0,68.866,35.178032,126.908905,,155.2722712333892,,81.80322,,0 / 20,5403,2014-12-14 14:16:16:744
23.2181,-27.0314,34.675,-2.1152,-9.4203,-1.7186,6.0005,-7.557,13.6664,-0.95,28.96,-16.36,20.04,66.04,143.26,0.0,68.866,35.178032,126.908905,,155.2722712333892,,81.80322,,0 / 20,5452,2014-12-14 14:16:16:793
-9.1595,-8.8502,-9.4465,-0.3665,-9.7384,1.0956,-4.7765,2.4004,-8.6507,-0.95,27.46,-15.24,172.93,79.73,0.89,0.0,68.866,35.178032,126.908905,,155.2722712333892,,81.80322,,0 / 20,5502,2014-12-14 14:16:16:843
-3.4311,-22.4909,1.627,-0.892,-9.7039,1.0992,-0.1518,-9.1428,2.154,0.55,29.34,-16.17,172.93,79.73,0.89,0.0,68.866,35.178032,126.908905,,155.2722712333892,,81.80322,,0 / 20,5552,2014-12-14 14:16:16:893
-10.1174,-1.8575,-10.0596,-1.2212,-9.7275,-0.2354,-9.5383,10.2386,-13.4935,1.62,28.59,-13.55,132.37,81.7,39.06,0.0,67.493,35.178032,126.908905,,155.2722712333892,,81.80322,,0 / 20,5602,2014-12-14 14:16:16:943
4.9219,-14.636,0.3242,-1.297,-9.6741,-0.949,5.6064,-3.8844,0.3617,1.62,30.46,-10.8,70.67,82.71,100.91,0.0,67.493,35.178032,126.908905,,155.2722712333892,,81.80322,,0 / 20,5652,2014-12-14 14:16:16:993
-1.5536,-8.6012,-0.6337,-0.9646,-9.6751,-1.278,0.9531,0.4979,-2.2735,3.49,30.84,-7.99,36.99,80.6,142.96,0.0,67.493,35.178032,126.908905,,155.2722712333892,,81.80322,,0 / 20,5702,2014-12-14 14:16:17:043
0.4963,-9.5782,-1.1702,-0.9996,-9.6881,-1.1452,1.2288,-0.5467,1.3284,3.87,31.15,-6.61,36.99,80.6,142.96,0.0,67.493,35.178032,126.908905,,155.2722712333892,,81.80322,,0 / 20,5752,2014-12-14 14:16:17:093
0.3814,-9.1759,-2.6645,-0.9036,-9.6925,-1.1875,1.3814,0.305,-0.5493,4.93,31.53,-4.86,52.02,81.08,138.88,0.0,67.493,35.178032,126.908905,,155.2722712333892,,81.80322,,0 / 20,5802,2014-12-14 14:16:17:143
-0.0018,-9.1184,-1.6108,-0.5091,-9.7055,-1.3094,0.1717,0.5782,-0.2272,7.18,31.9,-4.49,57.35,81.4,152.93,0.0,67.493,35.178032,126.908905,,155.2722712333892,,81.80322,,0 / 20,5852,2014-12-14 14:16:17:193
-1.0363,-9.4633,-0.4422,-0.6177,-9.7014,-1.2926,-1.4755,0.6408,0.3118,7.18,32.28,-2.74,60.15,81.6,154.46,0.0,67.493,35.178032,126.908905,,155.2722712333892,,81.80322,,0 / 20,5902,2014-12-14 14:16:17:243
0.7262,-9.2142,-0.8253,-0.7198,-9.7159,-1.1198,0.8699,0.2215,0.4786,7.55,30.09,-1.92,60.15,81.6,154.46,0.0,69.08,35.178032,126.908905,,155.2722712333892,,81.80322,,0 / 20,5952,2014-12-14 14:16:17:293
-0.2317,-9.2717,-1.6683,-0.5268,-9.7233,-1.1622,1.0352,0.0534,-0.3867,8.62,28.21,-1.8,85.73,82.2,147.27,0.0,69.08,35.178032,126.908905,,155.2722712333892,,81.80322,,0 / 20,6003,2014-12-14 14:16:17:344
0.6113,-10.7852,-0.1931,-0.5832,-9.7005,-1.3154,1.4215,-1.2834,1.1195,9.74,30.09,-0.49,88.95,81.36,153.96,0.0,69.08,35.178032,126.908905,,155.2722712333892,,81.80322,,0 / 20,6052,2014-12-14 14:16:17:393
4.2514,-12.2987,2.1634,-0.3193,-9.7376,-1.1171,3.5972,-1.9947,2.569,11.24,30.84,-1.61,88.95,81.36,153.96,0.0,69.08,35.178032,126.908905,,155.2722712333892,,81.80322,,0 / 20,6102,2014-12-14 14:16:17:443
3.7149,-13.3524,-0.5954,0.2762,-9.7732,-0.7609,3.9608,-2.6845,1.6319,12.37,31.53,-2.74,74.7,83.2,164.05,0.0,69.08,35.178032,126.908905,,155.2722712333892,,81.80322,,0 / 20,6152,2014-12-14 14:16:17:493
-3.4503,-12.2412,-3.9864,0.083,-9.7411,-1.129,-3.7768,-1.4331,-2.9499,13.05,32.28,-3.8,55.82,83.37,-175.79,0.0,69.08,35.178032,126.908905,,155.2722712333892,,81.80322,,0 / 20,6203,2014-12-14 14:16:17:544
-5.5768,-13.2375,-2.971,-1.0013,-9.6359,-1.5224,-4.294,-1.564,-1.6291,10.87,34.15,-6.24,55.82,83.37,-175.79,0.0,67.439,35.178032,126.908905,,155.2722712333892,,81.80322,,0 / 20,6253,2014-12-14 14:16:17:594
-3.1821,-10.881,-4.2547,-1.1461,-9.6025,-1.6277,-2.4493,0.0017,-1.8262,8.99,37.46,-10.17,57.76,79.29,146.67,0.0,67.439,35.178032,126.908905,,155.2722712333892,,81.80322,,0 / 20,6303,2014-12-14 14:16:17:644
-3.2012,-8.1414,-4.0631,-1.3046,-9.5353,-1.8835,-1.1117,2.2724,-1.7982,7.55,37.46,-10.86,47.47,78.29,144.85,0.0,67.439,35.178032,126.908905,,155.2722712333892,,81.80322,,0 / 20,6352,2014-12-14 14:16:17:693
-2.1667,-5.3634,-3.814,-1.7728,-9.3763,-2.2609,-2.2954,3.6321,-1.2585,7.55,38.59,-12.17,47.47,78.29,144.85,0.0,67.439,35.178032,126.908905,,155.2722712333892,,81.80322,,0 / 20,6402,2014-12-14 14:16:17:743
-0.634,-6.4171,-3.0285,-2.0123,-9.2573,-2.5345,1.0138,3.5493,-0.7505,6.8,40.03,-13.05,37.92,72.96,141.9,0.0,67.439,35.178032,126.908905,,155.2722712333892,,81.80322,,0 / 20,6452,2014-12-14 14:16:17:793
0.6496,-8.7353,1.4928,-1.7701,-9.3494,-2.3718,2.3082,0.603,3.5878,7.93,39.65,-13.05,38.38,70.73,141.55,0.0,67.439,35.178032,126.908905,,155.2722712333892,,81.80322,,0 / 20,6502,2014-12-14 14:16:17:843
-0.7298,-9.425,2.7764,-1.5654,-9.5074,-1.8244,1.1516,0.0448,4.3047,8.3,38.59,-10.17,38.38,70.73,141.55,0.0,67.439,35.178032,126.908905,,155.2722712333892,,81.80322,,0 / 20,6552,2014-12-14 14:16:17:893
-2.205,-9.6549,2.3741,-1.6971,-9.6163,-0.904,-1.5758,-0.3177,2.479,8.3,37.84,-9.11,46.68,75.81,139.37,0.0,67.566,35.178032,126.908905,,155.2722712333892,,81.80322,,0 / 20,6602,2014-12-14 14:16:17:943
-1.1513,-8.7928,-0.9786,-1.6601,-9.6334,-0.7826,0.6404,0.8844,-0.2996,8.62,38.59,-10.17,74.84,79.21,115.24,0.0,67.566,35.178032,126.908905,,155.2722712333892,,81.80322,,0 / 20,6652,2014-12-14 14:16:17:993
0.7071,-10.2679,2.7381,-1.2262,-9.7133,-0.5641,2.9937,-0.7143,2.7,7.93,37.84,-8.36,82.78,82.09,114.71,0.0,67.566,35.178032,126.908905,,155.2722712333892,,81.80322,,0 / 20,6702,2014-12-14 14:16:18:043
-0.1742,-8.6203,0.5541,-0.7926,-9.7745,-0.0317,0.7922,0.8866,0.6425,7.55,38.21,-10.11,82.78,82.09,114.71,0.0,67.566,35.178032,126.908905,,155.2722712333892,,81.80322,,0 / 20,6752,2014-12-14 14:16:18:093
0.3239,-10.3829,1.7802,-0.6963,-9.7818,0.0446,1.3129,-0.2263,1.0495,8.62,37.46,-8.8,120.96,85.36,92.29,0.0,67.566,35.178032,126.908905,,155.2722712333892,,81.80322,,0 / 20,6802,2014-12-14 14:16:18:143
0.1515,-9.2525,0.4966,-0.545,-9.7882,0.2548,0.7857,-0.504,1.2736,7.55,37.46,-9.11,124.88,85.92,86.33,0.0,67.566,35.178032,126.908905,,155.2722712333892,,81.80322,,0 / 20,6853,2014-12-14 14:16:18:194
-0.0018,-9.5974,1.1097,-0.4232,-9.7927,0.3087,0.4596,-0.1249,0.2764,8.62,36.71,-9.55,166.04,86.94,53.9,0.0,67.566,35.178032,126.908905,,155.2722712333892,,81.80322,,0 / 20,6902,2014-12-14 14:16:18:243
0.209,-9.5782,0.8989,-0.3682,-9.7921,0.3876,0.4204,0.0908,0.6151,6.8,37.09,-9.3,166.04,86.94,53.9,0.0,62.203,35.178032,126.908905,,155.2722712333892,,81.80322,,0 / 20,6952,2014-12-14 14:16:18:293
0.7262,-9.5974,1.0905,-0.2162,-9.7903,0.5232,0.7522,-0.0204,0.6657,7.55,35.59,-9.05,187.47,86.8,29.67,0.0,62.203,35.178032,126.908905,,155.2722712333892,,81.80322,,0 / 20,7002,2014-12-14 14:16:18:343
0.8603,-9.7124,1.4545,0.0357,-9.7824,0.689,0.7837,0.0153,0.7203,7.55,36.34,-10.11,216.62,86.47,8.02,0.0,62.203,35.178032,126.908905,,155.2722712333892,,81.80322,,0 / 20,7052,2014-12-14 14:16:18:393
0.4389,-9.4825,0.8989,0.0791,-9.7791,0.7304,0.5991,-0.0701,0.5798,6.8,35.96,-8.8,216.62,86.47,8.02,0.0,62.203,35.178032,126.908905,,155.2722712333892,,81.80322,,0 / 20,7102,2014-12-14 14:16:18:443
0.3431,-9.674,0.5541,0.159,-9.7811,0.6892,0.1718,-0.0643,-0.1283,6.8,35.96,-9.24,227.14,85.72,-10.28,0.0,62.203,35.178032,126.908905,,155.2722712333892,,81.80322,,0 / 20,7152,2014-12-14 14:16:18:493
0.3814,-9.789,0.8223,0.1684,-9.7805,0.6954,0.1327,-0.1426,0.0955,7.55,37.46,-9.11,246.42,85.86,-12.99,0.0,62.203,35.178032,126.908905,,155.2722712333892,,81.80322,,0 / 20,7202,2014-12-14 14:16:18:543
0.6113,-9.6357,0.9181,0.2376,-9.7746,0.7551,0.387,-0.0311,0.2156,7.93,36.71,-7.92,253.8,85.6,-14.78,0.0,55.693,35.178032,126.908905,,155.2722712333892,,81.80322,,0 / 20,7252,2014-12-14 14:16:18:593
0.6496,-9.6357,0.9947,0.2667,-9.7724,0.7747,0.4024,-0.029,0.2751,6.43,35.96,-8.67,253.8,85.6,-14.78,0.0,55.693,35.178032,126.908905,,155.2722712333892,,81.80322,,0 / 20,7302,2014-12-14 14:16:18:643
0.8603,-9.5974,1.0905,0.3325,-9.7662,0.8253,0.4415,0.0344,0.3482,7.18,37.46,-10.61,243.87,85.21,-19.0,0.0,55.693,35.178032,126.908905,,155.2722712333892,,81.80322,,0 / 20,7352,2014-12-14 14:16:18:693
0.3239,-9.6549,0.8031,0.4105,-9.7599,0.8643,0.2219,0.0082,0.0406,7.55,38.9,-10.11,261.27,84.4,-25.4,0.0,55.693,35.178032,126.908905,,155.2722712333892,,81.80322,,0 / 20,7402,2014-12-14 14:16:18:743
0.1323,-9.5399,0.8223,0.3984,-9.7605,0.8629,-0.0789,-0.0127,-0.0623,7.18,37.46,-9.74,261.27,84.4,-25.4,0.0,55.693,35.178032,126.908905,,155.2722712333892,,81.80322,,0 / 20,7452,2014-12-14 14:16:18:793
0.6688,-9.6357,0.5541,0.3826,-9.7655,0.812,0.1322,0.0674,-0.3987,6.8,37.09,-9.74,254.97,84.62,-23.92,0.0,55.693,35.178032,126.908905,,155.2722712333892,,81.80322,,0 / 20,7502,2014-12-14 14:16:18:843
0.5921,-9.425,0.4774,0.4608,-9.7673,0.726,0.7309,-0.1461,0.2402,7.18,38.21,-7.74,271.57,84.86,-31.65,0.0,59.07,35.178032,126.908905,,155.2722712333892,,81.80322,,0 / 20,7552,2014-12-14 14:16:18:893
0.4772,-9.7315,0.1518,0.5357,-9.7667,0.7028,0.5539,-0.4304,-0.2864,6.8,37.84,-8.24,271.57,84.86,-31.65,0.0,59.07,35.178032,126.908905,,155.2722712333892,,81.80322,,0 / 20,7602,2014-12-14 14:16:18:943
0.7262,-9.9614,0.4966,0.504,-9.7724,0.6454,-0.0879,0.1204,-0.3635,6.8,38.21,-11.05,265.04,84.83,-37.32,0.0,59.07,35.178032,126.908905,,155.2722712333892,,81.80322,,0 / 20,7652,2014-12-14 14:16:18:993
0.573,-9.5591,0.7074,0.5543,-9.7685,0.6631,0.2701,-0.4553,0.2749,6.43,40.03,-7.3,265.04,84.83,-37.32,0.0,59.07,35.178032,126.908905,,155.2722712333892,,81.80322,,0 / 20,7702,2014-12-14 14:16:19:043
0.822,-9.4825,0.3433,0.5705,-9.7667,0.6757,0.0801,0.183,0.0256,5.3,38.59,-7.92,281.39,84.94,-39.89,0.0,59.07,35.178032,126.908905,,155.2722712333892,,81.80322,,0 / 20,7752,2014-12-14 14:16:19:093
0.6688,-9.8273,-0.059,0.5979,-9.7701,0.598,-0.0553,-0.2589,-0.4722,5.68,36.34,-7.99,278.99,84.89,-43.6,0.0,59.07,35.178032,126.908905,,155.2722712333892,,81.80322,,0 / 20,7802,2014-12-14 14:16:19:143