ACCELEROMETER X (m/s²),ACCELEROMETER Y (m/s²),ACCELEROMETER Z (m/s²),GRAVITY X (m/s²),GRAVITY Y (m/s²),GRAVITY Z (m/s²),LINEAR ACCELERATION X (m/s²),LINEAR ACCELERATION Y (m/s²),LINEAR ACCELERATION Z (m/s²),MAGNETIC FIELD X (μT),MAGNETIC FIELD Y (μT),MAGNETIC FIELD Z (μT),ORIENTATION X (°),ORIENTATION Y (°),ORIENTATION Z (°),PROXIMITY (i),SOUND LEVEL (dB),LOCATION Latitude : ,LOCATION Longitude : ,LOCATION Altitude ( m),LOCATION Altitude-google ( m),LOCATION Speed ( Kmh),LOCATION Accuracy ( m),LOCATION ORIENTATION (°),Satellites in range,Time since start in ms ,YYYY-MO-DD HH-MI-SS_SSS
0.2664,-9.5399,0.2284,-0.0429,-9.8064,-0.0633,0.3045,0.1688,0.3534,18.62,37.9,-26.67,70.59,89.36,143.85,0.0,67.599,35.177982,126.90892,,155.2123099472088,,70.703224,,0 / 20,3,2014-12-14 14:12:48:557
0.2473,-10.1721,1.0714,0.0152,-9.8066,0.02,0.387,-0.2671,0.7153,17.12,36.09,-23.05,70.07,89.55,145.87,0.0,67.599,35.177982,126.90892,,155.2123099472088,,70.703224,,0 / 20,53,2014-12-14 14:12:48:607
0.2664,-10.3254,1.9718,0.0716,-9.8017,0.3033,0.315,-0.5525,1.7772,17.49,36.09,-23.92,70.07,89.55,145.87,0.0,67.599,35.177982,126.90892,,155.2123099472088,,70.703224,,0 / 20,103,2014-12-14 14:12:48:657
2.5463,-10.8618,2.0676,0.2489,-9.7879,0.5529,1.6617,-1.1493,1.7454,15.62,34.59,-22.3,231.14,88.18,-13.28,0.0,67.599,35.177982,126.90892,,155.2123099472088,,70.703224,,0 / 20,153,2014-12-14 14:12:48:707
-0.4807,-9.8465,-0.5954,0.4376,-9.7759,0.6407,0.501,-0.2421,0.0868,15.3,34.59,-24.92,238.9,86.46,-24.24,0.0,67.599,35.177982,126.90892,,155.2123099472088,,70.703224,,0 / 20,203,2014-12-14 14:12:48:757
-1.3812,-9.9806,0.5924,0.2217,-9.7949,0.4247,-1.5227,-0.0134,0.1651,14.93,32.4,-24.3,255.46,86.65,-39.76,0.0,62.453,35.177982,126.90892,,155.2123099472088,,70.703224,,0 / 20,253,2014-12-14 14:12:48:807
1.186,-10.4021,1.4928,0.1329,-9.7925,0.5094,-0.1722,-0.0942,0.5827,15.3,33.84,-25.86,255.46,86.65,-39.76,0.0,62.453,35.177982,126.90892,,155.2123099472088,,70.703224,,0 / 20,303,2014-12-14 14:12:48:857
1.2627,-9.6166,1.7419,0.2572,-9.7826,0.6362,1.1161,-0.0915,1.0528,13.43,32.03,-27.99,224.67,86.92,-14.62,0.0,62.453,35.177982,126.90892,,155.2123099472088,,70.703224,,0 / 20,353,2014-12-14 14:12:48:907
1.4351,-8.0839,1.4928,0.3518,-9.7701,0.7697,0.5371,1.4236,0.7853,13.43,32.03,-27.99,233.72,85.05,-24.56,0.0,62.453,35.177982,126.90892,,155.2123099472088,,70.703224,,0 / 20,403,2014-12-14 14:12:48:957
-0.3466,-6.9727,2.0867,0.433,-9.7407,1.0496,-0.6547,2.334,0.8739,12.68,32.4,-28.49,238.27,84.09,-28.01,0.0,62.453,35.177982,126.90892,,155.2123099472088,,70.703224,,0 / 20,453,2014-12-14 14:12:49:007
0.4772,-7.1643,1.9718,0.4292,-9.7182,1.2419,0.3402,1.5974,1.0409,13.8,30.53,-27.86,238.27,84.09,-28.01,0.0,62.453,35.177982,126.90892,,155.2123099472088,,70.703224,,0 / 20,503,2014-12-14 14:12:49:057
0.9561,-8.7544,3.2171,0.5291,-9.6809,1.4734,0.56,0.3555,1.4254,14.18,33.46,-27.42,233.47,82.3,-19.07,0.0,63.541,35.177982,126.90892,,155.2123099472088,,70.703224,,0 / 20,554,2014-12-14 14:12:49:108
0.5921,-7.7582,1.3587,0.504,-9.6412,1.7217,-0.3828,1.1102,-0.0022,13.05,30.9,-26.24,233.32,79.5,-17.22,0.0,63.541,35.177982,126.90892,,155.2123099472088,,70.703224,,0 / 20,603,2014-12-14 14:12:49:157
2.4313,-9.7124,3.0063,0.6862,-9.6139,1.8092,1.6582,-0.5729,1.1165,12.68,30.9,-26.55,233.32,79.5,-17.22,0.0,63.541,35.177982,126.90892,,155.2123099472088,,70.703224,,0 / 20,653,2014-12-14 14:12:49:207
-2.2433,-9.4441,-1.0552,0.8274,-9.5633,2.0075,-0.3922,-0.4094,-0.1549,13.43,30.53,-24.92,235.19,78.62,-20.77,0.0,63.541,35.177982,126.90892,,155.2123099472088,,70.703224,,0 / 20,703,2014-12-14 14:12:49:257
-0.27,-18.4102,9.0604,0.1177,-9.6134,1.9337,-4.1542,-7.6148,3.8071,13.8,33.84,-22.67,249.75,77.21,-22.4,0.0,63.541,35.177982,126.90892,,155.2123099472088,,70.703224,,0 / 20,753,2014-12-14 14:12:49:307
0.1323,-4.9803,-8.1821,0.323,-9.6635,1.6381,0.1037,3.8024,-7.9594,12.3,34.21,-21.8,230.92,77.49,-8.25,0.0,63.541,35.177982,126.90892,,155.2123099472088,,70.703224,,0 / 20,805,2014-12-14 14:12:49:359
-1.5536,-6.9919,-1.8215,0.125,-9.7282,1.2319,-2.9845,4.5666,-6.6735,12.68,33.46,-20.49,230.92,77.49,-8.25,0.0,63.541,35.177982,126.90892,,155.2123099472088,,70.703224,,0 / 20,853,2014-12-14 14:12:49:407
-0.7106,-9.0801,-2.7028,-0.0314,-9.8015,0.3175,-0.6638,0.3548,-3.0168,13.43,34.59,-18.3,227.47,85.51,-6.02,0.0,64.207,35.177982,126.90892,,155.2123099472088,,70.703224,,0 / 20,903,2014-12-14 14:12:49:457
-1.0746,-8.5437,-2.8178,-0.1494,-9.8051,-0.0862,-0.862,0.7653,-2.6585,14.18,36.09,-16.11,217.47,88.14,5.65,0.0,64.207,35.177982,126.90892,,155.2123099472088,,70.703224,,0 / 20,953,2014-12-14 14:12:49:507
0.9561,-9.8081,-1.7641,-0.0619,-9.7997,-0.3641,0.9293,-0.2311,-1.447,14.93,36.78,-17.55,46.98,87.84,170.36,0.0,64.207,35.177982,126.90892,,155.2123099472088,,70.703224,,0 / 20,1003,2014-12-14 14:12:49:557
-0.2317,-9.6549,-1.879,-0.0308,-9.7877,-0.6086,-0.0786,-0.0085,-1.3571,14.93,36.46,-14.36,46.98,87.84,170.36,0.0,64.207,35.177982,126.90892,,155.2123099472088,,70.703224,,0 / 20,1053,2014-12-14 14:12:49:607
-1.841,-8.6012,-2.3771,-0.3334,-9.7621,-0.872,-1.4999,0.848,-1.4153,14.18,37.9,-12.92,55.71,85.35,163.82,0.0,64.207,35.177982,126.90892,,155.2123099472088,,70.703224,,0 / 20,1103,2014-12-14 14:12:49:657
-0.5574,-9.1184,-2.3197,-0.3663,-9.7398,-1.0832,-0.2723,0.3757,-1.4575,14.93,39.03,-12.49,55.71,85.35,163.82,0.0,64.207,35.177982,126.90892,,155.2123099472088,,70.703224,,0 / 20,1153,2014-12-14 14:12:49:707
-1.6877,-10.038,-0.5571,-0.4689,-9.7214,-1.2021,-1.1586,-0.4639,0.4419,13.05,38.65,-9.55,60.56,83.3,161.32,0.0,64.207,35.177982,126.90892,,155.2123099472088,,70.703224,,0 / 20,1203,2014-12-14 14:12:49:757
-2.9522,-9.4633,-0.9977,-0.6952,-9.7123,-1.1654,-3.067,0.0026,0.4813,15.3,37.15,-9.05,65.73,82.44,158.69,0.0,67.345,35.177982,126.90892,,155.2123099472088,,70.703224,,0 / 20,1253,2014-12-14 14:12:49:807
0.3431,-11.0151,-1.63,-0.6222,-9.7087,-1.235,1.1219,-1.4484,-0.4698,15.3,39.03,-9.67,65.73,82.44,158.69,0.0,67.345,35.177982,126.90892,,155.2123099472088,,70.703224,,0 / 20,1303,2014-12-14 14:12:49:857
2.6421,-12.4903,-0.8445,-0.1746,-9.7362,-1.1604,2.7598,-2.6014,0.675,15.3,39.4,-9.11,70.96,81.89,153.26,0.0,67.345,35.177982,126.90892,,155.2123099472088,,70.703224,,0 / 20,1353,2014-12-14 14:12:49:907
5.1901,-15.4024,1.8377,0.28,-9.7716,-0.7795,4.1896,-4.33,2.6548,14.18,38.28,-9.55,51.27,83.13,171.44,0.0,67.345,35.177982,126.90892,,155.2123099472088,,70.703224,,0 / 20,1403,2014-12-14 14:12:49:957
3.8107,-10.8427,-6.3621,0.9254,-9.7566,-0.3499,3.0997,-0.3632,-0.818,14.55,39.78,-14.36,359.6,85.36,-132.56,0.0,67.345,35.177982,126.90892,,155.2123099472088,,70.703224,,0 / 20,1453,2014-12-14 14:12:50:007
-3.5461,-17.2607,-3.3542,0.9254,-9.7566,-0.3499,3.0997,-0.3632,-0.818,11.24,37.21,-15.99,359.6,85.36,-132.56,0.0,67.345,35.177982,126.90892,,155.2123099472088,,70.703224,,0 / 20,1503,2014-12-14 14:12:50:057
-3.4311,-14.023,-3.4883,0.3278,-9.7327,-1.1564,-3.2028,-3.8831,-0.9457,10.12,37.9,-20.92,353.97,82.31,-147.24,0.0,67.345,35.177982,126.90892,,155.2123099472088,,70.703224,,0 / 20,1553,2014-12-14 14:12:50:107
-2.9713,-10.2488,-3.7757,0.1199,-9.7262,-1.2474,-3.6348,-1.823,-1.8498,7.87,37.53,-21.92,353.97,82.31,-147.24,0.0,67.345,35.177982,126.90892,,155.2123099472088,,70.703224,,0 / 20,1603,2014-12-14 14:12:50:157
-1.9559,-7.1068,-3.4692,-0.2219,-9.6909,-1.486,-2.3938,2.6356,-2.0043,5.68,34.96,-23.49,7.74,82.66,-174.51,0.0,69.91,35.177982,126.90892,,155.2123099472088,,70.703224,,0 / 20,1653,2014-12-14 14:12:50:207
-4.6189,-3.4668,-4.6761,-0.6337,-9.5929,-1.9352,-2.3916,5.3267,-2.0266,5.68,32.03,-26.05,25.44,78.02,161.87,0.0,69.91,35.177982,126.90892,,155.2123099472088,,70.703224,,0 / 20,1703,2014-12-14 14:12:50:257
-5.5002,-1.1869,-4.3313,-1.7272,-9.2305,-2.8259,-3.6991,8.0486,-1.512,6.05,32.4,-27.55,25.44,78.02,161.87,0.0,69.91,35.177982,126.90892,,155.2123099472088,,70.703224,,0 / 20,1753,2014-12-14 14:12:50:307
-1.3046,-6.8386,0.8798,-2.2682,-9.065,-2.9751,-2.0373,6.0401,1.655,5.68,32.71,-25.8,33.74,70.26,148.57,0.0,69.91,35.177982,126.90892,,155.2123099472088,,70.703224,,0 / 20,1803,2014-12-14 14:12:50:357
15.823,-23.4105,25.594,-0.1883,-9.7987,0.348,17.383,-14.1906,25.1754,8.24,35.34,-22.92,40.13,68.4,140.53,0.0,69.91,35.177982,126.90892,,155.2123099472088,,70.703224,,0 / 20,1855,2014-12-14 14:12:50:409
1.0519,-7.2026,1.2055,0.1356,-9.6994,1.4402,17.383,-14.1906,25.1754,7.87,35.71,-23.18,40.13,68.4,140.53,0.0,69.91,35.177982,126.90892,,155.2123099472088,,70.703224,,0 / 20,1903,2014-12-14 14:12:50:457
-11.6883,-3.3326,-17.244,-1.141,-9.7151,0.6961,-15.1919,-5.8355,-2.6577,8.24,35.71,-23.61,213.49,81.02,-7.66,0.0,69.91,35.177982,126.90892,,155.2123099472088,,70.703224,,0 / 20,1953,2014-12-14 14:12:50:507
8.6194,-12.7394,-4.8677,-0.5105,-9.7609,0.7962,9.5803,-5.1958,-2.3731,10.12,39.03,-22.17,136.88,82.17,58.61,0.0,69.91,35.177982,126.90892,,155.2123099472088,,70.703224,,0 / 20,2003,2014-12-14 14:12:50:557
3.0635,-15.5939,-0.5571,-1.253,-9.6999,-0.7157,-9.4251,10.4599,-11.6818,8.99,40.53,-21.36,136.88,82.17,58.61,0.0,66.53,35.177982,126.90892,,155.2123099472088,,70.703224,,0 / 20,2056,2014-12-14 14:12:50:610
0.7262,-8.8885,-4.9444,-0.876,-9.7215,-0.9464,3.9199,-4.5387,0.1982,12.3,43.84,-18.61,72.15,81.54,119.73,0.0,66.53,35.177982,126.90892,,155.2123099472088,,70.703224,,0 / 20,2103,2014-12-14 14:12:50:657
-0.6532,-9.5016,-1.0169,-0.7555,-9.6885,-1.3166,-1.0693,1.2408,0.7039,13.43,43.46,-14.3,55.04,81.47,152.13,0.0,66.53,35.177982,126.90892,,155.2123099472088,,70.703224,,0 / 20,2153,2014-12-14 14:12:50:707
2.029,-10.1338,-1.3043,-0.7715,-9.6987,-1.2291,0.8582,0.0381,0.7438,12.68,43.09,-13.05,59.83,81.49,147.88,0.0,66.53,35.177982,126.90892,,155.2123099472088,,70.703224,,0 / 20,2203,2014-12-14 14:12:50:757
0.6496,-9.4441,-0.787,-0.4051,-9.7195,-1.2398,1.2789,0.3321,0.4028,14.93,43.84,-9.11,59.83,81.49,147.88,0.0,66.53,35.177982,126.90892,,155.2123099472088,,70.703224,,0 / 20,2253,2014-12-14 14:12:50:807
-0.8448,-9.6357,-1.2276,-0.2661,-9.7218,-1.2596,0.4924,0.3598,-0.3168,15.62,44.59,-9.99,56.43,82.36,161.9,0.0,66.53,35.177982,126.90892,,155.2123099472088,,70.703224,,0 / 20,2303,2014-12-14 14:12:50:857
-1.477,-9.9039,-0.8828,-0.3819,-9.721,-1.2355,-1.0878,0.416,0.5298,15.99,45.65,-9.67,56.03,82.35,166.5,0.0,66.53,35.177982,126.90892,,155.2123099472088,,70.703224,,0 / 20,2353,2014-12-14 14:12:50:907
-0.0593,-9.6357,-0.4996,-0.4451,-9.7333,-1.1115,0.4682,0.2453,0.506,18.24,46.03,-9.11,56.03,82.35,166.5,0.0,68.783,35.177982,126.90892,,155.2123099472088,,70.703224,,0 / 20,2403,2014-12-14 14:12:50:957
1.3585,-11.2642,-0.5762,-0.2099,-9.7408,-1.1152,1.4039,-1.1343,0.4935,18.99,44.59,-9.11,72.45,82.99,158.18,0.0,68.783,35.177982,126.90892,,155.2123099472088,,70.703224,,0 / 20,2453,2014-12-14 14:12:51:007
2.2206,-13.3141,0.5349,0.0677,-9.7639,-0.9121,2.5459,-3.0439,1.5264,19.68,46.4,-10.42,62.05,83.36,169.34,0.0,68.783,35.177982,126.90892,,155.2123099472088,,70.703224,,0 / 20,2503,2014-12-14 14:12:51:057
5.0752,-13.9272,3.7344,0.9485,-9.7562,-0.2962,2.7931,-2.1799,4.1549,17.87,46.03,-18.74,13.31,84.9,-151.87,0.0,68.783,35.177982,126.90892,,155.2123099472088,,70.703224,,0 / 20,2553,2014-12-14 14:12:51:107
-1.8027,-11.9156,-4.6761,1.0125,-9.7415,-0.4978,-0.3426,0.1893,-3.6883,17.12,46.03,-21.36,13.31,84.9,-151.87,0.0,68.783,35.177982,126.90892,,155.2123099472088,,70.703224,,0 / 20,2603,2014-12-14 14:12:51:157
-4.5615,-16.3986,-2.1472,0.7901,-9.7477,-0.7272,-3.4919,-1.5473,-3.8302,13.43,46.4,-24.8,329.04,83.39,-116.18,0.0,68.783,35.177982,126.90892,,155.2123099472088,,70.703224,,0 / 20,2653,2014-12-14 14:12:51:207
-2.8372,-11.8198,-3.8715,-0.1144,-9.7562,-0.9866,-3.4708,-1.1363,-1.6735,9.37,41.59,-30.17,1.62,84.64,-165.12,0.0,68.783,35.177982,126.90892,,155.2123099472088,,70.703224,,0 / 20,2703,2014-12-14 14:12:51:257
-1.362,-8.8694,-4.5037,-0.3771,-9.7161,-1.2753,-1.9346,2.0667,-2.4141,7.87,39.4,-34.86,17.66,84.19,173.39,0.0,68.783,35.177982,126.90892,,155.2123099472088,,70.703224,,0 / 20,2754,2014-12-14 14:12:51:308
-3.6035,-5.4592,-4.0822,-0.6774,-9.6187,-1.7865,-2.4707,5.4229,-2.0183,6.43,37.53,-38.05,17.66,84.19,173.39,0.0,68.136,35.177982,126.90892,,155.2123099472088,,70.703224,,0 / 20,2803,2014-12-14 14:12:51:357
-4.4465,-3.371,-4.5229,-1.1371,-9.494,-2.1773,-3.1517,6.6429,-2.0,7.87,33.84,-38.99,28.28,78.77,159.23,0.0,68.136,35.177982,126.90892,,155.2123099472088,,70.703224,,0 / 20,2853,2014-12-14 14:12:51:407
-3.8718,-1.8958,-3.7948,-1.6291,-9.2982,-2.657,-2.4862,7.0788,-2.0819,9.74,33.84,-37.55,28.28,78.77,159.23,0.0,68.136,35.177982,126.90892,,155.2123099472088,,70.703224,,0 / 20,2903,2014-12-14 14:12:51:457
-3.2012,-2.8154,-2.0323,-2.0654,-9.0873,-3.0538,-1.7173,6.1782,-0.456,9.74,36.84,-38.24,37.11,71.47,148.49,0.0,68.136,35.177982,126.90892,,155.2123099472088,,70.703224,,0 / 20,2953,2014-12-14 14:12:51:507
4.6154,-16.1112,13.3518,-2.2791,-9.1729,-2.6141,-0.3191,-1.8083,4.8249,13.43,39.4,-32.86,47.29,69.29,138.92,0.0,68.136,35.177982,126.90892,,155.2123099472088,,70.703224,,0 / 20,3004,2014-12-14 14:12:51:558
-0.9214,-9.1568,4.9222,0.0246,-9.6928,1.4899,2.0665,-4.1574,9.0562,12.3,37.15,-31.55,47.29,69.29,138.92,0.0,68.136,35.177982,126.90892,,155.2123099472088,,70.703224,,0 / 20,3053,2014-12-14 14:12:51:607
-10.9412,-17.414,-1.63,-0.4362,-9.7592,0.8597,-6.2926,2.9604,-12.114,11.93,37.15,-35.05,207.68,81.26,-0.95,0.0,68.136,35.177982,126.90892,,155.2123099472088,,70.703224,,0 / 20,3103,2014-12-14 14:12:51:657
-15.9223,2.9896,-15.4239,-0.756,-9.7768,0.1105,-5.5409,9.6629,-12.3635,14.55,37.53,-30.24,172.31,81.51,32.89,0.0,64.909,35.177982,126.90892,,155.2123099472088,,70.703224,,0 / 20,3155,2014-12-14 14:12:51:709
-4.868,-5.6316,-4.8869,-1.4716,-9.6783,-0.5788,3.3389,-1.767,-1.1975,13.43,39.03,-28.3,172.31,81.51,32.89,0.0,64.909,35.177982,126.90892,,155.2123099472088,,70.703224,,0 / 20,3203,2014-12-14 14:12:51:757
0.7454,-8.7353,-5.0401,-0.803,-9.7528,-0.6386,5.7409,-5.2324,-0.0467,13.8,41.21,-26.74,83.39,80.72,111.47,0.0,64.909,35.177982,126.90892,,155.2123099472088,,70.703224,,0 / 20,3253,2014-12-14 14:12:51:807
-2.569,-9.2717,-1.266,-0.6121,-9.7115,-1.2178,-1.8189,1.3166,-0.3656,14.93,42.34,-22.67,71.64,83.99,128.49,0.0,64.909,35.177982,126.90892,,155.2123099472088,,70.703224,,0 / 20,3303,2014-12-14 14:12:51:857
-0.4616,-10.2105,-0.3847,-0.7434,-9.7008,-1.2295,-1.8552,0.9055,-0.0744,14.18,43.09,-22.36,49.36,82.01,153.32,0.0,64.909,35.177982,126.90892,,155.2123099472088,,70.703224,,0 / 20,3353,2014-12-14 14:12:51:907
1.6841,-9.8656,-0.8062,-0.6092,-9.7164,-1.1793,1.6374,0.4181,0.0607,14.55,43.84,-21.3,49.36,82.01,153.32,0.0,64.909,35.177982,126.90892,,155.2123099472088,,70.703224,,0 / 20,3403,2014-12-14 14:12:51:957
-1.8027,-9.7698,-0.6912,-0.346,-9.7133,-1.3047,-0.7503,0.2357,0.3848,14.18,40.53,-17.17,51.09,82.22,152.68,0.0,64.909,35.177982,126.90892,,155.2123099472088,,70.703224,,0 / 20,3453,2014-12-14 14:12:52:007
-1.1704,-9.8465,-0.0015,-0.4864,-9.7262,-1.155,-0.7583,-0.0706,1.1584,14.55,41.28,-18.49,45.07,82.09,165.15,0.0,69.45,35.177982,126.90892,,155.2123099472088,,70.703224,,0 / 20,3503,2014-12-14 14:12:52:057
-0.4041,-9.5591,-0.6529,-0.4887,-9.7304,-1.1183,-0.0152,0.2742,0.561,14.93,39.78,-17.11,53.93,82.66,157.16,0.0,69.45,35.177982,126.90892,,155.2123099472088,,70.703224,,0 / 20,3553,2014-12-14 14:12:52:107
1.914,-10.7469,-1.6491,-0.1557,-9.7259,-1.2458,2.8768,-0.7312,-1.1329,13.8,39.03,-19.92,53.93,82.66,157.16,0.0,69.45,35.177982,126.90892,,155.2123099472088,,70.703224,,0 / 20,3603,2014-12-14 14:12:52:157
5.7649,-15.843,2.1442,-0.0147,-9.7388,-1.1514,1.3158,-2.9456,1.1387,13.43,38.28,-16.42,38.05,82.64,172.88,0.0,69.45,35.177982,126.90892,,155.2123099472088,,70.703224,,0 / 20,3653,2014-12-14 14:12:52:207
2.6995,-13.1417,4.9988,0.9014,-9.7629,-0.2073,5.2924,-5.0765,3.5144,11.55,36.46,-18.67,38.05,82.64,172.88,0.0,69.45,35.177982,126.90892,,155.2123099472088,,70.703224,,0 / 20,3703,2014-12-14 14:12:52:257
2.8145,-10.8427,-4.7144,1.0132,-9.7447,-0.4296,1.8268,0.1401,-3.6059,10.49,32.78,-18.67,316.34,84.59,-102.95,0.0,69.45,35.177982,126.90892,,155.2123099472088,,70.703224,,0 / 20,3753,2014-12-14 14:12:52:307
-5.5002,-15.2682,-2.5687,0.6164,-9.7571,-0.7672,-4.8971,-2.7785,-2.1849,9.37,30.9,-20.61,321.46,83.56,-112.98,0.0,67.947,35.177982,126.90892,,155.2123099472088,,70.703224,,0 / 20,3803,2014-12-14 14:12:52:357
-3.7951,-14.2529,-2.3388,-0.1275,-9.7665,-0.8769,-3.4583,-2.2779,-1.0642,6.05,29.03,-20.92,321.46,83.56,-112.98,0.0,67.947,35.177982,126.90892,,155.2123099472088,,70.703224,,0 / 20,3853,2014-12-14 14:12:52:407
-1.8601,-11.3791,-4.2547,-0.4044,-9.7314,-1.1427,-1.6032,0.6809,-2.7652,6.05,26.84,-19.92,22.49,84.82,171.73,0.0,67.947,35.177982,126.90892,,155.2123099472088,,70.703224,,0 / 20,3903,2014-12-14 14:12:52:457
-4.1208,-4.2331,-3.814,-0.6713,-9.6482,-1.6221,-1.9594,4.8516,-2.1033,4.55,23.9,-22.17,30.17,79.69,157.52,0.0,67.947,35.177982,126.90892,,155.2123099472088,,70.703224,,0 / 20,3954,2014-12-14 14:12:52:508
-4.4657,-1.7233,-5.3467,-1.5986,-9.359,-2.4542,-2.9745,7.3333,-2.4464,4.55,23.53,-23.67,30.17,79.69,157.52,0.0,67.947,35.177982,126.90892,,155.2123099472088,,70.703224,,0 / 20,4003,2014-12-14 14:12:52:557
-4.0633,-1.3976,-5.1934,-1.8524,-9.2281,-2.7534,-2.5168,7.4508,-2.6231,5.3,24.28,-20.8,36.24,72.62,146.92,0.0,67.947,35.177982,126.90892,,155.2123099472088,,70.703224,,0 / 20,4053,2014-12-14 14:12:52:607
11.7231,-20.0195,22.4903,-2.4119,-9.0445,-2.9241,-1.3086,1.2447,2.671,4.93,25.71,-19.05,36.24,72.62,146.92,0.0,67.947,35.177982,126.90892,,155.2123099472088,,70.703224,,0 / 20,4103,2014-12-14 14:12:52:657
3.8107,-17.663,15.0952,-0.267,-9.7824,0.635,18.1939,-14.2084,28.0797,6.43,24.96,-17.11,40.26,67.26,140.48,0.0,67.947,35.177982,126.90892,,155.2123099472088,,70.703224,,0 / 20,4153,2014-12-14 14:12:52:707
-10.079,-5.3634,-15.2707,0.0174,-9.629,1.8581,0.8129,2.8679,0.53,5.68,27.59,-16.93,208.52,79.08,-0.54,0.0,67.947,35.177982,126.90892,,155.2123099472088,,70.703224,,0 / 20,4203,2014-12-14 14:12:52:757
-13.9107,-9.9997,-11.4198,-1.1428,-9.7067,0.8026,-11.2223,-4.9651,-3.4747,4.18,28.34,-15.67,208.52,79.08,-0.54,0.0,67.947,35.177982,126.90892,,155.2123099472088,,70.703224,,0 / 20,4256,2014-12-14 14:12:52:810
-9.3319,-3.2177,-7.6073,-0.5243,-9.7925,-0.0512,0.7262,4.8646,-10.1414,5.68,29.78,-13.42,102.87,86.92,95.58,0.0,66.357,35.177982,126.90892,,155.2123099472088,,70.703224,,0 / 20,4304,2014-12-14 14:12:52:858
-2.8947,-9.3292,-3.4117,-1.3506,-9.6722,-0.8917,-2.3976,1.5596,-3.0266,5.3,30.9,-11.86,99.77,86.92,95.58,0.0,66.357,35.177982,126.90892,,155.2123099472088,,70.703224,,0 / 20,4353,2014-12-14 14:12:52:907
-1.2279,-9.0418,-1.2085,-0.6912,-9.7106,-1.1816,2.2546,0.9815,-3.7932,6.05,32.03,-7.11,99.77,86.92,95.58,0.0,66.357,35.177982,126.90892,,155.2123099472088,,70.703224,,0 / 20,4403,2014-12-14 14:12:52:957
-2.205,-8.582,-1.3426,-0.7531,-9.6992,-1.2366,-0.9907,1.2045,0.4863,7.18,34.21,-7.3,50.0,81.98,149.67,0.0,66.357,35.177982,126.90892,,155.2123099472088,,70.703224,,0 / 20,4453,2014-12-14 14:12:53:007
0.5921,-9.9997,-1.3809,-0.744,-9.6902,-1.3102,1.5431,0.0241,-0.433,8.99,36.46,-4.24,68.98,80.94,144.41,0.0,66.357,35.177982,126.90892,,155.2123099472088,,70.703224,,0 / 20,4503,2014-12-14 14:12:53:057
2.2397,-10.2105,-0.5188,-0.6083,-9.7045,-1.2743,1.9316,-0.3276,0.4958,8.24,32.4,-4.74,68.98,80.94,144.41,0.0,66.357,35.177982,126.90892,,155.2123099472088,,70.703224,,0 / 20,4553,2014-12-14 14:12:53:107
-2.569,-9.6549,-0.3847,-0.4256,-9.7279,-1.1654,-1.7415,0.2376,0.9028,8.62,32.71,-0.86,60.32,82.58,166.84,0.0,66.357,35.177982,126.90892,,155.2123099472088,,70.703224,,0 / 20,4603,2014-12-14 14:12:53:157
-1.5728,-9.6166,-1.2085,-0.5435,-9.7235,-1.1528,-1.6597,0.3602,0.2142,10.12,34.59,-1.3,78.64,82.73,159.94,0.0,69.633,35.177982,126.90892,,155.2123099472088,,70.703224,,0 / 20,4653,2014-12-14 14:12:53:207
0.7454,-10.6894,-1.3234,-0.2781,-9.735,-1.1499,0.9829,-0.5824,-0.007,10.49,34.21,-0.74,78.64,82.73,159.94,0.0,69.633,35.177982,126.90892,,155.2123099472088,,70.703224,,0 / 20,4703,2014-12-14 14:12:53:257
0.1132,-11.6282,-0.787,-0.2427,-9.7379,-1.1336,0.489,-0.6677,0.1599,12.68,37.15,-0.74,75.09,83.07,166.4,0.0,69.633,35.177982,126.90892,,155.2123099472088,,70.703224,,0 / 20,4753,2014-12-14 14:12:53:307
5.3817,-14.9234,3.4278,0.7448,-9.7591,-0.6127,3.0335,-3.7093,4.8859,10.12,34.59,-1.74,52.32,83.81,-170.56,0.0,69.633,35.177982,126.90892,,155.2123099472088,,70.703224,,0 / 20,4803,2014-12-14 14:12:53:357
-1.4578,-12.2796,1.3396,0.6608,-9.7793,-0.3151,-1.2032,-2.2874,4.6734,7.49,33.84,-5.11,352.22,85.72,-115.49,0.0,69.633,35.177982,126.90892,,155.2123099472088,,70.703224,,0 / 20,4853,2014-12-14 14:12:53:407
-3.9675,-14.4253,-2.7795,0.0698,-9.7757,-0.7754,-3.7397,-3.0436,-1.9746,6.43,39.4,-8.17,352.22,85.72,-115.49,0.0,69.633,35.177982,126.90892,,155.2123099472088,,70.703224,,0 / 20,4903,2014-12-14 14:12:53:457
-2.7606,-15.1341,-1.4958,-0.1223,-9.7734,-0.7973,-3.2334,-3.8916,-0.6836,0.49,33.46,-12.74,13.14,85.45,-174.86,0.0,69.753,35.177982,126.90892,,155.2123099472088,,70.703224,,0 / 20,4953,2014-12-14 14:12:53:507
-2.0134,-10.153,-4.0056,-0.5786,-9.7117,-1.2324,-1.2684,1.9698,-2.4214,-2.07,30.53,-16.24,16.14,83.97,156.45,0.0,69.753,35.177982,126.90892,,155.2123099472088,,70.703224,,0 / 20,5022,2014-12-14 14:12:53:576
-2.5881,-6.9919,-3.7757,-0.5786,-9.7117,-1.2324,-1.2684,1.9698,-2.4214,-2.07,30.53,-16.24,16.14,83.97,156.45,0.0,69.753,35.177982,126.90892,,155.2123099472088,,70.703224,,0 / 20,5053,2014-12-14 14:12:53:607
-3.7185,-3.9265,-4.3313,-1.1208,-9.5618,-1.8671,-2.3155,5.7599,-1.9124,-2.07,29.78,-18.42,18.14,82.02,154.85,0.0,69.753,35.177982,126.90892,,155.2123099472088,,70.703224,,0 / 20,5103,2014-12-14 14:12:53:657
-4.5806,-2.413,-5.1359,-1.572,-9.3907,-2.3482,-2.8244,7.0784,-2.6035,-0.95,26.84,-18.42,21.32,77.17,149.02,0.0,69.753,35.177982,126.90892,,155.2123099472088,,70.703224,,0 / 20,5154,2014-12-14 14:12:53:708
-4.4848,-1.6275,-5.1359,-2.122,-9.1073,-2.9537,-2.5975,7.033,-2.4941,-0.63,26.84,-18.42,21.32,77.17,149.02,0.0,69.753,35.177982,126.90892,,155.2123099472088,,70.703224,,0 / 20,5203,2014-12-14 14:12:53:757
19.8462,-23.8129,27.6056,-2.0058,-9.4257,-1.8174,7.0503,-6.0812,12.2219,1.99,30.53,-21.49,21.58,68.23,144.31,0.0,69.753,35.177982,126.90892,,155.2123099472088,,70.703224,,0 / 20,5253,2014-12-14 14:12:53:807
0.4772,-13.1992,9.8842,-0.1852,-9.7321,1.1928,5.1493,-7.355,14.6855,1.62,29.03,-17.99,38.9,73.98,132.18,0.0,66.851,35.177982,126.90892,,155.2123099472088,,70.703224,,0 / 20,5304,2014-12-14 14:12:53:858
-9.1978,-21.4947,10.708,-0.4071,-9.715,1.2741,-5.3003,-0.3354,-6.1209,3.43,26.46,-16.24,170.82,82.16,17.72,0.0,66.851,35.177982,126.90892,,155.2123099472088,,70.703224,,0 / 20,5353,2014-12-14 14:12:53:907
5.0943,-8.1222,-7.6457,-0.7299,-9.7663,0.507,4.3216,2.6441,-8.8976,4.55,27.96,-14.92,170.82,82.16,17.72,0.0,66.851,35.177982,126.90892,,155.2123099472088,,70.703224,,0 / 20,5403,2014-12-14 14:12:53:957
2.9677,-14.2146,-1.7449,-1.5306,-9.6401,-0.9462,-4.6947,5.4035,-7.3091,3.12,28.65,-14.92,128.2,84.8,55.21,0.0,66.851,35.177982,126.90892,,155.2123099472088,,70.703224,,0 / 20,5453,2014-12-14 14:12:54:007
1.3776,-10.1721,-2.4346,-0.9908,-9.7012,-1.0374,4.7191,-2.7597,-0.0302,4.55,30.53,-12.55,128.2,84.8,55.21,0.0,66.851,35.177982,126.90892,,155.2123099472088,,70.703224,,0 / 20,5504,2014-12-14 14:12:54:058
-1.5153,-9.4441,-0.6337,-0.8331,-9.6923,-1.2393,0.065,0.9676,-0.344,6.43,29.78,-9.67,47.97,81.4,145.44,0.0,66.851,35.177982,126.90892,,155.2123099472088,,70.703224,,0 / 20,5553,2014-12-14 14:12:54:107
-0.7106,-9.7315,-0.4038,-0.9235,-9.6974,-1.1306,-0.5419,0.3004,1.0455,7.18,29.4,-8.36,55.28,81.24,146.09,0.0,66.851,35.177982,126.90892,,155.2123099472088,,70.703224,,0 / 20,5603,2014-12-14 14:12:54:157
1.9524,-9.7698,-0.9594,-0.6513,-9.7018,-1.273,1.8487,0.1009,-1.028,7.18,30.9,-4.8,60.29,81.61,147.01,0.0,69.32,35.177982,126.90892,,155.2123099472088,,70.703224,,0 / 20,5653,2014-12-14 14:12:54:207
-0.3275,-8.8311,-1.879,-0.4155,-9.7162,-1.2619,1.134,0.8074,0.0845,8.62,31.65,-3.61,60.29,81.61,147.01,0.0,69.32,35.177982,126.90892,,155.2123099472088,,70.703224,,0 / 20,5703,2014-12-14 14:12:54:257
-0.2317,-9.8081,-0.8062,-0.6801,-9.7019,-1.2577,-1.265,0.1679,0.5824,9.37,29.4,-1.3,70.25,82.21,161.78,0.0,69.32,35.177982,126.90892,,155.2123099472088,,70.703224,,0 / 20,5753,2014-12-14 14:12:54:307
0.209,-9.2525,-1.7641,-0.6119,-9.711,-1.2219,0.6161,0.4083,0.1633,8.99,30.15,-0.42,89.0,81.62,151.6,0.0,69.32,35.177982,126.90892,,155.2123099472088,,70.703224,,0 / 20,5803,2014-12-14 14:12:54:357
2.1248,-9.1376,-1.6683,-0.5132,-9.7133,-1.2488,0.1117,0.3664,0.4534,10.87,30.15,-1.43,84.42,81.92,157.86,0.0,69.32,35.177982,126.90892,,155.2123099472088,,70.703224,,0 / 20,5853,2014-12-14 14:12:54:407
6.0905,-12.1071,0.1901,0.0655,-9.7312,-1.2128,5.4088,-1.3368,0.6781,10.87,31.65,0.33,84.42,81.92,157.86,0.0,69.32,35.177982,126.90892,,155.2123099472088,,70.703224,,0 / 20,5903,2014-12-14 14:12:54:457
-5.3086,-12.1646,-4.0247,0.0783,-9.7701,-0.8427,-4.9298,-2.289,0.237,10.49,29.03,-2.17,62.37,82.89,-176.91,0.0,69.32,35.177982,126.90892,,155.2123099472088,,70.703224,,0 / 20,5956,2014-12-14 14:12:54:510
-4.0633,-11.2259,-4.542,-0.6983,-9.6495,-1.6029,-2.8088,-0.7051,-2.7595,11.55,29.78,-2.74,60.25,85.05,-174.69,0.0,65.752,35.177982,126.90892,,155.2123099472088,,70.703224,,0 / 20,6003,2014-12-14 14:12:54:557
-3.5652,-10.8044,-4.0439,-0.8721,-9.6123,-1.7357,-2.747,-0.3049,-2.1955,10.12,33.09,-3.42,65.79,79.73,156.46,0.0,65.752,35.177982,126.90892,,155.2123099472088,,70.703224,,0 / 20,6055,2014-12-14 14:12:54:609
-3.2587,-9.5016,-1.5533,-1.0576,-9.5808,-1.8057,-1.6811,0.6432,0.2488,10.87,35.34,-5.99,60.47,77.68,149.64,0.0,65.752,35.177982,126.90892,,155.2123099472088,,70.703224,,0 / 20,6103,2014-12-14 14:12:54:657
-3.0288,-8.5437,-1.9365,-1.323,-9.5457,-1.8165,-1.6588,1.8024,0.0612,8.99,33.46,-9.49,60.47,77.68,149.64,0.0,65.752,35.177982,126.90892,,155.2123099472088,,70.703224,,0 / 20,6153,2014-12-14 14:12:54:707
-0.5957,-8.4287,-4.1205,-1.3295,-9.4993,-2.0412,0.6835,1.7305,-1.8473,8.24,34.59,-8.36,48.96,76.75,143.93,0.0,65.752,35.177982,126.90892,,155.2123099472088,,70.703224,,0 / 20,6203,2014-12-14 14:12:54:757
-0.4807,-7.4708,-0.672,-1.4131,-9.4892,-2.032,0.0715,2.0254,1.3103,7.87,35.34,-9.49,48.96,76.75,143.93,0.0,65.752,35.177982,126.90892,,155.2123099472088,,70.703224,,0 / 20,6253,2014-12-14 14:12:54:807
-1.5536,-7.6816,-1.0361,-1.3961,-9.5095,-1.947,0.0829,1.8163,0.8954,8.24,34.59,-8.36,48.69,75.38,145.19,0.0,65.752,35.177982,126.90892,,155.2123099472088,,70.703224,,0 / 20,6303,2014-12-14 14:12:54:857
-2.3583,-7.0877,-1.8024,-1.5232,-9.497,-1.9123,-0.4606,2.0678,0.1465,8.24,34.96,-8.24,48.47,75.86,142.26,0.0,69.083,35.177982,126.90892,,155.2123099472088,,70.703224,,0 / 20,6353,2014-12-14 14:12:54:907
-0.5382,-14.4636,1.4162,-1.4186,-9.5399,-1.7742,1.3599,-2.7207,1.252,8.99,34.21,-7.3,55.87,76.61,141.36,0.0,69.083,35.177982,126.90892,,155.2123099472088,,70.703224,,0 / 20,6404,2014-12-14 14:12:54:958
-1.3429,-7.8157,-1.4192,-1.3755,-9.6628,-0.9535,-0.6797,-3.2377,5.9936,8.99,32.4,-5.17,55.87,76.61,141.36,0.0,69.083,35.177982,126.90892,,155.2123099472088,,70.703224,,0 / 20,6453,2014-12-14 14:12:55:007
2.2206,-10.3063,0.784,-1.2063,-9.7081,-0.6837,3.2977,-0.6292,1.3778,9.37,33.46,-5.55,84.24,80.17,124.73,0.0,69.083,35.177982,126.90892,,155.2123099472088,,70.703224,,0 / 20,6503,2014-12-14 14:12:55:057
0.5155,-9.9231,1.148,-0.8737,-9.7615,-0.3466,1.7507,-1.0814,2.1901,8.62,33.46,-5.36,94.19,81.87,119.54,0.0,69.083,35.177982,126.90892,,155.2123099472088,,70.703224,,0 / 20,6553,2014-12-14 14:12:55:107
-0.0784,-9.789,0.7265,-0.672,-9.7815,-0.2046,0.7325,0.0876,0.7225,9.74,32.71,-7.11,109.05,84.5,111.64,0.0,69.083,35.177982,126.90892,,155.2123099472088,,70.703224,,0 / 20,6603,2014-12-14 14:12:55:157
-0.3466,-10.2679,0.6116,-0.6316,-9.7853,-0.1375,0.1615,-0.3959,0.6094,9.37,33.84,-7.61,109.05,84.5,111.64,0.0,61.021,35.177982,126.90892,,155.2123099472088,,70.703224,,0 / 20,6653,2014-12-14 14:12:55:207
-0.8448,-9.425,-0.8445,-0.6225,-9.7858,-0.1466,-0.0902,0.3711,-0.3995,8.62,33.09,-5.61,124.41,86.22,102.28,0.0,61.021,35.177982,126.90892,,155.2123099472088,,70.703224,,0 / 20,6703,2014-12-14 14:12:55:257
-0.5574,-9.7315,-0.8636,-0.6345,-9.7822,-0.2759,0.0649,0.0427,-0.4696,8.62,33.09,-5.24,115.6,85.95,113.5,0.0,61.021,35.177982,126.90892,,155.2123099472088,,70.703224,,0 / 20,6753,2014-12-14 14:12:55:307
-0.0593,-9.8273,-0.0015,-0.6268,-9.7829,-0.2695,0.1566,-0.0088,0.2362,9.74,34.96,-6.42,115.6,85.95,113.5,0.0,61.021,35.177982,126.90892,,155.2123099472088,,70.703224,,0 / 20,6804,2014-12-14 14:12:55:358
0.4197,-9.8465,0.056,-0.4791,-9.7927,-0.2096,0.8694,-0.0634,0.2265,10.49,34.96,-6.17,107.12,86.01,113.26,0.0,61.021,35.177982,126.90892,,155.2123099472088,,70.703224,,0 / 20,6853,2014-12-14 14:12:55:407
-0.2125,-9.6357,-0.059,-0.392,-9.7971,-0.185,0.5549,-0.005,0.1486,8.62,33.84,-5.99,113.82,86.94,113.63,0.0,61.021,35.177982,126.90892,,155.2123099472088,,70.703224,,0 / 20,6904,2014-12-14 14:12:55:458
-0.3083,-9.6166,-0.2889,-0.363,-9.7981,-0.1876,-0.0092,0.0839,-0.1103,9.37,32.03,-5.99,113.5,87.64,116.37,0.0,61.021,35.177982,126.90892,,155.2123099472088,,70.703224,,0 / 20,6953,2014-12-14 14:12:55:507
-0.6915,-9.5591,-0.2506,-0.39,-9.7972,-0.1833,-0.226,-0.1098,0.0988,9.37,34.59,-6.24,113.5,87.64,116.37,0.0,61.021,35.177982,126.90892,,155.2123099472088,,70.703224,,0 / 20,7003,2014-12-14 14:12:55:557
-0.1934,-9.5782,-0.3655,-0.3977,-9.7956,-0.2412,0.2061,0.1957,-0.1364,9.74,33.46,-5.36,124.59,87.37,114.15,0.0,58.909,35.177982,126.90892,,155.2123099472088,,70.703224,,0 / 20,7053,2014-12-14 14:12:55:607
0.2664,-9.9806,0.0943,-0.3812,-9.796,-0.2537,0.2322,0.1146,-0.1688,8.24,34.59,-5.8,100.21,87.32,123.64,0.0,58.909,35.177982,126.90892,,155.2123099472088,,70.703224,,0 / 20,7103,2014-12-14 14:12:55:657
0.1132,-9.7315,0.0177,-0.253,-9.8016,-0.1854,0.3759,-0.03,0.2243,8.99,33.46,-4.49,114.09,87.98,125.75,0.0,58.909,35.177982,126.90892,,155.2123099472088,,70.703224,,0 / 20,7153,2014-12-14 14:12:55:707
-0.155,-9.5399,-0.4422,-0.2012,-9.8031,-0.1724,0.2941,0.0752,-0.063,10.12,34.59,-5.36,114.09,87.98,125.75,0.0,58.909,35.177982,126.90892,,155.2123099472088,,70.703224,,0 / 20,7203,2014-12-14 14:12:55:757
0.2473,-9.7124,-0.4996,-0.1589,-9.8024,-0.2414,0.3591,0.0489,-0.3281,9.37,33.46,-6.61,87.63,88.33,139.66,0.0,58.909,35.177982,126.90892,,155.2123099472088,,70.703224,,0 / 20,7253,2014-12-14 14:12:55:807
-0.0401,-9.9422,-1.0744,-0.1114,-9.8014,-0.302,0.3999,-0.0141,-0.5517,9.37,34.96,-3.92,79.7,88.12,159.75,0.0,58.909,35.177982,126.90892,,155.2123099472088,,70.703224,,0 / 20,7303,2014-12-14 14:12:55:857
-0.7298,-9.2717,-0.8062,-0.151,-9.7969,-0.4105,-0.3833,0.2839,-0.4669,7.87,35.71,-5.36,79.7,88.12,159.75,0.0,58.909,35.177982,126.90892,,155.2123099472088,,70.703224,,0 / 20,7353,2014-12-14 14:12:55:907
-0.0784,-10.0764,-0.2314,-0.1639,-9.7949,-0.4519,0.042,0.0282,-0.2042,8.24,34.59,-5.8,65.19,87.44,159.81,0.0,66.855,35.177982,126.90892,,155.2123099472088,,70.703224,,0 / 20,7403,2014-12-14 14:12:55:957
0.2473,-9.6932,-0.0207,-0.1311,-9.7983,-0.3828,0.3807,-0.2135,0.5085,7.18,35.71,-5.55,61.12,87.38,159.29,0.0,66.855,35.177982,126.90892,,155.2123099472088,,70.703224,,0 / 20,7453,2014-12-14 14:12:56:007
0.822,-9.8465,0.2476,-0.0557,-9.8007,-0.3377,0.674,0.0022,0.3075,7.49,35.34,-3.92,61.12,87.38,159.29,0.0,66.855,35.177982,126.90892,,155.2123099472088,,70.703224,,0 / 20,7503,2014-12-14 14:12:56:057
0.458,-9.5016,-0.7104,0.029,-9.8035,-0.245,0.0068,0.0647,-0.5634,7.87,36.09,-5.55,60.36,88.0,170.63,0.0,66.855,35.177982,126.90892,,155.2123099472088,,70.703224,,0 / 20,7553,2014-12-14 14:12:56:107