ACCELEROMETER X (m/s²),ACCELEROMETER Y (m/s²),ACCELEROMETER Z (m/s²),GRAVITY X (m/s²),GRAVITY Y (m/s²),GRAVITY Z (m/s²),LINEAR ACCELERATION X (m/s²),LINEAR ACCELERATION Y (m/s²),LINEAR ACCELERATION Z (m/s²),GYROSCOPE X (rad/s),GYROSCOPE Y (rad/s),GYROSCOPE Z (rad/s),LIGHT (lux),MAGNETIC FIELD X (μT),MAGNETIC FIELD Y (μT),MAGNETIC FIELD Z (μT),ORIENTATION X (°),ORIENTATION Y (°),ORIENTATION Z (°),PROXIMITY (i),SOUND LEVEL (dB),LOCATION Latitude : ,LOCATION Longitude : ,LOCATION Altitude ( m),LOCATION Altitude-google ( m),LOCATION Speed ( Kmh),LOCATION Accuracy ( m),LOCATION ORIENTATION (°),Satellites in range,Time since start in ms ,YYYY-MO-DD HH-MI-SS_SSS
0.85413,-6.12975,3.70742,0.6198,-9.50722,2.32387,0.23433,3.37747,1.38355,-0.88635,-0.06553,-0.01213,87.0,28.98,31.02,-13.74,273.138,75.803,-14.934,1.97,43.7742,,,,NaN,,,,0 / 0,4,2014-12-14 13:43:00:251
0.11911,-7.84879,3.31477,0.52373,-9.61227,1.87107,-0.40462,1.76348,1.4437,-1.06638,0.26896,0.19559,87.0,29.04,30.06,-11.82,274.183,78.572,-15.637,1.97,43.7742,,,,NaN,,,,0 / 0,53,2014-12-14 13:43:00:300
-1.37487,-11.70346,3.34111,0.36512,-9.67332,1.5697,-1.73999,-2.03013,1.77141,-1.51699,0.05059,-0.03983,87.0,29.04,30.06,-11.82,274.183,78.572,-15.637,1.97,46.0625,,,,NaN,,,,0 / 0,104,2014-12-14 13:43:00:351
1.68253,-11.37306,-1.32519,0.21099,-9.79513,0.42647,1.47154,-1.57793,-1.75166,-1.90901,1.19574,0.50985,87.0,30.24,30.24,-9.24,271.887,83.862,-16.242,1.97,46.0625,,,,NaN,,,,0 / 0,153,2014-12-14 13:43:00:400
-1.32938,-10.56621,-10.38485,0.04983,-9.80426,-0.21278,-1.37921,-0.76195,-10.17206,-2.74417,2.86821,0.88269,87.0,30.54,29.94,-7.92,61.306,88.723,-166.82,1.97,46.0625,,,,NaN,,,,0 / 0,204,2014-12-14 13:43:00:451
0.59316,-19.51813,-1.1552,-0.1227,-9.44887,-2.6221,-0.26621,-10.13017,2.52603,-4.58069,-0.30841,-0.71095,87.0,29.94,29.7,-5.46,69.169,74.474,177.321,1.97,46.0625,,,,NaN,,,,0 / 0,254,2014-12-14 13:43:00:501
5.00089,-16.04414,6.88692,0.20815,-8.66866,-4.58071,4.49945,-6.12048,11.46464,-3.43873,1.01252,0.07948,51.0,29.82,29.1,-2.76,69.169,74.474,177.321,1.97,46.0625,,,,NaN,,,,0 / 0,303,2014-12-14 13:43:00:550
-10.49438,-8.97167,13.83011,1.18827,-8.40829,-4.90527,-8.55329,-0.85039,17.68896,-0.30898,2.40695,-0.72053,51.0,30.12,26.52,5.22,68.136,62.123,-177.398,1.97,46.0625,,,,NaN,,,,0 / 0,354,2014-12-14 13:43:00:601
-5.89512,-8.45213,11.91475,1.43921,-8.53787,-4.6051,-6.56969,3.82294,14.78689,0.95016,1.37471,-0.27738,51.0,30.42,25.5,9.24,69.109,59.025,-166.383,1.97,46.0625,,,,NaN,,,,0 / 0,403,2014-12-14 13:43:00:650
-11.99076,-11.53107,1.66996,1.37711,-8.92439,-3.82504,-10.20199,-5.23926,4.47656,2.16989,-0.96142,0.137,45.0,27.0,21.48,18.0,87.062,65.509,-160.2,1.97,66.4775,,,,NaN,,,,0 / 0,454,2014-12-14 13:43:00:701
-4.00849,-18.11752,0.51356,0.84949,-9.33424,-2.88456,-4.85798,-8.78328,3.39812,3.33103,-4.04642,0.73462,45.0,25.74,21.42,19.5,87.062,65.509,-160.2,1.97,66.4775,,,,NaN,,,,0 / 0,504,2014-12-14 13:43:00:751
-0.21368,-19.51813,-2.0243,0.28282,-9.79453,0.39968,-0.4965,-9.7236,-2.42398,6.32016,-0.88578,-0.49044,45.0,23.76,23.46,20.34,115.177,79.28,-171.456,1.97,66.4775,,,,NaN,,,,0 / 0,554,2014-12-14 13:43:00:801
5.67845,-19.51813,-4.29639,0.20171,-9.55376,2.20386,5.47674,-9.96437,-6.50026,6.43201,0.99654,0.78575,45.0,24.18,25.68,18.3,318.838,76.958,-5.23,1.97,66.4775,,,,NaN,,,,0 / 0,603,2014-12-14 13:43:00:850
3.19806,-12.58931,-7.82305,-0.39594,-8.30833,5.19467,3.594,-4.28098,-13.01772,4.70203,-1.14997,1.16072,93.0,26.7,31.08,6.3,305.873,57.91,4.359,1.97,66.4775,,,,NaN,,,,0 / 0,654,2014-12-14 13:43:00:901
-2.44029,7.32326,-13.32253,0.12809,-7.21089,6.64511,-2.56838,14.53415,-19.96764,2.35525,-1.29484,0.0145,93.0,26.94,33.42,-1.74,305.873,57.91,4.359,1.97,66.4775,,,,NaN,,,,0 / 0,704,2014-12-14 13:43:00:951
4.82851,5.45579,-14.16529,0.621,-7.31518,6.50175,4.20751,12.77097,-20.66705,-1.51486,-1.58779,-0.15594,93.0,25.68,28.32,-15.84,295.583,47.333,-1.104,1.97,66.4775,,,,NaN,,,,0 / 0,754,2014-12-14 13:43:01:001
0.13827,-3.53683,13.35605,0.65451,-8.11141,5.4724,-0.51625,4.57457,7.88366,-2.49277,0.87723,-0.43504,93.0,24.42,23.4,-20.04,272.623,51.638,-7.577,1.97,63.9849,,,,NaN,,,,0 / 0,804,2014-12-14 13:43:01:051
5.41269,1.4862,-5.2445,0.36811,-8.39542,5.05491,3.83072,10.67171,-16.59855,-0.91085,-0.1923,0.06776,93.0,20.4,19.32,-25.2,244.71,58.881,-4.165,1.97,63.9849,,,,NaN,,,,0 / 0,854,2014-12-14 13:43:01:101
17.24484,-19.51813,-19.40141,-0.14515,-8.63559,4.6452,4.49227,-4.53192,-16.08948,-0.92364,0.11131,-1.21162,93.0,19.14,20.52,-24.18,244.71,58.881,-4.165,1.97,63.9849,,,,NaN,,,,0 / 0,904,2014-12-14 13:43:01:151
1.77111,-5.25827,-19.40141,0.16266,-8.80902,4.30642,-1.6119,8.17889,-23.46886,-2.51621,1.053,-0.74929,93.0,19.08,21.48,-22.38,241.51,61.712,1.79,1.97,63.9849,,,,NaN,,,,0 / 0,954,2014-12-14 13:43:01:201
-4.42029,-19.51813,-5.52223,0.32516,-9.51426,2.3544,-2.54788,-9.83763,-5.4929,-4.49866,-0.50016,-1.29471,93.0,19.26,21.9,-18.72,248.178,67.601,-3.545,1.97,63.9849,,,,NaN,,,,0 / 0,1003,2014-12-14 13:43:01:250
-6.91505,-19.51813,0.77213,0.70285,-9.7661,0.54782,-7.6179,-9.75203,0.22431,-4.7735,-0.46181,-0.42439,77.0,18.9,22.8,-16.62,248.178,67.601,-3.545,1.97,63.9849,,,,NaN,,,,0 / 0,1054,2014-12-14 13:43:01:301
7.98646,-8.49762,12.05121,0.64718,-9.56005,-2.08804,4.96692,2.56554,12.70334,-2.54817,1.58776,-0.17831,77.0,17.88,24.54,-9.66,9.119,83.448,-136.019,1.97,61.5917,,,,NaN,,,,0 / 0,1104,2014-12-14 13:43:01:351
-13.98274,-0.36452,7.65785,1.08308,-9.29788,-2.92377,-9.01177,6.17599,9.05607,-1.69808,1.80721,-0.6172,77.0,17.4,25.86,-6.06,39.215,74.19,-162.184,1.97,61.5917,,,,NaN,,,,0 / 0,1154,2014-12-14 13:43:01:401
3.71999,-3.81935,12.0584,0.62339,-9.23713,-3.23397,-5.01017,2.98033,18.46453,0.87027,-1.92122,0.6217,63.0,17.4,26.88,1.14,56.501,70.376,-169.089,1.97,61.5917,,,,NaN,,,,0 / 0,1204,2014-12-14 13:43:01:451
12.08533,-1.45148,7.41604,0.49216,-9.32721,-2.98871,11.59317,7.87573,10.40475,1.61808,0.08041,0.37775,63.0,17.22,26.7,3.48,56.501,70.376,-169.089,1.97,61.5917,,,,NaN,,,,0 / 0,1253,2014-12-14 13:43:01:500
4.11982,-8.36355,3.28844,0.70015,-9.578,-1.98614,3.41967,1.21446,5.27458,2.55126,0.79307,-0.57779,63.0,16.8,25.56,6.24,72.811,77.6,-160.581,1.97,61.5917,,,,NaN,,,,0 / 0,1304,2014-12-14 13:43:01:551
-2.9742,-19.51813,3.94684,0.13093,-9.8044,0.16445,-3.10513,-9.71372,3.78239,4.38777,-1.17873,0.94874,63.0,16.38,24.6,5.34,326.875,88.772,-38.526,1.97,61.5917,,,,NaN,,,,0 / 0,1353,2014-12-14 13:43:01:600
1.29466,-19.51813,-10.30823,0.11283,-9.09572,3.66418,1.18184,-10.42241,-13.97241,5.6352,-0.03357,1.4803,63.0,15.72,24.9,0.48,301.505,68.049,-1.764,1.97,61.5917,,,,NaN,,,,0 / 0,1403,2014-12-14 13:43:01:650
-0.48423,-10.07779,-7.36576,-0.30376,-8.40335,5.04608,-0.18046,-1.67444,-12.41184,3.39281,-2.51564,1.7594,91.0,15.36,23.4,-1.98,301.505,68.049,-1.764,1.97,68.2957,,,,NaN,,,,0 / 0,1453,2014-12-14 13:43:01:700
-1.21925,0.79428,-10.14304,0.35,-7.61715,6.16657,-1.27297,8.60895,-16.06749,2.17415,-2.58062,0.04113,91.0,14.82,22.86,-5.4,301.723,54.154,0.92,1.97,68.2957,,,,NaN,,,,0 / 0,1504,2014-12-14 13:43:01:751
4.73753,9.27693,-9.64504,0.71108,-7.73402,5.98745,4.02645,17.01095,-15.63249,-1.88877,-0.6674,0.3181,91.0,16.2,22.86,-11.94,289.806,52.06,-6.773,1.97,68.2957,,,,NaN,,,,0 / 0,1553,2014-12-14 13:43:01:800
1.07679,0.66738,3.53983,0.67247,-8.28065,5.21038,0.23194,7.70065,1.20249,-2.5439,0.645,0.00278,91.0,17.1,22.38,-15.96,289.806,52.06,-6.773,1.97,68.2957,,,,NaN,,,,0 / 0,1604,2014-12-14 13:43:01:851
8.24743,-8.05709,13.73194,0.46014,-8.39557,5.04713,7.89264,4.37271,-6.71469,0.20874,0.36803,0.2414,143.0,16.98,22.74,-20.16,257.429,59.668,-5.388,1.97,68.2957,,,,NaN,,,,0 / 0,1653,2014-12-14 13:43:01:900
19.58397,-19.51813,-19.40141,0.07153,-8.53503,4.82911,19.51245,-10.9831,-24.23052,-3.13086,1.40454,0.22223,143.0,16.62,25.38,-20.82,255.111,58.882,-5.209,1.97,68.2957,,,,NaN,,,,0 / 0,1704,2014-12-14 13:43:01:951
-0.25438,2.48219,-19.40141,0.4531,-8.56496,4.75459,-0.70749,11.04715,-24.156,-0.60086,1.76566,-0.08137,143.0,17.4,27.18,-19.74,261.447,60.854,-5.444,1.97,68.2957,,,,NaN,,,,0 / 0,1754,2014-12-14 13:43:02:001
0.04968,-19.51813,-5.78798,0.32112,-9.50842,2.37879,-0.27144,-10.00971,-8.16677,-4.20572,1.2799,-0.71521,181.0,18.72,29.76,-18.12,250.578,75.832,-7.688,1.97,60.0748,,,,NaN,,,,0 / 0,1803,2014-12-14 13:43:02:050
0.37769,-19.51813,5.88615,0.72215,-9.74126,0.86999,-0.34447,-9.77687,5.01615,-3.60171,-1.3055,-0.53944,181.0,18.72,30.72,-16.8,250.578,75.832,-7.688,1.97,60.0748,,,,NaN,,,,0 / 0,1854,2014-12-14 13:43:02:101
6.56909,-9.81683,11.27789,0.72918,-9.72704,-1.0117,3.81187,2.44687,11.6038,-2.42246,2.5465,-0.15168,181.0,19.32,32.34,-13.14,340.12,85.019,-102.216,1.97,60.0748,,,,NaN,,,,0 / 0,1903,2014-12-14 13:43:02:150
-3.26868,-3.51768,9.13508,0.90202,-9.64354,-1.53603,-4.1707,6.12586,10.67111,-1.90901,1.8136,-0.7184,107.0,18.3,36.24,-1.56,40.152,79.535,-149.577,1.97,60.0748,,,,NaN,,,,0 / 0,1954,2014-12-14 13:43:02:201
2.44149,-2.88801,11.86686,1.25845,-9.52772,-1.95202,2.24845,6.70197,13.29934,0.95229,0.54593,0.13168,107.0,17.94,36.66,1.32,40.152,79.535,-149.577,1.97,60.0748,,,,NaN,,,,0 / 0,2004,2014-12-14 13:43:02:251
2.84611,-1.98539,4.38498,1.43039,-9.62379,-1.22778,2.68225,8.09809,6.53213,1.71502,0.44154,-0.02065,107.0,19.32,36.84,9.72,54.193,76.301,-147.19,1.97,60.0748,,,,NaN,,,,0 / 0,2054,2014-12-14 13:43:02:301
-1.18333,-7.43699,3.8008,1.4027,-9.70579,0.03876,-10.5065,-9.8077,2.27389,2.66524,0.41597,0.51091,101.0,19.08,38.1,10.68,23.111,81.773,-88.417,1.97,60.0748,,,,NaN,,,,0 / 0,2103,2014-12-14 13:43:02:350
-2.88801,-19.51813,3.45124,0.56832,-9.57127,2.05916,0.97504,-10.00208,-5.64164,4.00854,-1.64212,1.91919,101.0,19.62,39.48,10.26,23.111,81.773,-88.417,1.97,56.7597,,,,NaN,,,,0 / 0,2154,2014-12-14 13:43:02:401
1.53887,-19.51813,-2.49596,0.65362,-9.10066,3.59459,2.88232,-10.52371,-7.64768,5.97395,0.45326,-0.63744,101.0,21.18,40.08,6.78,318.467,77.419,-15.429,1.97,56.7597,,,,NaN,,,,0 / 0,2204,2014-12-14 13:43:02:451
0.47824,-6.34763,-6.45596,0.33639,-7.743,6.00855,0.14186,1.39537,-12.46451,2.57789,-2.27915,1.39615,101.0,22.98,39.9,2.46,312.694,68.127,-10.306,1.97,56.7597,,,,NaN,,,,0 / 0,2253,2014-12-14 13:43:02:500
-0.22326,-2.63422,-8.31626,0.40477,-7.53934,6.25814,-0.37095,7.09806,-14.83328,1.40823,-1.66769,0.25205,145.0,28.08,27.06,-12.72,286.787,50.246,-3.701,1.97,56.7597,,,,NaN,,,,0 / 0,2304,2014-12-14 13:43:02:551
1.58436,4.21559,-7.29633,0.77647,-7.20625,6.6059,0.80789,11.42184,-13.90223,0.53897,-1.52707,-0.09522,145.0,27.84,24.0,-14.88,286.787,50.246,-3.701,1.97,56.7597,,,,NaN,,,,0 / 0,2354,2014-12-14 13:43:02:601
-1.6119,2.51571,1.86389,1.23675,-7.68224,5.9686,-2.84865,10.19795,-4.10471,-2.01766,0.51078,-0.05794,145.0,24.78,15.54,-21.6,276.641,48.069,-9.427,1.97,56.7597,,,,NaN,,,,0 / 0,2404,2014-12-14 13:43:02:651
3.02567,-7.05631,19.82459,0.95439,-7.93902,5.67725,2.07128,0.88271,14.14734,-0.56784,1.8871,0.38521,247.0,23.82,15.06,-23.04,257.018,54.053,-9.543,1.97,56.7597,,,,NaN,,,,0 / 0,2454,2014-12-14 13:43:02:701
13.81395,-19.51813,-19.40141,0.91698,-8.11993,5.42182,4.26587,-11.39819,-24.82323,-2.01021,-1.19684,-1.29365,247.0,21.78,15.24,-22.38,255.598,55.894,-9.599,1.97,61.3982,,,,NaN,,,,0 / 0,2504,2014-12-14 13:43:02:751
-5.08349,4.44065,-19.40141,0.60513,-8.47817,4.8915,-6.70227,9.95883,-24.78896,-0.07249,2.87354,-0.09522,247.0,21.3,15.18,-20.88,255.598,55.894,-9.599,1.97,61.3982,,,,NaN,,,,0 / 0,2554,2014-12-14 13:43:02:801
1.45747,-19.51813,-7.3897,1.14024,-9.4357,2.41665,0.57895,-10.21935,-10.37827,-3.75085,-1.90098,-1.39058,253.0,20.28,15.12,-19.02,250.953,69.527,-12.32,1.97,61.3982,,,,NaN,,,,0 / 0,2603,2014-12-14 13:43:02:850
0.91399,-19.51813,6.30992,1.36859,-9.619,1.33177,-0.51595,-9.85079,5.4917,-3.63154,-0.48737,-0.32212,253.0,19.8,14.46,-15.84,282.942,78.771,-45.781,1.97,61.3982,,,,NaN,,,,0 / 0,2654,2014-12-14 13:43:02:901
6.80372,-15.59882,14.68484,1.3641,-9.70445,-0.36646,5.46028,-5.88525,14.8035,-1.92499,2.76275,-0.23903,253.0,19.92,15.12,-12.96,282.942,78.771,-45.781,1.97,61.3982,,,,NaN,,,,0 / 0,2703,2014-12-14 13:43:02:950
-14.89253,-3.48177,8.62032,1.66771,-9.64758,-0.56174,-16.56024,6.16582,9.18206,-0.60512,-0.35102,-0.63851,157.0,17.52,17.82,-9.78,350.235,81.064,-109.32,1.97,61.3982,,,,NaN,,,,0 / 0,2754,2014-12-14 13:43:03:001
-3.46261,-2.87364,14.23951,1.7768,-9.61975,-0.68938,-5.23941,6.74611,14.9289,0.67319,-0.71001,0.01876,157.0,16.8,19.5,-8.1,354.393,79.663,-108.615,1.97,61.3982,,,,NaN,,,,0 / 0,2803,2014-12-14 13:43:03:050
2.17334,-1.14503,4.49272,1.93601,-9.6,0.51415,0.23733,8.45497,3.97856,1.92914,0.46071,-0.00254,157.0,16.62,20.52,-3.18,358.646,79.254,-98.371,1.97,68.0674,,,,NaN,,,,0 / 0,2854,2014-12-14 13:43:03:101
-8.342,-11.98837,3.39378,1.83605,-9.56035,1.18378,-10.17805,-2.42802,2.21,2.24766,0.99761,0.36178,157.0,15.54,19.56,-1.62,358.646,79.254,-98.371,1.97,68.0674,,,,NaN,,,,0 / 0,2904,2014-12-14 13:43:03:151
0.81822,-19.51813,-3.12563,0.40193,-9.17772,3.43224,0.41629,-10.34041,-6.55787,3.48017,-1.23412,3.44572,185.0,14.22,18.0,-1.08,311.276,76.213,-32.693,1.97,68.0674,,,,NaN,,,,0 / 0,2953,2014-12-14 13:43:03:200
5.68324,-18.51735,-10.48301,0.53451,-8.02686,5.60857,5.14873,-10.49049,-16.09158,4.60828,-1.24158,0.45126,185.0,14.22,16.68,0.48,304.061,62.4,-7.026,1.97,68.0674,,,,NaN,,,,0 / 0,3004,2014-12-14 13:43:03:251
2.5588,-6.08666,-7.25084,0.69402,-7.42966,6.36304,1.95457,-0.67292,-12.29916,2.05271,-3.05146,0.85073,185.0,16.02,15.12,3.0,310.622,49.255,-6.225,1.97,68.0674,,,,NaN,,,,0 / 0,3054,2014-12-14 13:43:03:301
2.8078,2.24756,-8.36893,1.39163,-7.10674,6.61264,1.41617,9.3543,-14.98157,0.54749,-2.57529,0.04113,391.0,16.56,18.36,2.52,310.622,49.255,-6.225,1.97,68.0674,,,,NaN,,,,0 / 0,3103,2014-12-14 13:43:03:350
7.48128,5.96815,-9.09677,1.54725,-7.22121,6.45207,5.93403,13.18936,-15.54884,-1.29541,0.84527,-0.0899,391.0,16.74,22.86,-0.12,317.861,46.443,-11.884,1.97,64.354,,,,NaN,,,,0 / 0,3154,2014-12-14 13:43:03:401
-4.26946,-3.16094,10.0736,1.50161,-8.02686,5.4299,-5.77107,4.86592,4.6437,-1.77052,-0.86022,-0.00894,391.0,17.22,28.56,-10.08,303.229,54.937,-15.459,1.97,64.354,,,,NaN,,,,0 / 0,3204,2014-12-14 13:43:03:451
3.54521,-7.40108,15.56351,1.22643,-7.9483,5.61171,2.31878,0.54722,9.9518,0.59117,0.97843,0.45871,391.0,16.02,30.66,-14.82,303.229,54.937,-15.459,1.97,64.354,,,,NaN,,,,0 / 0,3254,2014-12-14 13:43:03:501
-2.53366,-19.51813,19.82459,0.88271,-7.9673,5.64927,-3.41638,-11.55083,14.17532,1.31555,4.51511,0.83262,707.0,16.62,34.86,-14.76,297.84,52.876,-11.542,1.97,64.354,,,,NaN,,,,0 / 0,3304,2014-12-14 13:43:03:551
-0.49859,-11.75134,-12.18768,0.91459,-8.07804,5.48452,-1.41318,-3.6733,-17.6722,-0.37609,0.73662,-0.94956,707.0,17.76,36.24,-15.0,297.802,55.46,-9.467,1.97,64.354,,,,NaN,,,,0 / 0,3353,2014-12-14 13:43:03:600
-0.84575,-19.51813,-1.15999,0.74579,-8.70966,4.44484,-1.59155,-10.80847,-5.60483,-4.8257,0.69187,-1.32986,707.0,19.8,38.16,-17.64,281.545,62.64,-9.525,1.97,64.354,,,,NaN,,,,0 / 0,3404,2014-12-14 13:43:03:651
-0.56563,-19.51813,5.43843,1.29975,-9.56918,1.70677,-1.86538,-9.94896,3.73166,-4.20465,-1.01255,-0.80362,583.0,20.64,38.94,-18.06,281.545,62.64,-9.525,1.97,64.354,,,,NaN,,,,0 / 0,3453,2014-12-14 13:43:03:700
4.74231,-8.97407,13.8325,1.2408,-9.7248,-0.24541,4.89854,-9.79588,18.44284,-2.86881,1.84449,0.38415,583.0,22.56,42.36,-15.36,285.321,77.364,-37.29,1.97,64.354,,,,NaN,,,,0 / 0,3504,2014-12-14 13:43:03:751
-6.11778,-1.99976,6.11599,1.46241,-9.68724,-0.43619,1.98045,2.05063,12.46721,-1.811,2.95556,-0.40202,583.0,22.2,44.28,-10.74,347.406,82.59,-101.188,1.97,65.9551,,,,NaN,,,,0 / 0,3554,2014-12-14 13:43:03:801
-11.62684,1.26833,6.33147,1.63374,-9.65043,-0.60917,-13.26059,10.91876,6.94064,-0.82031,-0.58538,-0.62999,311.0,20.7,45.12,-1.62,11.02,79.758,-110.449,1.97,65.9551,,,,NaN,,,,0 / 0,3603,2014-12-14 13:43:03:850
9.30806,-0.33818,3.72897,1.70467,-9.65716,-0.06375,7.57331,9.03796,2.73493,0.25987,-0.47885,0.31171,311.0,19.68,44.46,4.74,11.02,79.758,-110.449,1.97,65.9551,,,,NaN,,,,0 / 0,3654,2014-12-14 13:43:03:901
-0.44831,-4.6645,3.57813,1.91551,-9.60599,0.47615,-2.36383,4.94148,3.10199,1.37733,1.08709,0.02728,311.0,17.76,43.56,7.86,19.069,79.982,-92.142,1.97,65.9551,,,,NaN,,,,0 / 0,3703,2014-12-14 13:43:03:950
-11.78965,-19.51813,-0.58059,0.73098,-9.63442,1.67789,-7.58139,-9.88371,0.58583,2.19972,-1.53027,3.31149,363.0,19.62,41.28,4.62,320.757,79.244,-23.541,1.97,65.9551,,,,NaN,,,,0 / 0,3754,2014-12-14 13:43:04:001
8.14687,-19.51813,-3.41533,0.94631,-8.93187,3.93667,8.44076,-10.58626,-4.62739,4.67859,-0.98698,-0.55329,363.0,20.22,39.9,2.7,320.757,79.244,-23.541,1.97,65.9551,,,,NaN,,,,0 / 0,3804,2014-12-14 13:43:04:051
14.08689,-19.51813,-7.70334,0.91473,-8.14418,5.38561,13.33256,-11.37395,-12.38027,5.85571,-0.29243,0.49706,363.0,22.86,36.48,-1.74,308.235,65.615,-13.516,1.97,64.3678,,,,NaN,,,,0 / 0,3854,2014-12-14 13:43:04:101
2.9299,-12.19906,-7.14549,0.54169,-7.00304,6.84353,2.36906,-0.4938,-12.33223,3.22344,-1.60803,1.74236,363.0,23.4,28.32,-12.24,297.359,45.571,-4.526,1.97,64.3678,,,,NaN,,,,0 / 0,3904,2014-12-14 13:43:04:151
0.69133,1.42635,-7.9691,0.68878,-6.32189,7.46527,0.00254,7.74824,-15.43437,2.40851,-1.48979,0.55459,927.0,19.92,24.72,-16.2,297.359,45.571,-4.526,1.97,64.3678,,,,NaN,,,,0 / 0,3953,2014-12-14 13:43:04:200
-6.0E-4,4.63936,-5.48392,1.42814,-5.98356,7.6372,-1.42874,10.62292,-13.12112,-0.43788,-2.09699,-0.20281,927.0,14.58,18.54,-22.56,286.774,40.14,-5.271,1.97,64.3678,,,,NaN,,,,0 / 0,4003,2014-12-14 13:43:04:250
-2.11228,0.68654,-3.61405,2.18142,-6.17225,7.30172,-4.2937,6.85879,-10.91576,-1.00779,-3.31139,-0.05794,927.0,13.2,15.72,-26.82,265.73,39.005,-16.634,1.97,64.3678,,,,NaN,,,,0 / 0,4054,2014-12-14 13:43:04:301
2.7647,-13.34827,16.36796,3.12383,-6.58525,6.56086,0.79727,-7.16046,5.4305,-0.77024,-2.05012,0.54926,1395.0,11.52,14.22,-29.76,265.73,39.005,-16.634,1.97,64.3678,,,,NaN,,,,0 / 0,4104,2014-12-14 13:43:04:351
13.53622,2.86526,-18.01038,3.82324,-6.22298,6.54425,15.76073,7.51764,-22.62251,1.28998,-1.97661,0.63022,1395.0,8.7,13.8,-30.9,254.813,42.184,-25.461,1.97,64.3678,,,,NaN,,,,0 / 0,4154,2014-12-14 13:43:04:401
-13.75529,-8.0523,-19.40141,4.11952,-5.58073,6.93211,3.94355,-13.9374,-26.33352,0.72433,2.36114,0.41824,1395.0,1.56,15.48,-30.72,257.115,39.388,-30.294,1.97,64.3678,,,,NaN,,,,0 / 0,4204,2014-12-14 13:43:04:451
-19.64203,0.94751,-19.40141,3.05889,-5.47509,7.53904,-21.31288,-5.80459,3.53294,-1.55534,2.87886,-1.09231,1477.0,-2.16,14.16,-29.94,253.359,32.993,-26.097,1.97,64.6483,,,,NaN,,,,0 / 0,4254,2014-12-14 13:43:04:501
3.11905,-10.93492,2.76411,3.41548,-5.77571,7.15163,-4.84302,-3.44735,-4.87594,-0.51351,0.11237,-0.49683,1477.0,-4.26,11.88,-29.88,253.359,32.993,-26.097,1.97,64.6483,,,,NaN,,,,0 / 0,4304,2014-12-14 13:43:04:551
-4.6669,-9.9509,2.45047,2.90342,-6.13574,7.07756,-8.96614,-4.32752,-4.05488,-1.13669,1.95315,0.29253,1477.0,-0.6,11.46,-30.9,228.584,36.083,-25.528,1.97,64.6483,,,,NaN,,,,0 / 0,4354,2014-12-14 13:43:04:601
-0.9918,-11.40179,6.88932,1.97896,-6.68686,6.89485,-0.94361,-4.7067,3.06398,-0.5689,1.0775,0.15405,1705.0,0.54,12.18,-30.12,228.108,41.153,-18.657,1.97,64.6483,,,,NaN,,,,0 / 0,4403,2014-12-14 13:43:04:650
2.83414,-8.25102,12.40316,1.75929,-6.75285,6.89021,1.07485,-1.49817,5.51295,0.30994,0.58109,-0.43185,1705.0,0.6,13.44,-29.52,228.108,41.153,-18.657,1.97,64.6483,,,,NaN,,,,0 / 0,4454,2014-12-14 13:43:04:701
11.85309,-0.2496,5.48392,1.97776,-6.22014,7.31907,9.87533,5.97054,-1.83516,0.65189,4.36171,-1.85078,1705.0,3.36,16.32,-27.9,234.088,41.317,-15.112,1.97,64.6483,,,,NaN,,,,0 / 0,4503,2014-12-14 13:43:04:750
-8.65085,-7.6405,1.67474,0.58583,-5.81641,7.87378,-9.23668,-1.82408,-6.19904,0.38344,4.50339,-1.96263,1705.0,4.44,17.04,-27.48,256.008,37.572,-10.805,1.97,70.238,,,,NaN,,,,0 / 0,4553,2014-12-14 13:43:04:800
-6.63733,-19.51813,0.0419,0.06913,-5.7386,7.95204,-6.1917,-13.77953,-8.22139,0.36427,0.27429,-0.29975,1287.0,6.18,17.82,-28.02,254.279,35.815,-0.498,1.97,70.238,,,,NaN,,,,0 / 0,4604,2014-12-14 13:43:04:851
-1.03729,-11.646,6.59243,0.16954,-5.75162,7.94112,-2.31055,-7.21358,-1.18827,0.67426,-0.60349,0.15085,1287.0,8.94,18.0,-26.64,254.279,35.815,-0.498,1.97,70.238,,,,NaN,,,,0 / 0,4654,2014-12-14 13:43:04:901
4.43825,-8.30848,3.89896,0.66768,-5.92206,7.78804,3.77057,-2.38642,-3.88908,-0.39846,-0.86235,0.00598,1287.0,12.84,18.84,-24.78,271.434,36.162,-2.571,1.97,70.238,,,,NaN,,,,0 / 0,4704,2014-12-14 13:43:04:951
3.49733,-6.22313,5.32111,1.11181,-6.31082,7.42337,2.38552,0.08769,-2.10226,-0.63921,-0.20827,0.16151,1149.0,12.72,18.54,-24.84,271.412,38.745,-7.678,1.97,70.238,,,,NaN,,,,0 / 0,4754,2014-12-14 13:43:05:001
2.00095,-6.25186,7.24845,1.12662,-6.47078,7.28211,0.87433,0.21892,-0.03367,-0.65199,0.06656,-0.11653,1149.0,12.42,18.72,-25.26,271.412,38.745,-7.678,1.97,70.238,,,,NaN,,,,0 / 0,4804,2014-12-14 13:43:05:051
1.76872,-6.20397,5.33069,1.29033,-6.69883,7.04494,0.54303,0.30332,-1.62087,-0.47836,-0.40961,-0.00467,1149.0,10.38,18.84,-26.7,264.708,41.288,-8.795,1.97,70.238,,,,NaN,,,,0 / 0,4854,2014-12-14 13:43:05:101
1.01933,-8.61254,7.13831,1.25426,-6.88872,6.86597,-0.26606,-2.11408,0.21488,-0.28874,0.29347,-0.07818,1239.0,10.14,19.38,-26.4,259.335,43.928,-10.671,1.97,48.9348,,,,NaN,,,,0 / 0,4904,2014-12-14 13:43:05:151
0.76555,-8.78014,4.93804,1.25441,-6.9574,6.79639,-0.70015,-2.09747,-1.23152,-0.15665,-0.1646,-0.08137,1239.0,9.96,21.42,-26.7,259.429,45.191,-10.457,1.97,48.9348,,,,NaN,,,,0 / 0,4953,2014-12-14 13:43:05:200
1.34973,-7.89428,4.65313,1.27162,-7.17153,6.56685,0.07811,-0.72275,-1.91372,-0.14919,0.02715,0.00704,1239.0,10.32,22.02,-26.22,261.253,46.995,-10.959,1.97,48.9348,,,,NaN,,,,0 / 0,5041,2014-12-14 13:43:05:288
2.19967,-7.74105,5.5318,1.32369,-7.25668,6.4621,0.82091,-0.47001,-0.75791,-0.11936,0.01969,-0.12185,1239.0,10.32,22.02,-26.22,261.253,46.995,-10.959,1.97,48.9348,,,,NaN,,,,0 / 0,5054,2014-12-14 13:43:05:301
1.90279,-7.65007,5.62039,1.3635,-7.29528,6.41018,0.55126,-0.2255,-1.13934,-0.16623,0.10598,-0.14422,1239.0,10.56,22.8,-25.8,263.488,48.066,-12.008,1.97,48.9348,,,,NaN,,,,0 / 0,5104,2014-12-14 13:43:05:351
1.36888,-8.57423,5.09606,1.41437,-7.40542,6.27131,-0.05267,-1.16164,-1.32609,-0.14706,0.09639,-0.23264,1205.0,10.74,22.98,-25.8,263.488,48.066,-12.008,1.97,48.9348,,,,NaN,,,,0 / 0,5154,2014-12-14 13:43:05:401
1.37367,-8.28693,5.01226,1.42904,-7.46572,6.19604,-0.67307,-1.04148,-1.51418,-0.12043,0.139,-0.23264,1205.0,10.32,22.98,-26.04,261.136,49.038,-12.709,1.97,48.9348,,,,NaN,,,,0 / 0,5204,2014-12-14 13:43:05:451
1.15341,-8.33721,5.26844,1.44849,-7.56014,6.07589,-0.29509,-0.77707,-0.80744,-0.13534,0.20824,-0.2678,1205.0,9.72,22.86,-25.02,262.148,50.017,-13.166,1.97,46.1721,,,,NaN,,,,0 / 0,5253,2014-12-14 13:43:05:500
0.92356,-7.97329,5.39294,1.45328,-7.59321,6.03339,-0.52972,-0.38008,-0.64045,-0.04692,0.31797,-0.27525,1205.0,9.78,23.16,-25.02,262.148,50.017,-13.166,1.97,46.1721,,,,NaN,,,,0 / 0,5304,2014-12-14 13:43:05:551
0.7009,-8.32763,5.369,1.48904,-7.6194,5.99149,-0.78814,-0.70823,-0.62249,-0.09167,-0.16566,-0.35195,1141.0,10.38,22.8,-24.66,260.982,50.983,-13.957,1.97,46.1721,,,,NaN,,,,0 / 0,5354,2014-12-14 13:43:05:601
0.26276,-7.89668,4.79439,1.47333,-7.66219,5.94061,-1.21057,-0.23448,-1.14622,0.03084,0.81864,-0.04835,1141.0,9.18,23.58,-24.18,263.987,51.382,-13.929,1.97,46.1721,,,,NaN,,,,0 / 0,5403,2014-12-14 13:43:05:650
0.73682,-8.41382,4.67228,1.24873,-7.71217,5.92745,-0.45759,-1.08083,0.56922,-0.0171,0.36697,-0.12505,1141.0,9.36,23.76,-24.06,263.987,51.382,-13.929,1.97,46.1721,,,,NaN,,,,0 / 0,5454,2014-12-14 13:43:05:701