ACCELEROMETER X (m/s²),ACCELEROMETER Y (m/s²),ACCELEROMETER Z (m/s²),GRAVITY X (m/s²),GRAVITY Y (m/s²),GRAVITY Z (m/s²),LINEAR ACCELERATION X (m/s²),LINEAR ACCELERATION Y (m/s²),LINEAR ACCELERATION Z (m/s²),GYROSCOPE X (rad/s),GYROSCOPE Y (rad/s),GYROSCOPE Z (rad/s),LIGHT (lux),MAGNETIC FIELD X (μT),MAGNETIC FIELD Y (μT),MAGNETIC FIELD Z (μT),ORIENTATION X (°),ORIENTATION Y (°),ORIENTATION Z (°),PROXIMITY (i),SOUND LEVEL (dB),LOCATION Latitude : ,LOCATION Longitude : ,LOCATION Altitude ( m),LOCATION Altitude-google ( m),LOCATION Speed ( Kmh),LOCATION Accuracy ( m),LOCATION ORIENTATION (°),Satellites in range,Time since start in ms ,YYYY-MO-DD HH-MI-SS_SSS
0.77273,-8.19356,3.64757,0.44158,-9.63636,1.76527,0.33115,1.44281,1.88229,-0.72114,-0.00484,0.12198,105.0,29.04,28.14,-13.2,269.629,78.365,-13.315,1.97,48.6496,,,,NaN,,,,0 / 0,5,2014-12-14 13:38:26:737
-0.01257,-9.71866,5.60602,0.39624,-9.65267,1.68492,-0.40881,-0.06599,3.9211,-0.67,0.32539,-0.00585,121.0,30.12,27.96,-12.12,269.629,78.365,-13.315,1.97,36.3498,,,,NaN,,,,0 / 0,54,2014-12-14 13:38:26:786
-0.75956,-8.1337,-0.52313,0.36646,-9.69846,1.40659,-1.12602,1.56476,-1.92973,-0.94378,-0.14972,0.03143,121.0,30.0,27.78,-11.64,270.261,81.476,-14.603,1.97,36.3498,,,,NaN,,,,0 / 0,104,2014-12-14 13:38:26:836
-0.39564,-11.7274,-6.87974,0.35853,-9.79887,0.15772,-0.75417,-1.92853,-7.03746,-2.87084,0.70782,0.04847,121.0,30.6,27.66,-9.66,319.629,87.711,-66.255,1.97,36.3498,,,,NaN,,,,0 / 0,155,2014-12-14 13:38:26:887
-2.26312,-19.51813,-3.77206,0.29209,-9.76236,-0.88451,-2.55521,-9.75577,-2.88756,-3.05087,-0.07302,0.16139,121.0,30.6,27.66,-8.34,319.629,87.711,-66.255,1.97,36.3498,,,,NaN,,,,0 / 0,205,2014-12-14 13:38:26:937
5.48931,-16.50144,3.08253,0.14874,-9.3932,-2.81408,5.34057,-7.10824,5.89662,-3.08709,0.70995,-0.09108,121.0,29.82,27.24,-6.84,62.498,79.393,-173.565,1.97,36.3498,,,,NaN,,,,0 / 0,254,2014-12-14 13:38:26:986
-3.05321,-9.19194,14.91707,0.60124,-8.94982,-3.9639,-3.65445,-0.24211,18.88097,0.27595,1.97442,-0.37657,59.0,29.64,26.7,-1.08,60.862,68.735,-174.907,1.97,36.3498,,,,NaN,,,,0 / 0,305,2014-12-14 13:38:27:037
-3.28305,-5.27024,9.97544,1.07889,-8.94174,-3.8798,-4.36194,3.67151,13.85525,1.26771,1.75817,-0.15712,59.0,29.64,26.22,3.18,62.644,65.755,-164.46,1.97,36.3498,,,,NaN,,,,0 / 0,355,2014-12-14 13:38:27:087
-11.09533,-10.65001,4.01627,1.10373,-9.34876,-2.74854,-9.38153,-8.94773,5.68069,2.49277,-2.15774,1.30016,59.0,28.62,24.78,9.72,73.619,72.421,-158.121,1.97,57.9221,,,,NaN,,,,0 / 0,405,2014-12-14 13:38:27:137
1.79505,-19.51813,1.488,0.2261,-9.75502,-0.97968,4.30702,-9.71971,1.1561,3.65603,-2.87892,0.42984,53.0,27.42,24.72,13.2,73.619,72.421,-158.121,1.97,57.9221,,,,NaN,,,,0 / 0,455,2014-12-14 13:38:27:187
7.44297,-19.51813,-3.62602,0.37619,-9.58174,2.05408,2.71892,-9.78375,-1.35018,4.96737,-0.22216,-0.65567,53.0,25.92,26.46,14.82,341.508,87.117,-40.756,1.97,57.9221,,,,NaN,,,,0 / 0,505,2014-12-14 13:38:27:237
4.90752,-18.55087,-5.74489,0.11118,-9.24446,3.27078,1.4259,-7.1636,-10.81895,4.08534,0.83139,0.93797,53.0,26.28,30.84,9.24,307.434,70.505,-1.947,1.97,57.9221,,,,NaN,,,,0 / 0,555,2014-12-14 13:38:27:287
0.70809,-12.81915,-7.4304,-0.16924,-8.86453,4.19075,0.27937,-0.89513,-10.77091,2.73671,-0.3681,0.89642,79.0,26.28,30.84,9.24,307.434,70.505,-1.947,1.97,57.9221,,,,NaN,,,,0 / 0,605,2014-12-14 13:38:27:337
-0.30466,-7.42981,-5.44322,-0.31678,-8.58471,4.73004,0.01212,1.1549,-10.17326,2.40115,-0.65146,0.75474,79.0,25.92,33.6,1.26,301.26,61.092,3.832,1.97,57.9221,,,,NaN,,,,0 / 0,655,2014-12-14 13:38:27:387
1.51254,2.31938,-4.35386,0.01796,-8.16228,5.43589,1.49458,10.48167,-9.78974,-0.09476,-2.3399,-0.00798,79.0,24.3,28.62,-14.04,280.573,56.337,-0.189,1.97,57.9221,,,,NaN,,,,0 / 0,705,2014-12-14 13:38:27:437
0.94032,0.0832,12.81736,0.34282,-8.14328,5.45354,0.5975,8.22648,7.36382,-0.62207,0.2913,-0.25406,87.0,24.0,26.64,-15.84,280.573,56.337,-0.189,1.97,57.606,,,,NaN,,,,0 / 0,755,2014-12-14 13:38:27:487
-0.7021,5.98012,-19.40141,0.21578,-8.14208,5.46177,-0.91788,14.1222,-24.86318,-0.92141,-0.9721,-0.09108,87.0,22.44,22.98,-19.92,267.797,55.511,-1.047,1.97,57.606,,,,NaN,,,,0 / 0,805,2014-12-14 13:38:27:537
14.9057,-19.51813,-19.40141,-0.16535,-8.17934,5.4076,15.07105,-11.33879,-24.80902,-1.44445,-3.23259,-0.59175,87.0,21.42,22.86,-20.58,255.259,56.518,1.751,1.97,57.606,,,,NaN,,,,0 / 0,854,2014-12-14 13:38:27:586
-5.09785,-11.69627,-2.37146,0.08365,-8.58665,4.73633,-5.1815,-3.10962,-7.10779,-3.6847,0.78559,0.13902,87.0,20.7,22.8,-19.32,256.303,61.115,-1.012,1.97,57.606,,,,NaN,,,,0 / 0,905,2014-12-14 13:38:27:637
4.0456,-19.51813,-5.93642,0.15502,-9.02315,3.83806,3.89058,-10.49498,-9.77448,-3.14461,-0.90179,-1.14675,87.0,19.44,22.56,-18.54,256.303,61.115,-1.012,1.97,57.606,,,,NaN,,,,0 / 0,954,2014-12-14 13:38:27:686
-1.33417,-19.51813,8.3833,0.57506,-9.62514,1.78817,-1.90923,-9.89299,6.59513,-3.45461,1.10303,-0.34674,125.0,18.3,23.22,-16.5,252.131,72.726,-9.79,1.97,57.606,,,,NaN,,,,0 / 0,1005,2014-12-14 13:38:27:737
8.65205,-10.80802,12.60428,0.62459,-9.77762,0.42497,8.02746,-1.0304,12.1793,-1.50411,0.62793,0.03356,125.0,17.82,24.6,-14.28,274.942,83.867,-36.106,1.97,57.606,,,,NaN,,,,0 / 0,1056,2014-12-14 13:38:27:788
-7.33404,-2.9742,10.79665,0.9894,-9.7465,0.44457,-8.32344,6.7723,10.35208,-1.02261,0.59171,-0.88683,125.0,16.62,26.4,-11.22,274.942,83.867,-36.106,1.97,57.606,,,,NaN,,,,0 / 0,1105,2014-12-14 13:38:27:837
-2.61267,-0.72604,8.94833,0.96217,-9.74096,0.60065,-3.57484,9.01492,8.34768,0.96624,-0.36384,-0.03462,125.0,16.14,28.5,-5.82,315.77,83.65,-65.804,1.97,63.252,,,,NaN,,,,0 / 0,1154,2014-12-14 13:38:27:886
1.4024,-4.31016,3.94445,1.00018,-9.58204,1.83201,0.40223,5.27188,2.11243,1.43389,0.05055,-0.04314,73.0,16.5,28.8,-2.82,309.229,80.968,-37.711,1.97,63.252,,,,NaN,,,,0 / 0,1205,2014-12-14 13:38:27:937
-8.78014,-14.32032,3.32914,0.86266,-9.47161,2.39106,-9.6428,-4.84871,0.93808,1.99316,-0.23068,2.00643,73.0,16.8,29.16,-1.8,308.023,77.711,-28.632,1.97,63.252,,,,NaN,,,,0 / 0,1255,2014-12-14 13:38:27:987
-0.9104,-19.51813,-1.42335,0.22835,-9.1053,3.635,-0.3295,-10.62457,-6.32488,3.41422,-1.08076,0.66207,73.0,15.84,28.98,-2.16,308.023,77.711,-28.632,1.97,63.252,,,,NaN,,,,0 / 0,1305,2014-12-14 13:38:28:037
2.1063,-14.33229,-3.31238,-0.03801,-8.02162,5.64119,4.23549,-9.93863,-8.43417,4.16949,-0.20831,0.52252,107.0,14.28,28.62,-3.42,309.438,61.815,-2.6,1.97,63.252,,,,NaN,,,,0 / 0,1354,2014-12-14 13:38:28:086
1.21566,-5.79935,-4.92128,-0.14799,-7.75856,5.99613,1.27327,1.85955,-11.04565,1.33802,-1.79555,0.6855,107.0,14.64,27.42,-8.34,303.766,52.293,1.414,1.97,63.252,,,,NaN,,,,0 / 0,1405,2014-12-14 13:38:28:137
1.97941,-1.24319,-5.12958,0.47001,-7.67267,6.08935,1.62851,6.39042,-11.27579,-0.03511,-1.43869,-0.05273,107.0,15.0,26.22,-11.88,295.971,51.48,-4.414,1.97,63.252,,,,NaN,,,,0 / 0,1455,2014-12-14 13:38:28:187
1.83336,-0.8673,1.55982,0.69776,-7.87977,5.79606,-0.10744,6.77918,-2.83099,-1.71183,-0.47249,-0.06338,141.0,16.44,25.08,-15.84,295.971,51.48,-4.414,1.97,56.6246,,,,NaN,,,,0 / 0,1505,2014-12-14 13:38:28:237
-3.69006,-2.63422,7.40168,0.77512,-8.15405,5.39279,-4.46519,5.51983,2.00888,-0.75629,0.01433,0.50015,141.0,17.16,24.6,-17.04,275.664,56.251,-8.179,1.97,56.6246,,,,NaN,,,,0 / 0,1554,2014-12-14 13:38:28:286
6.15011,0.15742,-2.46962,0.45116,-7.92316,5.76105,5.69895,8.08058,-8.23067,-0.69344,-0.693,0.00267,141.0,17.52,26.1,-19.74,271.019,53.895,-4.478,1.97,56.6246,,,,NaN,,,,0 / 0,1605,2014-12-14 13:38:28:337
2.35051,-11.92133,-12.19247,0.40133,-7.84026,5.87702,1.94918,-4.08107,-18.06949,-0.60928,-0.80592,-0.81439,141.0,16.98,29.16,-18.24,282.37,53.081,-3.907,1.97,56.6246,,,,NaN,,,,0 / 0,1655,2014-12-14 13:38:28:387
-2.12665,-1.26474,-19.40141,0.08918,-7.89308,5.81911,-2.21583,6.62835,-25.22052,-2.31264,1.65378,-0.36272,195.0,17.04,30.06,-17.94,282.37,53.081,-3.907,1.97,56.6246,,,,NaN,,,,0 / 0,1704,2014-12-14 13:38:28:436
0.05686,-19.51813,-6.04895,-0.02693,-8.77191,4.38453,0.0838,-10.74622,-10.43348,-2.68548,0.20289,-1.11586,195.0,17.4,30.66,-18.06,283.417,53.598,-0.878,1.97,56.6246,,,,NaN,,,,0 / 0,1755,2014-12-14 13:38:28:487
0.12629,-19.51813,3.49434,0.51894,-9.42418,2.66205,1.68956,-9.97754,5.52761,-3.36086,0.52886,-0.88576,195.0,17.76,32.58,-16.08,262.7,73.945,-11.031,1.97,56.6246,,,,NaN,,,,0 / 0,1804,2014-12-14 13:38:28:536
2.03687,-19.51813,10.71046,0.73038,-9.62289,1.74283,1.30649,-9.89524,8.96763,-2.84101,1.61862,-0.2221,179.0,17.7,34.32,-13.38,262.7,73.945,-11.031,1.97,57.6493,,,,NaN,,,,0 / 0,1855,2014-12-14 13:38:28:587
-3.58472,-6.82886,11.51252,0.87762,-9.74051,0.7238,-4.46234,2.91165,10.78872,-1.23886,0.86548,-0.67804,179.0,16.56,37.56,-8.04,280.351,78.89,-22.737,1.97,57.6493,,,,NaN,,,,0 / 0,1905,2014-12-14 13:38:28:637
-1.47782,-1.28628,8.58441,0.83288,-9.72091,0.9909,-2.3107,8.43462,7.59351,-0.50489,0.43937,-0.449,179.0,16.2,38.4,-4.44,316.281,83.224,-49.653,1.97,57.6493,,,,NaN,,,,0 / 0,1954,2014-12-14 13:38:28:686
2.4774,0.11193,6.57089,0.92072,-9.62424,1.64272,1.55668,9.73617,4.92817,1.452,-0.28074,-0.07403,101.0,15.72,38.76,0.48,316.281,83.224,-49.653,1.97,57.6493,,,,NaN,,,,0 / 0,2004,2014-12-14 13:38:28:736
-3.94145,-12.3475,3.66193,0.77587,-9.28965,3.04483,-9.82895,-9.89568,2.09433,2.54496,1.03379,1.05302,101.0,16.5,40.2,5.22,328.202,75.786,-24.417,1.97,57.6493,,,,NaN,,,,0 / 0,2054,2014-12-14 13:38:28:786
1.92434,-19.51813,-0.51116,0.10879,-8.70217,4.51995,1.81555,-10.81596,-5.03112,4.04592,0.25402,0.89216,101.0,16.92,41.1,3.6,321.238,68.726,-6.753,1.97,57.6493,,,,NaN,,,,0 / 0,2105,2014-12-14 13:38:28:837
4.30896,-19.51813,-1.74657,0.0015,-7.9878,5.68907,4.30747,-11.53033,-7.43564,5.12184,0.11447,0.6397,101.0,17.22,42.36,1.26,321.238,68.726,-6.753,1.97,57.6493,,,,NaN,,,,0 / 0,2155,2014-12-14 13:38:28:887
-0.54169,-9.69472,-2.82636,-0.27204,-6.50445,7.33404,-0.98581,0.63716,-12.50207,2.52046,-2.34736,0.97525,139.0,21.84,41.76,-7.74,322.363,48.441,1.862,1.97,57.5098,,,,NaN,,,,0 / 0,2204,2014-12-14 13:38:28:936
-1.75315,-3.60627,-6.42245,0.13587,-6.14053,7.64499,-1.88903,2.53426,-14.06743,1.79821,-2.86295,0.3851,139.0,23.58,38.58,-13.74,312.104,38.767,-1.018,1.97,57.5098,,,,NaN,,,,0 / 0,2254,2014-12-14 13:38:28:986
5.83886,3.73914,-5.05057,1.08278,-5.95348,7.71711,2.78416,8.07205,-10.80548,-1.42421,0.06973,0.06978,139.0,25.44,28.14,-22.8,290.643,37.379,-7.987,1.97,57.5098,,,,NaN,,,,0 / 0,2305,2014-12-14 13:38:29:037
-1.33896,-4.19763,9.96826,1.10612,-6.7319,7.04464,-1.22718,0.14545,5.72409,-2.17203,-0.01017,-0.00905,197.0,23.58,23.04,-26.22,273.4,43.351,-8.923,1.97,57.5098,,,,NaN,,,,0 / 0,2355,2014-12-14 13:38:29:087
7.14849,5.89632,-19.07101,1.17271,-6.65109,7.11033,5.16953,3.57769,-2.63108,0.70206,0.12619,0.19335,197.0,20.88,20.34,-28.32,273.4,43.351,-8.923,1.97,57.5098,,,,NaN,,,,0 / 0,2405,2014-12-14 13:38:29:137
19.58397,-19.51813,19.82459,0.78799,-6.69838,7.11901,3.28036,12.83487,-21.26111,0.60192,4.91135,0.45008,197.0,19.68,20.52,-27.9,267.412,42.705,-9.366,1.97,57.5098,,,,NaN,,,,0 / 0,2455,2014-12-14 13:38:29:187
-3.8816,7.09582,-19.40141,0.67846,-6.58525,7.23498,-4.56006,13.68107,-26.63639,0.28447,2.64554,-0.42024,299.0,18.3,21.06,-24.18,271.829,42.184,-5.357,1.97,57.5098,,,,NaN,,,,0 / 0,2504,2014-12-14 13:38:29:236
-8.40425,-19.51813,11.37366,0.1634,-7.45076,6.37411,-8.56765,-12.06737,4.99954,-4.42613,2.43675,-0.01544,299.0,16.38,18.84,-22.56,271.829,42.184,-5.357,1.97,57.5098,,,,NaN,,,,0 / 0,2555,2014-12-14 13:38:29:287
-3.8816,-12.31158,-7.97868,0.65496,-8.37133,5.06583,-4.53656,-3.94026,-13.04451,-3.08283,-2.37718,-0.78243,299.0,15.12,17.46,-21.18,247.487,58.609,-7.367,1.97,58.2335,,,,NaN,,,,0 / 0,2605,2014-12-14 13:38:29:337
3.70323,-19.51813,2.31639,0.98536,-9.18775,3.2841,2.71787,-10.33038,-0.96771,-4.56355,0.37972,-0.41279,299.0,15.78,17.64,-17.82,254.847,69.535,-16.701,1.97,58.2335,,,,NaN,,,,0 / 0,2655,2014-12-14 13:38:29:387
5.06793,-14.42327,15.80772,0.83917,-9.66809,1.41288,4.22876,-4.75518,14.39484,-2.35206,1.27028,0.17418,299.0,14.94,19.38,-13.92,254.847,69.535,-16.701,1.97,58.2335,,,,NaN,,,,0 / 0,2704,2014-12-14 13:38:29:436
-1.49219,-5.91428,12.38161,0.96097,-9.68455,1.20713,-2.45316,3.77027,11.17449,-1.2069,1.00823,-0.94329,299.0,13.44,21.48,-11.16,279.345,80.948,-38.523,1.97,58.2335,,,,NaN,,,,0 / 0,2755,2014-12-14 13:38:29:487
-3.66612,-0.38846,5.06972,0.94107,-9.62933,1.60037,-4.60719,9.24087,3.46935,1.04401,-0.47462,-0.07297,299.0,13.2,23.58,-4.98,296.269,79.087,-30.457,1.97,58.2335,,,,NaN,,,,0 / 0,2805,2014-12-14 13:38:29:537
2.19249,-4.63577,4.29639,0.87792,-9.37749,2.73208,-3.37208,1.04731,-1.21341,1.53935,0.2945,0.21039,149.0,10.98,24.36,-0.54,296.269,79.087,-30.457,1.97,58.2335,,,,NaN,,,,0 / 0,2855,2014-12-14 13:38:29:587
-9.61332,-17.32744,1.96205,0.65511,-9.21154,3.29996,-12.17003,-10.41268,-5.30809,2.30741,-1.79555,2.48047,149.0,9.6,24.96,0.54,320.432,72.985,-17.814,1.97,58.2335,,,,NaN,,,,0 / 0,2905,2014-12-14 13:38:29:637
4.76147,-19.51813,-2.9748,0.08514,-8.1946,5.38636,4.67633,-11.32353,-8.36115,5.41692,0.73126,-0.54488,149.0,6.84,25.86,-1.5,319.188,69.936,-11.228,1.97,59.6373,,,,NaN,,,,0 / 0,2954,2014-12-14 13:38:29:686
5.65929,-11.95964,-4.54539,-0.08739,-6.80612,7.05975,5.74668,-5.15352,-11.60514,3.69438,-1.12337,2.12254,275.0,6.42,25.5,-4.62,338.659,43.95,0.709,1.97,59.6373,,,,NaN,,,,0 / 0,3006,2014-12-14 13:38:29:738
2.24037,-7.44657,-3.03465,-0.09263,-6.37561,7.45076,2.333,-1.07096,-10.48541,1.6544,-2.05334,0.37018,275.0,6.66,24.42,-8.28,338.659,43.95,0.709,1.97,59.6373,,,,NaN,,,,0 / 0,3055,2014-12-14 13:38:29:787
-1.47543,-3.65176,-5.80714,0.31199,-5.9876,7.76021,-1.78742,2.33584,-13.56734,0.39526,-1.74335,0.11026,275.0,6.78,22.86,-11.82,324.541,40.551,0.712,1.97,59.6373,,,,NaN,,,,0 / 0,3105,2014-12-14 13:38:29:837
3.02328,0.75597,0.08978,1.14652,-5.89827,7.75018,1.87675,6.65424,-7.6604,-1.38906,-0.13161,0.01332,431.0,7.62,18.18,-15.0,301.355,36.974,-8.415,1.97,59.6373,,,,NaN,,,,0 / 0,3155,2014-12-14 13:38:29:887
-0.23284,-1.49697,2.49117,1.18543,-6.06855,7.61162,-1.41827,4.57158,-5.12045,-1.64472,-0.60778,0.16139,431.0,8.1,17.64,-15.84,301.355,36.974,-8.415,1.97,59.6373,,,,NaN,,,,0 / 0,3204,2014-12-14 13:38:29:936
-0.43634,-6.06032,10.77271,1.11241,-6.42888,7.32147,-1.54875,0.36856,3.45124,-0.48784,-0.58541,0.31586,431.0,7.44,17.58,-15.78,298.172,38.23,-8.852,1.97,59.6373,,,,NaN,,,,0 / 0,3255,2014-12-14 13:38:29:987
8.55628,-19.51813,-19.40141,1.15505,-5.70419,7.89294,15.02436,-13.81394,-27.29435,-0.95017,-1.23842,-0.36485,431.0,7.56,21.6,-12.78,296.431,40.962,-8.639,1.97,59.6373,,,,NaN,,,,0 / 0,3305,2014-12-14 13:38:30:037
7.65127,-19.51813,-19.40141,1.2583,-5.77826,7.8229,6.39297,-13.73987,-27.22432,0.73721,2.82557,-0.53849,615.0,7.62,22.8,-11.4,323.284,36.102,-9.138,1.97,59.1465,,,,NaN,,,,0 / 0,3355,2014-12-14 13:38:30:087
1.5676,-19.51813,-3.05859,0.27069,-7.04539,6.81614,1.29691,-12.47274,-9.87473,-2.84421,0.91981,-0.67804,615.0,7.44,24.48,-10.86,328.782,36.472,-5.28,1.97,59.1465,,,,NaN,,,,0 / 0,3405,2014-12-14 13:38:30:137
-2.35889,-14.62917,-7.9284,0.7214,-7.60653,6.14741,-3.08029,-7.02264,-14.07581,-3.15846,-2.07252,-0.85807,615.0,8.76,27.06,-11.1,328.782,36.472,-5.28,1.97,59.1465,,,,NaN,,,,0 / 0,3454,2014-12-14 13:38:30:186
1.12946,-19.51813,17.67519,0.89588,-9.21109,3.24399,0.23358,-10.30704,14.4312,-4.69031,2.81278,0.08895,619.0,8.64,30.06,-6.42,308.303,60.268,-12.996,1.97,59.1465,,,,NaN,,,,0 / 0,3505,2014-12-14 13:38:30:237
5.7,-13.1304,17.70632,0.58643,-9.53296,2.22496,5.11357,-3.59744,15.48136,-2.23914,1.331,0.60667,619.0,8.4,31.56,-2.82,320.343,69.929,-15.438,1.97,59.1465,,,,NaN,,,,0 / 0,3554,2014-12-14 13:38:30:286
-6.51762,-0.91518,7.42083,0.71287,-9.56424,2.04659,-7.23049,8.64905,5.37423,-0.53045,2.10438,-0.83996,619.0,7.26,32.16,4.44,337.842,77.233,-19.204,1.97,59.1465,,,,NaN,,,,0 / 0,3605,2014-12-14 13:38:30:337
-6.88153,-2.18172,9.81503,0.60319,-9.51815,2.28332,-7.48472,7.33643,7.53171,0.489,0.70463,-0.36591,295.0,7.38,31.86,8.1,337.842,77.233,-19.204,1.97,59.1465,,,,NaN,,,,0 / 0,3656,2014-12-14 13:38:30:388
2.70485,-1.35811,2.87185,0.49814,-9.17144,3.43628,2.20671,7.81333,-0.56443,1.45946,0.93898,0.08363,295.0,7.08,33.54,11.94,346.732,73.019,-10.272,1.97,59.1465,,,,NaN,,,,0 / 0,3704,2014-12-14 13:38:30:436
-10.62846,-15.14392,0.15682,0.08365,-8.9811,3.93756,-10.71211,-6.16282,-3.78074,1.71619,0.63964,0.9124,295.0,7.02,34.92,11.7,347.974,69.264,-8.248,1.97,61.329,,,,NaN,,,,0 / 0,3755,2014-12-14 13:38:30:487
2.99215,-19.51813,-3.90375,-0.40597,-8.06681,5.56173,4.8945,-11.45132,-11.37844,4.6414,0.62047,-0.63116,475.0,7.8,37.8,4.62,341.704,55.344,4.175,1.97,61.329,,,,NaN,,,,0 / 0,3805,2014-12-14 13:38:30:537
7.25862,-19.51813,-2.61567,-0.44622,-7.22121,6.62012,7.70484,-12.29692,-9.23578,4.81078,0.15495,0.34142,475.0,9.96,37.74,0.84,341.704,55.344,4.175,1.97,61.329,,,,NaN,,,,0 / 0,3855,2014-12-14 13:38:30:587
1.32579,-10.52551,-3.59011,-0.49799,-5.46327,8.12861,1.82378,-5.06224,-11.71872,2.76867,-1.25014,1.45782,475.0,13.8,34.74,-5.58,329.804,38.112,4.595,1.97,61.329,,,,NaN,,,,0 / 0,3905,2014-12-14 13:38:30:637
-1.19052,-4.12341,-4.70341,-0.08469,-4.91185,8.48745,-1.10582,0.78844,-13.19085,1.6086,-2.33564,0.5598,475.0,14.58,30.36,-12.36,329.804,38.112,4.595,1.97,61.329,,,,NaN,,,,0 / 0,3955,2014-12-14 13:38:30:687
0.81343,3.64816,-4.38737,0.90845,-4.27081,8.78089,-0.63102,8.14837,-13.05244,-0.58798,-1.33003,-0.06764,791.0,13.8,22.74,-21.96,318.317,27.036,-2.83,1.97,61.329,,,,NaN,,,,0 / 0,4005,2014-12-14 13:38:30:737
-1.46824,-1.31262,1.18872,1.59589,-4.67677,8.47054,-3.06413,3.36415,-7.28181,-1.36882,-1.04773,0.01119,791.0,13.08,20.7,-24.78,297.646,26.386,-8.594,1.97,61.329,,,,NaN,,,,0 / 0,4055,2014-12-14 13:38:30:787
-1.08278,-9.0411,18.21868,1.78667,-5.0371,8.22229,-2.86945,-4.004,9.99639,0.74041,-1.99795,0.43517,791.0,7.62,17.04,-29.28,273.696,30.907,-12.26,1.97,60.5963,,,,NaN,,,,0 / 0,4105,2014-12-14 13:38:30:837
4.57951,-10.08976,9.18775,2.19863,-4.98982,8.15091,2.38088,-5.09995,1.03684,2.13164,-0.54813,0.14541,1219.0,5.7,16.86,-29.28,273.696,30.907,-12.26,1.97,60.5963,,,,NaN,,,,0 / 0,4154,2014-12-14 13:38:30:886
16.71332,-19.51813,-14.61062,2.63198,-3.97797,8.5684,14.08135,-15.54016,-23.17901,3.53246,-2.82779,-0.3478,1219.0,2.28,17.22,-27.66,284.593,27.755,-16.574,1.97,60.5963,,,,NaN,,,,0 / 0,4204,2014-12-14 13:38:30:936
-5.86879,-7.02997,-19.40141,2.7885,-3.58382,8.69185,-15.89331,0.26067,-17.41378,0.65625,2.56458,-0.94648,1219.0,1.62,17.4,-27.84,301.081,21.435,-17.787,1.97,60.5963,,,,NaN,,,,0 / 0,4255,2014-12-14 13:38:30:987
-2.40917,-19.51813,-1.1576,1.49084,-4.1282,8.76951,0.80056,-15.3817,-8.92124,-0.17998,-0.86664,-0.21891,1153.0,-1.92,15.54,-29.64,302.164,24.895,-9.648,1.97,60.5963,,,,NaN,,,,0 / 0,4305,2014-12-14 13:38:31:037
-5.09067,-10.97801,1.66038,1.2589,-5.19676,8.22064,-5.016,-6.63358,-2.53082,-1.23246,0.1933,-0.10173,1153.0,-1.74,15.36,-30.06,302.164,24.895,-9.648,1.97,60.5963,,,,NaN,,,,0 / 0,4355,2014-12-14 13:38:31:087
6.44459,-7.26939,8.42879,0.99704,-5.62982,7.96745,4.59043,-3.74408,1.5076,-0.84151,0.22952,0.01758,1153.0,1.56,16.86,-29.76,249.517,32.0,-8.707,1.97,60.5963,,,,NaN,,,,0 / 0,4405,2014-12-14 13:38:31:137
8.02237,-7.71711,8.70891,1.11719,-5.85292,7.78879,6.90518,-1.86419,0.92012,-0.88412,0.67906,-0.15393,1153.0,1.44,17.28,-29.7,236.702,35.036,-7.133,1.97,71.2038,,,,NaN,,,,0 / 0,4455,2014-12-14 13:38:31:187
3.89477,-5.00687,10.83735,0.36571,-6.02561,7.72848,3.52905,1.01873,3.10887,0.41657,2.46125,-0.62903,1373.0,2.52,19.32,-28.92,244.833,38.476,-6.163,1.97,71.2038,,,,NaN,,,,0 / 0,4504,2014-12-14 13:38:31:236
-0.38846,-3.91751,8.21331,-0.25902,-5.74055,7.94666,-0.12944,1.82304,0.26665,1.38063,3.12917,-0.7835,1373.0,3.48,20.34,-28.32,244.833,38.476,-6.163,1.97,71.2038,,,,NaN,,,,0 / 0,4555,2014-12-14 13:38:31:287
-2.2727,-4.16651,3.15676,-0.81208,-5.21068,8.26793,-1.46061,1.04417,-5.11117,2.21686,1.96164,-0.8293,1373.0,4.14,21.12,-27.9,335.865,32.096,5.61,1.97,71.2038,,,,NaN,,,,0 / 0,4605,2014-12-14 13:38:31:337
-0.03651,-19.51813,4.1719,-1.99302,-4.2337,8.61823,1.95651,-15.28443,-4.44633,0.93855,-0.15291,0.87405,819.0,7.98,20.52,-26.88,345.892,25.577,13.021,1.97,71.2038,,,,NaN,,,,0 / 0,4655,2014-12-14 13:38:31:387
2.29544,-6.16567,-2.87424,-1.43532,-3.93233,8.86827,3.73077,-2.23334,-11.74251,0.14918,-0.88795,0.27857,819.0,10.86,18.78,-27.24,317.193,23.215,10.818,1.97,71.2038,,,,NaN,,,,0 / 0,4704,2014-12-14 13:38:31:436
1.33537,-8.25341,-0.44173,-1.06901,-4.2717,8.76233,2.40438,-3.98171,-9.20406,-0.87134,-0.95293,0.08682,819.0,13.08,16.14,-27.66,317.193,23.215,10.818,1.97,71.2038,,,,NaN,,,,0 / 0,4755,2014-12-14 13:38:31:487
4.34009,-7.86076,9.26915,-0.49949,-4.9973,8.4231,4.83958,-2.86347,0.84605,-0.53259,-0.48208,0.155,829.0,12.84,14.22,-28.74,258.714,28.519,5.245,1.97,71.2038,,,,NaN,,,,0 / 0,4805,2014-12-14 13:38:31:537
3.84688,-5.51444,5.67306,-0.43081,-5.07301,8.38135,4.27769,-0.44143,-2.70829,-0.71581,-0.20724,0.06978,829.0,12.54,14.22,-29.22,258.714,28.519,5.245,1.97,54.1115,,,,NaN,,,,0 / 0,4854,2014-12-14 13:38:31:586
1.01933,-9.44572,7.68898,-0.40701,-5.86774,7.847,1.42635,-3.57798,-0.15802,-0.50702,-0.40218,0.17418,829.0,9.54,15.24,-30.06,249.724,31.152,2.942,1.97,54.1115,,,,NaN,,,,0 / 0,4905,2014-12-14 13:38:31:637
-0.38367,-8.2151,4.543,-0.28386,-6.1103,7.66504,-0.09981,-2.1048,-3.12204,-0.66042,-0.3159,0.01758,829.0,9.18,15.54,-29.76,231.05,38.542,2.121,1.97,54.1115,,,,NaN,,,,0 / 0,4955,2014-12-14 13:38:31:687
1.78548,-8.43298,4.47596,-0.02379,-6.47557,7.36456,1.80927,-1.95741,-2.8886,-0.27905,-0.35531,-0.13582,965.0,9.9,17.88,-28.86,240.289,41.325,0.185,1.97,54.1115,,,,NaN,,,,0 / 0,5005,2014-12-14 13:38:31:737
-0.37649,-8.53353,5.33069,0.02215,-6.646,7.21119,-0.39863,-1.88753,-1.8805,-0.18957,0.22206,-0.11984,965.0,9.72,18.42,-29.28,240.289,41.325,0.185,1.97,54.1115,,,,NaN,,,,0 / 0,5055,2014-12-14 13:38:31:787
-1.50176,-7.71711,4.94522,-0.1248,-6.82258,7.04329,-1.37697,-0.89453,-2.09807,-0.08624,0.03244,0.0261,965.0,10.14,19.5,-29.52,237.684,43.479,0.434,1.97,54.1115,,,,NaN,,,,0 / 0,5105,2014-12-14 13:38:31:837
-0.09397,-7.83682,5.27084,-0.1667,-6.92283,6.94393,-0.20545,-0.96456,-1.49129,-0.02232,-0.11776,0.05274,975.0,10.14,19.5,-29.52,237.684,43.479,0.434,1.97,54.1115,,,,NaN,,,,0 / 0,5154,2014-12-14 13:38:31:886
-0.06764,-8.25341,4.63637,-0.15787,-6.98733,6.87914,-0.11253,-1.61624,-2.13443,-0.03937,-0.03254,0.04208,975.0,9.42,19.8,-28.68,232.142,44.905,1.375,1.97,50.3757,,,,NaN,,,,0 / 0,5205,2014-12-14 13:38:31:937
0.03053,-8.81605,4.81115,-0.18914,-7.14564,6.71364,0.58763,-1.58242,-1.80613,-0.08837,0.06653,0.03036,975.0,9.12,20.1,-28.32,230.024,46.774,1.614,1.97,50.3757,,,,NaN,,,,0 / 0,5254,2014-12-14 13:38:31:986
0.28192,-8.24144,5.05536,-0.16505,-7.29603,6.55069,0.6822,-1.08757,-1.79535,-0.10968,0.04416,-0.02183,943.0,8.94,20.16,-28.68,230.024,46.774,1.614,1.97,50.3757,,,,NaN,,,,0 / 0,5305,2014-12-14 13:38:32:037
-0.31903,-8.4641,4.78242,-0.13946,-7.3716,6.46614,-0.33474,-0.94212,-1.43996,-0.11394,0.02392,-0.07723,943.0,9.96,19.74,-28.5,230.54,48.072,1.443,1.97,50.3757,,,,NaN,,,,0 / 0,5355,2014-12-14 13:38:32:087
-1.11869,-8.05709,5.2038,-0.16535,-7.48682,6.33162,-0.95334,-0.57027,-1.12782,-0.09796,0.03244,-0.06977,943.0,9.9,19.92,-28.32,229.531,48.737,1.236,1.97,50.3757,,,,NaN,,,,0 / 0,5405,2014-12-14 13:38:32:137
-0.80984,-8.05948,4.85664,-0.19947,-7.52902,6.28059,-0.61037,-0.53047,-1.42395,-0.06813,0.02073,0.04741,943.0,9.3,19.92,-27.72,229.531,48.737,1.236,1.97,50.3757,,,,NaN,,,,0 / 0,5454,2014-12-14 13:38:32:186
0.10235,-8.37552,5.00747,-0.22595,-7.62763,6.15938,0.22131,-0.86012,-1.16912,-0.05854,-0.02934,0.01971,923.0,9.9,19.8,-28.08,221.228,50.487,2.064,1.97,50.3757,,,,NaN,,,,0 / 0,5505,2014-12-14 13:38:32:237
0.17657,-8.47847,4.82791,-0.21548,-7.66489,6.11344,0.39205,-0.81358,-1.28554,-0.05322,0.00901,0.00267,923.0,10.26,19.98,-27.66,222.966,51.407,2.019,1.97,50.3757,,,,NaN,,,,0 / 0,5555,2014-12-14 13:38:32:287
-0.17059,-8.47607,4.59567,-0.22251,-7.76993,5.97907,0.05192,-0.70614,-1.3834,-0.07985,0.04736,0.01012,923.0,10.56,20.34,-27.72,224.038,52.402,2.131,1.97,42.0879,,,,NaN,,,,0 / 0,5605,2014-12-14 13:38:32:337
-0.21847,-8.41382,4.78721,-0.21682,-7.85433,5.86789,0.02095,-0.45011,-1.11136,-0.06706,-0.03573,-0.01544,923.0,9.96,20.28,-27.6,224.038,52.402,2.131,1.97,42.0879,,,,NaN,,,,0 / 0,5654,2014-12-14 13:38:32:386
-0.36212,-8.59339,4.60525,-0.21129,-7.90491,5.79995,-0.12181,-0.58882,-1.06407,-0.06813,-0.00804,-0.00692,923.0,10.08,20.16,-27.72,222.174,53.218,2.116,1.97,42.0879,,,,NaN,,,,0 / 0,5705,2014-12-14 13:38:32:437
-0.25917,-8.38749,4.67468,-0.21638,-7.97748,5.6994,-0.09098,-0.42123,-0.99075,-0.06493,-0.05171,0.01119,923.0,10.14,20.16,-27.84,218.518,54.1,2.142,1.97,42.0879,,,,NaN,,,,0 / 0,5755,2014-12-14 13:38:32:487
-6.0E-4,-8.61972,4.53582,-0.19064,-8.05394,5.59181,0.20755,-0.59361,-0.96531,-0.06387,-0.05704,5.4E-4,937.0,9.96,20.52,-27.3,220.942,55.212,1.953,1.97,42.0879,,,,NaN,,,,0 / 0,5805,2014-12-14 13:38:32:537
-0.15383,-8.44255,4.26048,-0.1851,-8.08956,5.54033,0.03561,-0.38173,-1.3213,-0.0873,-0.0368,0.00267,937.0,9.96,20.52,-27.84,220.942,55.212,1.953,1.97,42.0879,,,,NaN,,,,0 / 0,5855,2014-12-14 13:38:32:587
-0.01496,-8.51438,4.55736,-0.03861,-8.1771,5.41344,0.02364,-0.33728,-0.85608,-0.13418,-0.43414,-0.07403,937.0,10.2,21.12,-27.84,218.309,55.901,1.638,1.97,42.0879,,,,NaN,,,,0 / 0,5905,2014-12-14 13:38:32:637
-0.09637,-8.59578,4.4999,0.05252,-8.23321,5.32755,-0.14889,-0.36257,-0.82765,-0.15761,-0.24346,-0.07084,937.0,9.0,21.12,-27.42,219.643,57.093,-0.565,1.97,42.0879,,,,NaN,,,,0 / 0,5956,2014-12-14 13:38:32:688
-0.42198,-8.99083,4.9955,0.0609,-8.29935,5.22385,-0.48288,-0.69148,-0.22835,-0.02126,0.23378,0.05167,937.0,9.12,20.94,-27.3,218.829,57.811,-0.668,1.97,30.2288,,,,NaN,,,,0 / 0,6004,2014-12-14 13:38:32:736
-0.2472,-8.33721,4.43286,-0.01706,-8.30623,5.21322,-0.23014,-0.03097,-0.78036,0.04266,0.52033,0.11985,977.0,9.6,20.88,-27.3,218.829,57.811,-0.668,1.97,30.2288,,,,NaN,,,,0 / 0,6055,2014-12-14 13:38:32:787
-0.42916,-8.64845,4.15753,-0.13931,-8.34978,5.1414,-0.28985,-0.29868,-0.98387,-0.08091,-0.05384,0.00799,977.0,9.3,21.06,-27.54,212.313,58.368,1.552,1.97,30.2288,,,,NaN,,,,0 / 0,6105,2014-12-14 13:38:32:837