ACCELEROMETER X (m/s²),ACCELEROMETER Y (m/s²),ACCELEROMETER Z (m/s²),GRAVITY X (m/s²),GRAVITY Y (m/s²),GRAVITY Z (m/s²),LINEAR ACCELERATION X (m/s²),LINEAR ACCELERATION Y (m/s²),LINEAR ACCELERATION Z (m/s²),GYROSCOPE X (rad/s),GYROSCOPE Y (rad/s),GYROSCOPE Z (rad/s),LIGHT (lux),MAGNETIC FIELD X (μT),MAGNETIC FIELD Y (μT),MAGNETIC FIELD Z (μT),ORIENTATION X (°),ORIENTATION Y (°),ORIENTATION Z (°),PROXIMITY (i),SOUND LEVEL (dB),LOCATION Latitude : ,LOCATION Longitude : ,LOCATION Altitude ( m),LOCATION Altitude-google ( m),LOCATION Speed ( Kmh),LOCATION Accuracy ( m),LOCATION ORIENTATION (°),Satellites in range,Time since start in ms ,YYYY-MO-DD HH-MI-SS_SSS
-1.20488,-6.25904,4.04022,0.5592,-9.3956,2.75348,-2.92781,2.95235,1.61728,-0.83202,0.77922,0.19453,97.0,29.82,37.98,-18.0,270.199,72.473,-11.661,1.97,53.9153,,,,NaN,,,,0 / 0,4,2014-12-14 13:39:32:198
-3.47698,-7.69077,4.09049,0.32845,-9.44692,2.61148,-3.80543,1.75615,1.47902,-0.8757,0.14859,0.26484,113.0,29.94,38.88,-17.28,266.099,74.431,-7.169,1.97,53.9153,,,,NaN,,,,0 / 0,54,2014-12-14 13:39:32:248
1.93631,-9.34996,5.369,0.05492,-9.55705,2.19788,1.88139,0.2071,3.17112,-0.73082,-0.34463,0.14446,113.0,30.18,39.12,-15.48,260.393,77.045,-1.431,1.97,43.4541,,,,NaN,,,,0 / 0,104,2014-12-14 13:39:32:298
2.87244,-9.26377,4.35864,0.15966,-9.58519,2.0662,2.71278,0.32142,2.29245,-0.96731,0.14539,-0.02172,113.0,30.54,39.3,-14.58,260.393,77.045,-1.431,1.97,43.4541,,,,NaN,,,,0 / 0,154,2014-12-14 13:39:32:348
-2.50733,-7.06349,-1.68911,0.05282,-9.71836,1.31232,-2.56015,2.65487,-3.00143,-1.34441,-0.02398,0.13381,127.0,31.14,40.2,-13.8,264.329,79.169,-5.596,1.97,43.4541,,,,NaN,,,,0 / 0,204,2014-12-14 13:39:32:398
-2.17214,-9.74021,-6.61159,-0.03187,-9.7869,0.62174,-2.14027,0.04669,-7.23333,-2.96894,1.16379,0.32769,127.0,30.96,40.8,-12.42,264.329,79.169,-5.596,1.97,43.4541,,,,NaN,,,,0 / 0,253,2014-12-14 13:39:32:447
3.20524,-19.51813,-4.75848,-0.28596,-9.6223,-1.87137,3.4912,-9.89583,-2.88711,-4.18441,2.36327,0.72396,127.0,30.6,41.04,-9.96,103.485,88.69,145.387,1.97,43.4541,,,,NaN,,,,0 / 0,304,2014-12-14 13:39:32:498
0.91638,-18.67058,6.49906,0.10534,-8.92618,-4.06012,0.81104,-9.7444,10.55918,-3.79772,1.66659,-0.42226,59.0,31.14,41.04,-8.34,60.623,72.68,175.935,1.97,43.4541,,,,NaN,,,,0 / 0,354,2014-12-14 13:39:32:548
-9.98442,-10.81042,17.02158,1.01634,-8.19864,-5.28415,-2.59666,-2.37206,17.91461,-2.29037,3.18992,-0.21027,59.0,31.92,41.16,-3.12,60.623,72.68,175.935,1.97,43.4541,,,,NaN,,,,0 / 0,403,2014-12-14 13:39:32:597
-7.89668,-6.12018,13.00411,1.43488,-8.21121,-5.16624,-7.79163,3.96046,15.82867,1.2314,1.60054,0.00704,59.0,32.28,39.0,11.94,55.345,56.722,-169.113,1.97,56.0767,,,,NaN,,,,0 / 0,454,2014-12-14 13:39:32:648
-7.63571,-9.44333,0.46567,1.57284,-8.83445,-3.95612,-9.20855,-0.60888,4.42179,1.56908,0.98269,-0.06859,59.0,30.72,36.06,17.94,70.108,58.513,-161.354,1.97,56.0767,,,,NaN,,,,0 / 0,503,2014-12-14 13:39:32:697
0.71287,-16.03696,-4.48314,1.22419,-9.15393,-3.29816,-0.51131,-6.88303,-1.18498,2.58535,-2.43681,0.89654,51.0,25.08,31.98,24.78,94.054,68.977,-159.636,1.97,56.0767,,,,NaN,,,,0 / 0,554,2014-12-14 13:39:32:748
-1.70527,-19.51813,2.57018,0.66843,-9.72929,-1.03295,-2.3737,-9.78884,3.60312,3.74755,-3.91966,0.00385,51.0,23.22,31.74,25.38,94.054,68.977,-159.636,1.97,56.0767,,,,NaN,,,,0 / 0,604,2014-12-14 13:39:32:798
-0.27593,-19.51813,-0.42497,0.71392,-9.74814,0.79787,-0.98985,-9.76999,-1.22284,5.79179,0.02928,0.65579,51.0,23.04,35.28,18.84,97.221,82.793,-147.093,1.97,56.0767,,,,NaN,,,,0 / 0,653,2014-12-14 13:39:32:847
2.54444,-19.51813,-5.06733,0.25618,-8.97377,3.94654,-0.00539,-10.54436,-11.0226,5.75131,0.69507,0.90293,51.0,24.36,36.78,12.72,324.802,78.337,-17.769,1.97,56.0767,,,,NaN,,,,0 / 0,704,2014-12-14 13:39:32:898
-1.03968,-4.25031,-9.03691,-0.03846,-8.38539,5.08469,0.81597,-2.5591,-13.26926,3.1755,-0.8698,1.09574,51.0,25.26,37.98,2.46,324.802,78.337,-17.769,1.97,56.0767,,,,NaN,,,,0 / 0,754,2014-12-14 13:39:32:948
-1.43951,4.65134,-9.26676,-0.01826,-7.52049,6.29376,-1.42126,12.17182,-15.56051,1.59039,-1.84559,0.86245,69.0,25.92,33.6,-10.98,300.545,53.386,1.78,1.97,62.0203,,,,NaN,,,,0 / 0,804,2014-12-14 13:39:32:998
3.21003,5.8221,-13.07354,0.42572,-7.45779,6.35376,2.78431,13.27989,-19.4273,-1.26878,-1.78593,-0.19536,69.0,27.84,29.16,-15.6,285.628,49.507,-3.833,1.97,62.0203,,,,NaN,,,,0 / 0,854,2014-12-14 13:39:33:048
5.45579,-1.33177,14.0408,0.78799,-8.05709,5.53465,4.6678,6.72531,8.50615,-2.219,1.81573,-0.35621,69.0,29.94,24.96,-18.36,285.628,49.507,-3.833,1.97,62.0203,,,,NaN,,,,0 / 0,903,2014-12-14 13:39:33:097
-7.58543,-19.51813,18.94891,0.60858,-7.91314,5.7603,-8.19401,-11.60499,13.18861,-0.22056,-0.8517,0.75912,89.0,29.4,18.48,-23.34,266.446,55.245,-8.103,1.97,62.0203,,,,NaN,,,,0 / 0,954,2014-12-14 13:39:33:148
-2.93589,-17.48785,-19.40141,0.39325,-8.06726,5.56188,-6.02022,-5.55395,-21.97533,-1.31778,0.77283,-0.26673,89.0,28.86,19.98,-23.04,262.374,53.796,-6.031,1.97,62.0203,,,,NaN,,,,0 / 0,1004,2014-12-14 13:39:33:198
2.53726,-19.51813,-0.88226,0.38502,-8.82922,4.25061,8.44181,-10.68891,-6.53348,-3.52181,-0.83146,0.50878,89.0,28.86,22.2,-21.0,262.374,53.796,-6.031,1.97,62.0203,,,,NaN,,,,0 / 0,1054,2014-12-14 13:39:33:248
-5.78499,-16.30751,-7.22211,0.66454,-9.48747,2.39121,-7.52453,-9.05382,-7.78415,-4.83422,1.01039,-0.27419,141.0,30.78,24.48,-16.86,261.733,64.201,-5.176,1.97,62.0203,,,,NaN,,,,0 / 0,1104,2014-12-14 13:39:33:298
2.15418,-19.51813,13.15973,0.57865,-9.76101,0.74864,-0.09801,-9.75712,7.80704,-4.73302,1.57817,-0.27632,141.0,29.82,25.92,-14.82,285.225,84.463,-37.702,1.97,67.2374,,,,NaN,,,,0 / 0,1154,2014-12-14 13:39:33:348
1.25875,-7.78894,10.17895,0.75208,-9.68544,-1.3409,0.50667,1.89651,11.51985,-3.6571,1.24901,-0.40096,141.0,28.5,27.78,-13.02,285.225,84.463,-37.702,1.97,67.2374,,,,NaN,,,,0 / 0,1203,2014-12-14 13:39:33:397
-6.88393,-2.72041,12.0153,0.81672,-9.61706,-1.73729,-5.62009,6.20951,10.34804,-1.40407,0.74407,-0.42759,141.0,26.1,31.86,-3.6,36.9,80.98,-150.713,1.97,67.2374,,,,NaN,,,,0 / 0,1253,2014-12-14 13:39:33:447
-1.59035,-2.25354,10.53329,0.90845,-9.55571,-2.00874,-2.4988,7.30217,12.54203,0.35149,-0.75689,0.0912,63.0,26.64,32.82,3.48,58.884,77.009,-155.665,1.97,67.2374,,,,NaN,,,,0 / 0,1304,2014-12-14 13:39:33:498
3.84449,-3.57035,7.17423,0.98955,-9.72869,-0.73771,1.73265,5.31992,7.07951,2.03993,0.49054,-0.12612,63.0,26.04,32.22,8.22,47.719,82.77,-126.705,1.97,67.2374,,,,NaN,,,,0 / 0,1354,2014-12-14 13:39:33:548
3.84449,-3.57035,7.17423,0.98955,-9.72869,-0.73771,1.73265,5.31992,7.07951,2.03993,0.49054,-0.12612,63.0,26.04,32.22,8.22,47.719,82.77,-126.705,1.97,67.2374,,,,NaN,,,,0 / 0,1404,2014-12-14 13:39:33:598
7.38791,-19.51813,-3.07296,0.75911,-9.30551,3.00038,5.66154,-10.21262,-7.18425,5.90365,1.44928,-0.81108,63.0,24.72,32.58,9.06,18.354,84.196,-90.735,1.97,67.2374,,,,NaN,,,,0 / 0,1453,2014-12-14 13:39:33:647
2.32896,-19.51813,-5.90769,0.63865,-8.80812,4.26392,4.31315,-10.82,-12.10793,5.24744,0.65885,1.66459,63.0,21.78,33.18,5.82,18.354,84.196,-90.735,1.97,67.2374,,,,NaN,,,,0 / 0,1504,2014-12-14 13:39:33:698
-2.49536,-4.34847,-8.92678,0.01646,-7.52513,6.28837,-2.51182,3.17666,-15.21515,4.05648,-0.52466,2.43371,133.0,19.92,33.96,1.14,314.558,57.507,-1.849,1.97,67.3027,,,,NaN,,,,0 / 0,1553,2014-12-14 13:39:33:747
4.07194,6.80612,-9.71208,0.93583,-6.95097,6.85415,2.06829,16.49366,-20.81354,0.98532,-2.35052,0.02515,133.0,18.84,30.84,-12.54,308.371,50.116,-0.15,1.97,67.3027,,,,NaN,,,,0 / 0,1604,2014-12-14 13:39:33:798
-1.06123,3.31298,-1.4042,1.12258,-7.08684,6.68491,2.46274,14.16634,-12.37398,-1.31991,-0.85809,0.39373,133.0,19.32,25.08,-18.48,287.207,46.274,-9.533,1.97,67.3027,,,,NaN,,,,0 / 0,1654,2014-12-14 13:39:33:848
-0.38128,-0.58957,7.46632,0.85099,-7.61625,6.11883,3.41204,1.78892,6.86328,-0.92044,0.94114,0.12635,119.0,19.08,22.44,-21.48,287.207,46.274,-9.533,1.97,67.3027,,,,NaN,,,,0 / 0,1703,2014-12-14 13:39:33:897
9.07343,1.072,-10.0736,0.94885,-7.50732,6.23779,6.75644,4.19584,-4.16337,0.39942,0.64713,0.14766,119.0,16.2,21.84,-25.26,261.107,50.954,-7.918,1.97,67.3027,,,,NaN,,,,0 / 0,1754,2014-12-14 13:39:33:948
-11.50713,-0.92237,-19.40141,1.10672,-7.55595,6.1525,1.33656,-11.98597,-25.60314,-1.6054,-1.67514,-1.8625,119.0,15.96,23.4,-24.78,261.02,51.314,-8.479,1.97,67.3027,,,,NaN,,,,0 / 0,1803,2014-12-14 13:39:33:997
-11.52868,8.08941,-19.40141,0.49814,-7.69062,6.06436,-12.11316,15.65598,-25.61242,-2.17426,2.72227,0.32342,165.0,15.84,24.3,-23.76,261.02,51.314,-8.479,1.97,67.3027,,,,NaN,,,,0 / 0,1854,2014-12-14 13:39:34:048
0.7009,-19.51813,-3.19746,0.59271,-9.07223,3.6763,-2.01307,-10.4459,-7.78355,-3.45364,-2.39207,-1.56316,165.0,15.6,25.14,-22.5,267.883,51.649,-4.696,1.97,62.3375,,,,NaN,,,,0 / 0,1904,2014-12-14 13:39:34:098
4.93146,-19.51813,7.89727,1.01424,-9.66928,1.28404,4.85095,-9.84885,7.64274,-4.36657,-0.07725,-0.30508,165.0,14.04,27.48,-18.42,257.092,74.398,-19.977,1.97,62.3375,,,,NaN,,,,0 / 0,1953,2014-12-14 13:39:34:147
6.18841,-19.51813,9.63786,1.04327,-9.70669,0.92925,5.14514,-9.81144,8.70861,-4.02249,1.72198,-0.3136,179.0,13.98,28.62,-16.08,257.092,74.398,-19.977,1.97,62.3375,,,,NaN,,,,0 / 0,2004,2014-12-14 13:39:34:198
-3.45783,-4.1306,7.47829,1.04612,-9.73692,-0.52074,-4.50394,5.60632,7.99903,-2.37985,2.65516,-0.39563,179.0,12.84,31.5,-10.08,350.932,83.156,-116.463,1.97,62.3375,,,,NaN,,,,0 / 0,2054,2014-12-14 13:39:34:248
-0.23762,-3.84808,16.58344,1.29736,-9.5792,-1.65185,-1.53498,5.73112,18.23529,-0.65625,-0.90496,0.28934,179.0,11.34,33.6,-1.2,23.955,79.809,-131.623,1.97,62.3375,,,,NaN,,,,0 / 0,2104,2014-12-14 13:39:34:298
8.4246,-1.36769,10.50935,1.17944,-9.61646,-1.51807,7.24515,8.24877,12.02742,0.95017,0.32862,0.13807,179.0,11.64,34.56,5.58,23.955,79.809,-131.623,1.97,62.3375,,,,NaN,,,,0 / 0,2154,2014-12-14 13:39:34:348
-6.31411,-11.57656,3.11845,1.26534,-9.71253,-0.48587,-7.57944,-1.86404,3.60432,1.83434,0.63541,0.38414,83.0,12.84,35.28,10.32,47.504,80.79,-120.205,1.97,62.3375,,,,NaN,,,,0 / 0,2204,2014-12-14 13:39:34:398
-2.809,-19.51813,-1.94529,0.51041,-9.78121,0.48767,-3.31941,-9.73692,-2.43296,2.65459,-1.98088,2.80869,83.0,13.08,35.46,10.92,356.981,85.872,-46.305,1.97,59.4367,,,,NaN,,,,0 / 0,2254,2014-12-14 13:39:34:448
5.66887,-19.51813,-4.89734,0.47061,-9.6003,1.94544,5.19826,-9.91783,-6.84278,5.3593,0.41064,-1.29471,83.0,12.84,36.6,10.44,356.981,85.872,-46.305,1.97,59.4367,,,,NaN,,,,0 / 0,2304,2014-12-14 13:39:34:498
1.31142,-11.52389,-5.88375,0.01347,-8.26463,5.27892,5.17567,-10.49827,-9.38467,5.47754,1.26392,0.82943,173.0,12.9,38.94,8.64,335.664,66.893,-8.875,1.97,59.4367,,,,NaN,,,,0 / 0,2354,2014-12-14 13:39:34:548
-0.48662,1.27791,-9.65941,0.44757,-7.46901,6.3391,-0.93419,8.74692,-15.9985,1.67028,-2.0906,0.10291,173.0,18.9,41.82,-5.4,327.952,56.638,0.143,1.97,59.4367,,,,NaN,,,,0 / 0,2404,2014-12-14 13:39:34:598
2.89878,7.3927,-11.86686,0.8465,-7.26161,6.53632,2.05228,14.65431,-18.40318,0.18637,-1.20962,-0.26247,173.0,21.0,38.7,-13.62,308.394,47.772,-7.379,1.97,59.4367,,,,NaN,,,,0 / 0,2454,2014-12-14 13:39:34:648
3.71999,6.8971,-2.65158,1.03908,-7.43295,6.31216,2.68091,14.33005,-8.96374,-1.28689,-0.37552,-0.03131,235.0,22.38,34.92,-18.9,308.394,47.772,-7.379,1.97,59.4367,,,,NaN,,,,0 / 0,2503,2014-12-14 13:39:34:697
8.20912,2.13742,-5.19183,0.9071,-7.00633,6.80148,8.18787,11.02799,-20.43526,0.16507,-0.62373,-0.00468,235.0,22.86,30.24,-25.44,278.294,47.938,-7.053,1.97,59.4367,,,,NaN,,,,0 / 0,2554,2014-12-14 13:39:34:748
0.8661,7.03596,-19.40141,1.06796,-7.15866,6.61698,-18.05228,-12.18125,13.35935,-0.72656,5.80408,0.33621,235.0,21.48,28.44,-27.84,278.294,47.938,-7.053,1.97,59.7204,,,,NaN,,,,0 / 0,2604,2014-12-14 13:39:34:798
-3.33333,3.04004,-19.40141,0.32561,-7.66085,6.11359,-3.65894,10.70089,-25.51501,-0.32283,0.38721,0.28188,235.0,20.88,26.4,-26.82,273.184,46.884,-9.168,1.97,59.7204,,,,NaN,,,,0 / 0,2654,2014-12-14 13:39:34:848
4.9961,-17.42081,-7.89249,0.40627,-8.29471,5.21577,4.58983,-9.1261,-13.10825,-4.49334,-0.11347,-0.44144,289.0,21.24,25.14,-25.98,260.346,51.369,-3.049,1.97,59.7204,,,,NaN,,,,0 / 0,2704,2014-12-14 13:39:34:898
1.78308,-19.51813,8.81186,0.74205,-9.47416,2.42084,1.04103,-10.04398,6.39102,-3.87655,-0.37552,-0.34663,289.0,22.02,24.54,-21.12,256.13,75.037,-17.042,1.97,59.7204,,,,NaN,,,,0 / 0,2753,2014-12-14 13:39:34:947
5.7383,-18.62509,14.13896,0.84036,-9.69203,1.2375,4.89794,-8.93307,12.90146,-3.48879,2.12678,-0.01639,289.0,21.18,24.6,-18.66,256.13,75.037,-17.042,1.97,59.7204,,,,NaN,,,,0 / 0,2804,2014-12-14 13:39:34:998
0.51415,-3.56556,6.78876,0.74849,-9.77163,0.35479,-0.23433,6.20607,6.43397,-2.3415,2.40588,-0.10907,183.0,19.5,26.28,-14.88,301.962,85.155,-64.639,1.97,59.7204,,,,NaN,,,,0 / 0,2854,2014-12-14 13:39:35:048
-0.62549,-3.36445,15.99207,1.00242,-9.73273,-0.66409,-1.62791,6.36828,16.65616,-0.05544,-0.35741,0.15511,183.0,16.98,28.8,-5.4,14.38,82.957,-123.524,1.97,59.7204,,,,NaN,,,,0 / 0,2904,2014-12-14 13:39:35:098
6.56909,-0.25199,7.45435,1.07993,-9.74665,-0.08844,5.48916,9.49466,7.54278,1.2005,1.20746,0.15618,183.0,15.78,28.32,-1.08,14.38,82.957,-123.524,1.97,66.4944,,,,NaN,,,,0 / 0,2954,2014-12-14 13:39:35:148
1.62267,-3.73795,5.06015,1.25486,-9.69936,0.72021,0.36781,5.96141,4.33994,1.7065,0.93156,-0.02705,137.0,14.94,27.6,1.86,342.32,81.516,-60.147,1.97,66.4944,,,,NaN,,,,0 / 0,3005,2014-12-14 13:39:35:199
-0.97264,-19.51813,3.49194,0.35509,-9.47311,2.51122,-1.32773,-10.04502,0.98072,3.42904,-0.96994,1.10639,137.0,11.46,25.14,3.9,333.318,78.737,-32.94,1.97,66.4944,,,,NaN,,,,0 / 0,3054,2014-12-14 13:39:35:248
2.15897,-19.51813,-5.56293,0.41719,-8.6712,4.5614,1.74178,-10.84693,-10.12433,5.99739,0.47562,-0.05687,137.0,8.76,24.0,2.94,333.318,78.737,-32.94,1.97,66.4944,,,,NaN,,,,0 / 0,3104,2014-12-14 13:39:35:298
4.48853,-17.25082,-7.36816,0.16116,-7.7234,6.04102,4.32737,-9.52743,-13.40918,4.09802,-2.65625,2.78632,137.0,7.02,24.54,0.84,336.896,51.959,-1.528,1.97,66.4944,,,,NaN,,,,0 / 0,3154,2014-12-14 13:39:35:348
-0.27593,0.98102,-9.61152,1.07679,-6.56011,7.20939,-1.08383,0.62953,-14.15467,2.63968,-2.97477,1.17244,283.0,6.12,24.96,-1.74,336.896,51.959,-1.528,1.97,66.4944,,,,NaN,,,,0 / 0,3204,2014-12-14 13:39:35:398
4.32812,10.158,-12.15895,1.55937,-6.50864,7.16764,2.7885,16.63895,-19.35592,-0.49114,-0.91774,0.09972,283.0,7.2,23.7,-13.62,334.401,41.986,-8.495,1.97,66.4944,,,,NaN,,,,0 / 0,3254,2014-12-14 13:39:35:448
2.69527,4.27305,-2.89818,1.68746,-6.76272,6.89844,1.00781,11.03577,-9.79662,-1.35294,-0.66101,-0.1357,283.0,7.74,20.88,-17.4,293.484,43.599,-13.745,1.97,66.4944,,,,NaN,,,,0 / 0,3303,2014-12-14 13:39:35:497
3.29861,-5.99089,13.94742,1.82797,-6.81539,6.81016,1.47064,0.8245,7.13727,0.07132,0.40958,0.05711,535.0,7.62,19.5,-18.84,293.484,43.599,-13.745,1.97,56.4365,,,,NaN,,,,0 / 0,3354,2014-12-14 13:39:35:548
8.14687,0.21009,-3.60208,1.80613,-6.65079,6.97685,6.34074,6.86088,-10.57893,-0.0629,0.55765,0.26057,535.0,7.08,19.2,-17.94,286.459,42.702,-14.514,1.97,56.4365,,,,NaN,,,,0 / 0,3404,2014-12-14 13:39:35:598
-11.16715,2.47022,-19.40141,1.40899,-6.55966,7.15238,-12.57614,9.02988,-26.55379,-1.99849,1.09561,0.04752,535.0,4.86,19.56,-14.58,305.993,41.982,-11.144,1.97,56.4365,,,,NaN,,,,0 / 0,3454,2014-12-14 13:39:35:648
-12.15357,0.59316,-19.17396,1.1549,-6.9176,6.85445,-13.30847,7.51076,-26.02841,-4.54127,0.91132,0.03793,615.0,5.7,19.38,-13.62,305.993,41.982,-11.144,1.97,56.4365,,,,NaN,,,,0 / 0,3504,2014-12-14 13:39:35:698
-4.45142,-19.51813,2.04345,1.47588,-8.87381,3.90479,-5.92729,-10.64432,-1.86134,-4.43262,-0.68764,-0.07179,615.0,7.44,21.84,-10.44,288.491,55.972,-10.542,1.97,56.4365,,,,NaN,,,,0 / 0,3554,2014-12-14 13:39:35:748
6.59782,-19.51813,10.96185,1.51329,-9.40906,2.3128,5.08454,-10.10907,8.64905,-4.22382,1.98617,-0.33597,615.0,7.44,23.58,-6.6,296.453,73.63,-33.197,1.97,56.4365,,,,NaN,,,,0 / 0,3604,2014-12-14 13:39:35:798
0.96187,-8.2582,8.10318,1.27237,-9.64758,1.21536,-0.3105,1.38939,6.88782,-2.97107,3.3529,0.2936,359.0,6.42,25.32,-1.5,296.453,73.63,-33.197,1.97,65.543,,,,NaN,,,,0 / 0,3653,2014-12-14 13:39:35:847
-6.20158,-2.62464,11.26592,1.29257,-9.71747,0.2677,-7.49415,7.09282,10.99822,-1.36252,0.25405,-0.25714,359.0,5.46,26.28,5.58,353.968,81.928,-62.115,1.97,65.543,,,,NaN,,,,0 / 0,3704,2014-12-14 13:39:35:898
4.22756,-0.97743,9.36013,1.31397,-9.71358,0.30436,2.91359,8.73614,9.05577,0.29929,0.3904,0.15192,359.0,5.04,26.46,8.7,36.268,82.095,-76.958,1.97,65.543,,,,NaN,,,,0 / 0,3753,2014-12-14 13:39:35:947
3.59549,-2.52648,4.69623,1.6734,-9.61481,0.96277,1.9221,7.08833,3.73346,0.96934,1.63357,-0.55009,359.0,3.72,28.2,14.16,32.763,78.646,-60.087,1.97,65.543,,,,NaN,,,,0 / 0,3803,2014-12-14 13:39:35:997
-19.64203,-19.51813,-6.66665,1.21341,-9.5177,2.02804,-13.63318,-10.01659,-6.37307,2.645,-4.37239,4.58555,259.0,3.36,30.54,14.04,32.763,78.646,-60.087,1.97,65.543,,,,NaN,,,,0 / 0,3854,2014-12-14 13:39:36:048
-6.19679,-19.51813,-0.38906,0.22505,-9.39949,2.78775,-2.21,-10.21022,-4.59058,3.92012,-2.53694,0.19133,259.0,3.3,32.76,13.38,354.964,73.43,-4.615,1.97,65.543,,,,NaN,,,,0 / 0,3903,2014-12-14 13:39:36:097
7.48128,-19.51813,-7.29872,0.71153,-8.07624,5.51699,6.76976,-11.44189,-12.81571,5.9633,-0.1646,0.42889,259.0,4.92,35.46,8.4,349.44,66.974,-6.806,1.97,65.543,,,,NaN,,,,0 / 0,3954,2014-12-14 13:39:36:148
9.03272,-18.79508,-5.27083,0.30556,-7.10464,6.75285,8.72716,-11.69044,-12.02368,4.35262,-1.81682,2.79271,635.0,10.38,33.72,1.26,349.44,66.974,-6.806,1.97,63.5667,,,,NaN,,,,0 / 0,4004,2014-12-14 13:39:36:198
2.2308,-7.70514,-6.49188,0.32516,-6.14711,7.63406,1.90563,-1.55803,-14.12594,3.47484,-1.71776,1.63903,635.0,13.38,31.44,-6.06,327.444,38.816,-2.439,1.97,63.5667,,,,NaN,,,,0 / 0,4053,2014-12-14 13:39:36:247
1.20847,2.22601,-5.58448,0.9478,-5.07975,8.33467,0.26067,7.30576,-13.91914,0.32379,-1.9862,0.04646,635.0,12.3,23.22,-21.96,302.142,31.198,-6.488,1.97,63.5667,,,,NaN,,,,0 / 0,4103,2014-12-14 13:39:36:297
-0.082,4.50768,-6.9779,2.4367,-4.99849,8.07759,-2.78446,8.88608,-14.29653,0.11713,-2.78408,-0.02066,891.0,11.34,20.7,-23.94,302.142,31.198,-6.488,1.97,63.5667,,,,NaN,,,,0 / 0,4154,2014-12-14 13:39:36:348
-3.14897,-6.68521,15.19959,3.31911,-5.09651,7.69272,-6.87989,3.59235,-4.37076,-0.53268,-3.70447,-0.05368,891.0,8.52,16.5,-27.66,284.036,30.644,-16.787,1.97,63.5667,,,,NaN,,,,0 / 0,4204,2014-12-14 13:39:36:398
9.99998,-14.29398,19.82459,4.34263,-5.0157,7.22181,5.13302,-0.57057,-13.54609,0.52832,-1.96277,0.26803,891.0,6.48,15.96,-29.28,274.358,32.139,-28.109,1.97,63.5667,,,,NaN,,,,0 / 0,4254,2014-12-14 13:39:36:448
19.58397,-19.51813,9.49421,4.21634,-4.6449,7.5377,15.36763,-14.87323,1.95651,3.86579,0.35418,-0.17618,891.0,0.18,15.54,-29.64,273.664,29.967,-30.745,1.97,63.5667,,,,NaN,,,,0 / 0,4304,2014-12-14 13:39:36:498
-18.13428,-0.93194,-19.40141,4.11339,-3.93951,7.98302,-22.24767,3.00757,-27.38443,1.15896,3.08765,-0.99857,1053.0,-4.5,15.48,-28.8,273.664,29.967,-30.745,1.97,71.6528,,,,NaN,,,,0 / 0,4353,2014-12-14 13:39:36:547
18.17139,-19.51813,3.32196,3.96704,-3.87651,8.08731,-9.57965,-2.68659,-4.00879,-0.5476,-1.31509,0.36391,1053.0,-7.92,14.52,-28.86,290.535,23.284,-26.129,1.97,71.6528,,,,NaN,,,,0 / 0,4404,2014-12-14 13:39:36:598
-6.27341,-7.20236,1.00916,3.33722,-4.62784,7.97598,-10.25227,-5.5122,-5.79127,-0.60619,1.4333,0.22649,1053.0,-7.74,12.6,-31.02,232.715,28.158,-22.705,1.97,71.6528,,,,NaN,,,,0 / 0,4454,2014-12-14 13:39:36:648
-4.78661,-8.16004,0.77213,2.58245,-5.11027,7.96147,-7.36905,-3.04976,-7.18934,-1.09195,1.71027,0.38841,1127.0,-7.44,12.24,-31.74,232.715,28.158,-22.705,1.97,71.6528,,,,NaN,,,,0 / 0,4503,2014-12-14 13:39:36:697
2.22362,-10.64043,8.43358,2.13473,-6.08052,7.3918,0.08888,-4.55991,1.04178,-0.67756,-1.24265,-0.09522,1127.0,-5.82,13.92,-31.26,190.226,35.983,-15.087,1.97,71.6528,,,,NaN,,,,0 / 0,4554,2014-12-14 13:39:36:748
6.2746,-6.43382,5.71376,2.29679,-6.19904,7.24351,3.97782,-0.23478,-1.52975,-0.40165,0.40212,-0.05474,1127.0,-3.9,14.76,-31.56,214.823,39.207,-17.593,1.97,71.6528,,,,NaN,,,,0 / 0,4603,2014-12-14 13:39:36:797
2.55401,-3.98694,6.19979,1.84204,-6.34643,7.2456,0.71198,2.35949,-1.04582,-0.04479,2.17685,-0.6971,1399.0,-1.92,16.74,-31.56,218.672,40.328,-14.264,1.97,71.6528,,,,NaN,,,,0 / 0,4654,2014-12-14 13:39:36:848
-4.23355,-9.8264,5.13915,1.10492,-6.2749,7.45495,-5.33847,-3.5515,-2.31579,0.07665,2.23438,-0.93146,1399.0,-1.74,17.52,-31.2,218.672,40.328,-14.264,1.97,66.5242,,,,NaN,,,,0 / 0,4704,2014-12-14 13:39:36:898
-2.48099,-9.88386,3.06817,0.56982,-6.2981,7.49535,-3.20943,-3.2814,-4.53103,0.53578,0.72383,-0.19003,1399.0,-0.24,18.42,-30.66,201.168,39.816,-6.128,1.97,66.5242,,,,NaN,,,,0 / 0,4754,2014-12-14 13:39:36:948
-0.48423,-8.50001,2.93409,0.31633,-6.35705,7.46048,-2.13907,-2.61282,-4.96632,0.14802,0.34779,0.1125,1123.0,1.98,18.66,-30.3,213.67,40.409,-2.428,1.97,66.5242,,,,NaN,,,,0 / 0,4803,2014-12-14 13:39:36:997
1.05764,-7.65007,2.13922,0.38726,-6.61308,7.23094,0.74041,-0.92566,-3.52292,-0.17156,-0.59497,0.01769,1123.0,3.18,18.6,-30.54,213.67,40.409,-2.428,1.97,66.5242,,,,NaN,,,,0 / 0,4854,2014-12-14 13:39:37:048
2.20207,-9.33798,5.36421,0.58404,-6.85565,6.98793,0.59735,-2.55057,-2.62509,-0.44746,-0.15714,-0.02811,1123.0,4.62,17.82,-30.6,224.43,42.404,-3.066,1.97,66.5242,,,,NaN,,,,0 / 0,4904,2014-12-14 13:39:37:098
0.45909,-8.28454,5.01944,0.58284,-7.19832,6.63433,-0.00329,-1.58765,-1.53049,-0.56464,0.07189,0.14446,1123.0,4.44,17.7,-30.6,215.801,45.891,-5.151,1.97,66.5242,,,,NaN,,,,0 / 0,4954,2014-12-14 13:39:37:148
1.29706,-7.92301,5.23971,0.59346,-7.32491,6.49337,0.55875,-1.16972,-1.16747,-0.26317,-0.1891,-0.02492,1123.0,3.48,18.06,-31.32,208.084,48.325,-5.222,1.97,66.5242,,,,NaN,,,,0 / 0,5012,2014-12-14 13:39:37:206
1.21566,-9.15124,5.10324,0.6602,-7.41215,6.38713,0.55545,-1.73909,-1.28389,-0.20991,-0.1891,-0.059,1123.0,3.36,18.24,-30.96,208.084,48.325,-5.222,1.97,66.1762,,,,NaN,,,,0 / 0,5054,2014-12-14 13:39:37:248
1.76632,-8.18398,4.84467,0.72529,-7.57226,6.18916,1.04103,-0.61172,-1.34449,-0.03094,0.32755,-0.03663,1199.0,3.66,20.1,-30.78,210.647,50.01,-6.677,1.97,66.1762,,,,NaN,,,,0 / 0,5104,2014-12-14 13:39:37:298
1.36888,-7.80809,4.96198,0.71452,-7.60159,6.1543,0.65437,-0.2065,-1.19231,-0.02242,0.35845,-0.11546,1199.0,3.48,20.28,-30.54,210.871,50.818,-6.622,1.97,66.1762,,,,NaN,,,,0 / 0,5154,2014-12-14 13:39:37:348
-0.32142,-9.14405,4.89255,0.64703,-7.74883,5.97548,-0.96845,-1.39522,-1.08293,-0.24506,0.13474,-0.13251,1199.0,2.88,20.1,-30.3,210.871,50.818,-6.622,1.97,66.1762,,,,NaN,,,,0 / 0,5204,2014-12-14 13:39:37:398
1.08158,-9.27334,5.17028,0.68085,-7.92256,5.7392,0.40073,-1.35078,-0.56892,-0.18754,0.06976,-0.1421,1111.0,3.24,20.34,-30.06,209.335,52.201,-6.18,1.97,66.1762,,,,NaN,,,,0 / 0,5253,2014-12-14 13:39:37:447
1.66816,-8.27496,4.43286,0.73622,-7.97568,5.6584,0.93194,-0.29928,-1.22553,-0.22482,0.13261,-0.1357,1111.0,3.06,20.1,-29.52,208.501,53.89,-6.765,1.97,66.1762,,,,NaN,,,,0 / 0,5303,2014-12-14 13:39:37:497
0.47824,-9.04829,4.60285,0.74744,-8.0909,5.49095,-0.2692,-0.95738,-0.8881,-0.17156,0.1667,-0.17831,1111.0,3.84,21.6,-29.64,214.514,55.592,-7.752,1.97,66.1762,,,,NaN,,,,0 / 0,5354,2014-12-14 13:39:37:548
-1.22164,-7.33883,-0.68833,0.7419,-8.15196,5.40042,-1.96354,0.81313,-6.08875,-0.38674,-0.3915,-0.24649,1111.0,3.84,21.48,-29.46,214.514,55.592,-7.752,1.97,52.6174,,,,NaN,,,,0 / 0,5403,2014-12-14 13:39:37:597
0.63626,-7.68599,3.41772,0.98611,-8.28124,5.15936,-0.34985,0.59526,-1.74163,-0.29939,-0.3638,-0.10588,1111.0,4.14,22.02,-28.86,216.515,57.116,-9.153,1.97,52.6174,,,,NaN,,,,0 / 0,5454,2014-12-14 13:39:37:648
0.9068,-9.58459,5.32111,1.0717,-8.36744,5.00089,-0.36003,-1.19456,0.33653,-0.13108,-0.03783,-0.09416,1119.0,3.9,22.08,-28.68,219.875,58.338,-11.983,1.97,52.6174,,,,NaN,,,,0 / 0,5503,2014-12-14 13:39:37:697
0.66738,-9.6612,5.71137,1.02861,-8.36729,5.01002,0.52029,-0.79233,-0.16864,0.06174,0.61304,-0.01213,1119.0,3.54,22.38,-28.68,219.875,58.338,-11.983,1.97,52.6174,,,,NaN,,,,0 / 0,5554,2014-12-14 13:39:37:748
-0.46029,-6.97491,3.53264,0.73637,-8.34095,5.10474,-1.19665,1.36604,-1.57209,0.12459,0.06763,-0.02598,1119.0,2.28,22.62,-29.1,220.156,58.565,-11.602,1.97,52.6174,,,,NaN,,,,0 / 0,5604,2014-12-14 13:39:37:798