ACCELEROMETER X (m/s²),ACCELEROMETER Y (m/s²),ACCELEROMETER Z (m/s²),GRAVITY X (m/s²),GRAVITY Y (m/s²),GRAVITY Z (m/s²),LINEAR ACCELERATION X (m/s²),LINEAR ACCELERATION Y (m/s²),LINEAR ACCELERATION Z (m/s²),GYROSCOPE X (rad/s),GYROSCOPE Y (rad/s),GYROSCOPE Z (rad/s),LIGHT (lux),MAGNETIC FIELD X (μT),MAGNETIC FIELD Y (μT),MAGNETIC FIELD Z (μT),ORIENTATION X (°),ORIENTATION Y (°),ORIENTATION Z (°),PROXIMITY (i),SOUND LEVEL (dB),LOCATION Latitude : ,LOCATION Longitude : ,LOCATION Altitude ( m),LOCATION Altitude-google ( m),LOCATION Speed ( Kmh),LOCATION Accuracy ( m),LOCATION ORIENTATION (°),Satellites in range,Time since start in ms ,YYYY-MO-DD HH-MI-SS_SSS
-3.18968,-8.72268,-15.7718,-0.31454,-9.79363,-0.39594,-3.76578,-1.88109,-15.9792,-4.06191,2.63172,0.40545,101.0,32.1,35.46,-8.22,238.964,86.762,18.376,1.97,45.7061,,,,NaN,,,,0 / 0,4,2014-12-14 13:43:58:364
5.29538,-19.51813,-2.69228,-0.40791,-9.65522,-1.66831,-1.82887,-9.86291,-0.06629,-3.9671,-0.09323,0.22862,101.0,31.8,35.82,-6.48,82.015,79.914,166.26,1.97,45.7061,,,,NaN,,,,0 / 0,54,2014-12-14 13:43:58:414
-1.50655,-11.58614,8.8765,-0.04609,-8.96419,-3.97662,-1.16119,-5.6578,16.25289,-1.92925,3.22401,-0.23371,101.0,32.28,36.42,-0.18,65.98,66.076,179.336,1.97,45.7061,,,,NaN,,,,0 / 0,104,2014-12-14 13:43:58:464
-2.49296,-11.2318,9.06564,0.33833,-8.79061,-4.3338,-2.83129,-2.44119,13.39945,-1.42751,3.31562,-0.42652,45.0,32.28,36.6,3.06,65.98,66.076,179.336,1.97,45.7061,,,,NaN,,,,0 / 0,153,2014-12-14 13:43:58:513
-5.50726,-5.82809,9.19014,1.12887,-8.77535,-4.22966,-6.63613,2.94726,13.4198,0.66254,0.45752,-0.38284,45.0,30.78,31.98,14.4,64.975,62.173,-167.825,1.97,59.5559,,,,NaN,,,,0 / 0,204,2014-12-14 13:43:58:564
-4.46578,-13.34348,-0.26217,1.18154,-8.93411,-3.86753,-12.44925,-1.74223,10.33068,2.06869,-0.36593,0.68029,45.0,28.38,30.9,18.48,81.911,65.646,-163.012,1.97,59.5559,,,,NaN,,,,0 / 0,254,2014-12-14 13:43:58:614
-2.42353,-19.51813,4.44484,0.14455,-9.58489,-2.06919,-1.29481,-9.89,6.72681,4.13424,-4.17425,0.18601,45.0,25.5,30.42,20.94,114.278,77.789,-176.004,1.97,59.5559,,,,NaN,,,,0 / 0,304,2014-12-14 13:43:58:664
-3.52007,-19.51813,-0.34596,0.17792,-9.80051,0.30032,-1.05509,-9.83164,-3.19865,6.4693,0.03141,0.67177,45.0,25.5,30.72,19.86,114.278,77.789,-176.004,1.97,59.5559,,,,NaN,,,,0 / 0,354,2014-12-14 13:43:58:714
1.85012,-19.51813,-7.13352,-0.41061,-8.73195,4.44484,3.44181,-10.29342,-9.85917,6.45012,0.16244,1.43237,45.0,28.56,30.72,13.98,306.435,75.566,-0.182,1.97,59.5559,,,,NaN,,,,0 / 0,403,2014-12-14 13:43:58:763
2.79104,-8.21989,-10.33936,-0.60798,-7.92645,5.74219,3.37957,-0.54453,-16.41494,4.03304,-1.49511,0.81025,45.0,31.32,28.32,0.66,295.346,53.927,6.044,1.97,59.5559,,,,NaN,,,,0 / 0,453,2014-12-14 13:43:58:813
0.23164,10.30405,-12.633,-0.16296,-6.90458,6.96204,2.59322,7.61985,-17.46046,2.64393,-1.65384,0.22329,73.0,31.38,27.24,-2.22,295.346,53.927,6.044,1.97,59.5559,,,,NaN,,,,0 / 0,504,2014-12-14 13:43:58:864
5.08708,6.41107,-12.05121,0.55785,-7.09671,6.74507,4.36134,12.31143,-16.72455,-1.62991,-1.44078,-0.37112,73.0,32.4,23.58,-10.26,291.128,44.755,1.341,1.97,59.5559,,,,NaN,,,,0 / 0,553,2014-12-14 13:43:58:913
-2.61028,-4.93026,17.06707,0.80161,-7.47934,6.29181,-4.10845,0.0838,9.87638,-2.25628,0.10918,-0.55861,73.0,31.98,21.54,-16.62,277.483,49.701,-7.261,1.97,64.0848,,,,NaN,,,,0 / 0,603,2014-12-14 13:43:58:963
6.59064,0.44472,-2.5582,0.00539,-7.8883,5.82614,3.14778,3.46815,6.84128,-0.32815,1.31825,0.55246,87.0,28.98,21.42,-22.8,258.313,53.551,-0.053,1.97,64.0848,,,,NaN,,,,0 / 0,653,2014-12-14 13:43:59:013
-14.75127,-1.05405,15.02481,0.13078,-8.10018,5.52642,-3.94774,10.59913,-18.03253,-2.30529,-0.15288,-0.4393,87.0,27.06,22.98,-23.16,258.313,53.551,-0.053,1.97,64.0848,,,,NaN,,,,0 / 0,703,2014-12-14 13:43:59:063
-5.90231,3.11186,-19.40141,0.23658,-8.41936,5.02289,-6.13888,11.53122,-24.4243,-2.12526,1.52278,0.10079,87.0,25.92,25.5,-20.88,259.196,57.034,-0.958,1.97,64.0848,,,,NaN,,,,0 / 0,754,2014-12-14 13:43:59:114
8.41023,-19.51813,-1.53588,0.04534,-9.40158,2.78939,5.05266,-10.06058,-5.89617,-4.28881,1.8136,-0.12718,87.0,26.28,26.28,-19.5,254.923,65.902,0.548,1.97,64.0848,,,,NaN,,,,0 / 0,804,2014-12-14 13:43:59:164
-5.10264,-19.51813,7.76799,0.46029,-9.67691,1.52256,-8.13984,-9.81084,0.63506,-4.57004,0.53315,-0.95915,113.0,23.58,27.96,-18.24,258.747,80.666,-16.821,1.97,64.0848,,,,NaN,,,,0 / 0,853,2014-12-14 13:43:59:213
0.46866,-10.77211,13.65533,0.85308,-9.72585,-0.92326,-2.76426,-9.79228,18.90731,-3.95858,1.14568,-0.14742,113.0,22.62,29.76,-14.64,258.747,80.666,-16.821,1.97,64.0848,,,,NaN,,,,0 / 0,903,2014-12-14 13:43:59:263
-2.49296,-4.60704,10.45189,0.80475,-9.57905,-1.94065,-8.71235,5.60976,14.39798,-1.23896,0.57789,-0.22625,113.0,20.82,33.3,-5.82,32.051,79.864,-153.002,1.97,63.7904,,,,NaN,,,,0 / 0,954,2014-12-14 13:43:59:314
-4.90153,-5.86639,12.5947,0.7229,-9.53401,-2.17992,-7.61341,3.54087,15.50769,0.25561,-1.22347,0.25099,59.0,19.26,33.54,-0.36,49.556,75.728,-158.654,1.97,63.7904,,,,NaN,,,,0 / 0,1004,2014-12-14 13:43:59:364
9.49241,-2.75872,7.36097,0.59526,-9.6407,-1.69509,8.89715,6.88198,9.05607,2.04206,0.31797,0.40758,59.0,18.66,32.76,4.14,66.118,79.444,-160.65,1.97,63.7904,,,,NaN,,,,0 / 0,1054,2014-12-14 13:43:59:414
-8.27496,-18.63467,0.22865,0.70838,-9.76999,-0.46672,-8.98334,-8.86468,0.69537,2.85273,0.6237,0.02409,59.0,17.58,32.16,7.14,66.118,79.444,-160.65,1.97,63.7904,,,,NaN,,,,0 / 0,1104,2014-12-14 13:43:59:464
-1.34135,-19.51813,-3.21422,0.22176,-9.63053,1.83755,-0.92596,-9.94013,-7.79627,3.40134,-3.79821,1.53783,59.0,17.34,31.62,6.18,333.701,86.255,-41.363,1.97,63.7904,,,,NaN,,,,0 / 0,1154,2014-12-14 13:43:59:514
5.80774,-19.51813,-10.16937,0.06,-8.52276,4.85065,1.80029,-10.44007,-13.77579,5.51589,0.96884,0.74208,59.0,16.02,31.26,1.32,310.599,69.418,-6.515,1.97,63.7904,,,,NaN,,,,0 / 0,1204,2014-12-14 13:43:59:564
2.15418,-8.20553,-8.07205,-0.32067,-7.98167,5.68862,2.70485,3.45902,-12.55864,1.78,-1.46635,0.77297,153.0,14.76,31.02,-8.28,306.689,54.479,3.226,1.97,63.7904,,,,NaN,,,,0 / 0,1254,2014-12-14 13:43:59:614
3.49494,9.51635,-14.29458,0.05282,-7.44941,6.3777,1.86613,13.00486,-14.91124,0.95016,-1.92868,-0.03663,153.0,15.06,30.24,-13.62,306.689,54.479,3.226,1.97,63.0475,,,,NaN,,,,0 / 0,1303,2014-12-14 13:43:59:663
3.9211,2.12306,2.21823,0.33384,-7.62478,6.15804,4.14825,11.99525,-7.14624,-2.01234,-0.2658,-0.52559,153.0,16.74,28.14,-17.04,285.982,51.033,-3.103,1.97,63.0475,,,,NaN,,,,0 / 0,1353,2014-12-14 13:43:59:713
-0.17298,-4.75309,7.68898,0.33264,-8.28902,5.22983,-0.24226,3.57843,2.51675,-0.85013,1.99576,0.8763,153.0,18.72,24.9,-22.32,258.399,57.699,-3.639,1.97,63.0475,,,,NaN,,,,0 / 0,1404,2014-12-14 13:43:59:764
1.64901,-6.93899,7.33224,-0.2472,-8.41951,5.02214,1.89621,1.48051,2.31011,-0.91725,0.57683,0.55352,153.0,18.3,25.44,-23.04,258.399,57.699,-3.639,1.97,63.0475,,,,NaN,,,,0 / 0,1454,2014-12-14 13:43:59:814
16.86416,-19.51813,-19.40141,-0.08365,-8.67629,4.57023,16.94781,-10.84184,-23.97164,-1.81313,-4.33724,-1.81243,153.0,17.1,27.66,-22.56,248.208,61.776,-0.536,1.97,63.0475,,,,NaN,,,,0 / 0,1503,2014-12-14 13:43:59:863
8.82204,0.47585,-19.40141,-0.31005,-8.82338,4.26886,8.39751,4.5846,-23.07202,0.14589,3.09298,1.54422,233.0,17.52,30.9,-18.9,254.192,64.123,4.154,1.97,63.0475,,,,NaN,,,,0 / 0,1554,2014-12-14 13:43:59:914
-10.50157,-19.51813,-2.1895,-0.30586,-9.49855,2.41964,-10.19571,-10.01958,-4.60914,-4.6723,1.64955,-0.36899,233.0,18.06,32.82,-17.82,254.192,64.123,4.154,1.97,63.0475,,,,NaN,,,,0 / 0,1604,2014-12-14 13:43:59:964
-3.5105,-17.98105,12.36007,0.02125,-9.79303,-0.51834,-3.53175,-8.18802,12.87841,-3.46749,-0.56514,-1.03585,233.0,18.48,35.28,-18.06,216.859,85.799,11.682,1.97,63.9189,,,,NaN,,,,0 / 0,1654,2014-12-14 13:44:00:014
7.18919,-16.02499,14.52682,-0.07422,-9.75562,-0.99778,7.26341,-6.26937,15.5246,-3.10423,3.23147,0.86352,233.0,18.84,37.2,-15.0,49.302,84.144,175.746,1.97,63.9189,,,,NaN,,,,0 / 0,1703,2014-12-14 13:44:00:063
-16.62115,-2.39241,12.39837,0.39639,-9.51186,-2.3538,-17.01754,7.11946,14.75217,-1.41899,-0.84317,-0.87606,89.0,17.76,40.08,-4.26,49.302,84.144,175.746,1.97,63.9189,,,,NaN,,,,0 / 0,1754,2014-12-14 13:44:00:114
-16.62115,-2.39241,12.39837,0.39639,-9.51186,-2.3538,-17.01754,7.11946,14.75217,-1.41899,-0.84317,-0.87606,89.0,17.58,40.32,3.72,64.434,75.913,-170.441,1.97,63.9189,,,,NaN,,,,0 / 0,1804,2014-12-14 13:44:00:164
6.29855,-6.04835,4.045,0.03083,-9.70101,-1.43577,3.11456,1.21057,4.29325,2.2647,-0.03783,-0.09842,89.0,17.7,38.94,13.8,71.909,74.857,-172.121,1.97,63.9189,,,,NaN,,,,0 / 0,1853,2014-12-14 13:44:00:213
-7.11617,-19.51813,-2.72819,-0.6798,-9.78016,0.24406,1.98883,-9.73797,6.86552,3.33955,-1.87754,0.87843,89.0,17.58,38.88,14.04,136.249,86.115,166.959,1.97,63.9189,,,,NaN,,,,0 / 0,1904,2014-12-14 13:44:00:264
1.52211,-19.51813,-6.41287,-0.42587,-9.63202,1.79266,1.10762,-9.88611,-12.3044,5.82481,1.54196,-1.38845,89.0,20.64,41.22,11.76,301.828,79.17,13.364,1.97,63.9189,,,,NaN,,,,0 / 0,1954,2014-12-14 13:44:00:314
7.24186,-19.51813,-9.02255,-0.58688,-8.95761,3.94819,7.82874,-10.56052,-12.97074,3.69002,-2.50818,1.91067,89.0,23.04,42.48,7.92,301.828,79.17,13.364,1.97,62.7511,,,,NaN,,,,0 / 0,2004,2014-12-14 13:44:00:364
-0.07003,-11.50953,-7.99304,-0.85892,-8.29292,5.1634,0.78889,-3.21661,-13.15644,2.71744,-2.94494,0.97537,139.0,25.32,42.24,2.52,303.164,65.982,8.455,1.97,62.7511,,,,NaN,,,,0 / 0,2053,2014-12-14 13:44:00:413
2.89639,6.97371,-14.8213,-0.1842,-7.41724,6.41257,3.08059,14.39095,-21.23387,-0.74574,-1.14464,-0.05687,139.0,27.48,35.22,-12.72,295.124,49.143,1.645,1.97,62.7511,,,,NaN,,,,0 / 0,2103,2014-12-14 13:44:00:463
0.77273,3.70084,3.15197,0.1233,-7.87483,5.8432,0.64943,11.57567,-2.69123,-2.30422,0.25512,-0.09629,139.0,24.96,25.74,-20.76,267.882,53.418,-1.209,1.97,62.7511,,,,NaN,,,,0 / 0,2154,2014-12-14 13:44:00:514
1.4048,-3.85526,14.66808,0.1661,-8.14687,5.45639,1.2387,4.29161,9.21169,-0.33028,1.33529,0.07629,269.0,22.32,22.86,-23.22,267.882,53.418,-1.209,1.97,62.7511,,,,NaN,,,,0 / 0,2204,2014-12-14 13:44:00:564
7.93139,-5.06673,3.65714,0.15487,-8.04137,5.61096,7.77652,2.97465,-1.95382,-0.9492,-1.59205,-0.20601,269.0,20.22,21.9,-23.88,252.21,55.084,-1.581,1.97,62.7511,,,,NaN,,,,0 / 0,2254,2014-12-14 13:44:00:614
-6.18243,-6.81928,-15.92982,0.06524,-8.35172,5.13975,-6.24767,1.53244,-21.06957,-0.4677,1.90202,-0.78977,269.0,17.58,22.8,-21.0,256.314,57.358,-2.492,1.97,62.0094,,,,NaN,,,,0 / 0,2303,2014-12-14 13:44:00:663
2.55162,2.37684,-19.40141,-0.34851,-8.35187,5.12778,2.90013,10.72872,-24.52919,-2.25522,1.77844,-0.33917,269.0,16.74,22.62,-19.08,256.314,57.358,-2.492,1.97,62.0094,,,,NaN,,,,0 / 0,2354,2014-12-14 13:44:00:714
-0.16101,-19.51813,4.59328,0.39759,-9.59297,1.99706,-0.5586,-9.92516,2.59621,-3.69865,-1.86796,-1.75064,195.0,14.34,21.9,-15.6,236.981,69.937,2.236,1.97,62.0094,,,,NaN,,,,0 / 0,2404,2014-12-14 13:44:00:764
2.46782,-19.51813,8.64666,0.90112,-9.71851,0.95349,1.56671,-9.79962,7.69317,-3.38759,-0.74836,-1.11468,195.0,14.22,21.24,-12.54,278.854,82.312,-43.382,1.97,62.0094,,,,NaN,,,,0 / 0,2453,2014-12-14 13:44:00:813
0.93793,-4.55437,8.03853,0.91803,-9.74545,-0.59526,0.0199,5.19108,8.63379,-2.48745,3.11429,-0.418,195.0,11.46,22.44,-6.84,0.413,83.594,-122.96,1.97,62.0094,,,,NaN,,,,0 / 0,2504,2014-12-14 13:44:00:864
-10.2813,-1.70766,5.45519,1.09759,-9.69502,-0.98656,-11.37889,7.98736,6.44175,-1.5628,-0.0389,-1.05716,129.0,10.26,23.34,-4.62,0.413,83.594,-122.96,1.97,62.0094,,,,NaN,,,,0 / 0,2554,2014-12-14 13:44:00:914
5.00089,-2.39001,7.8877,1.2161,-9.65402,-1.22179,3.78478,7.26401,9.10949,1.2985,0.69081,0.2936,129.0,8.16,25.26,1.92,29.655,78.238,-141.062,1.97,62.0094,,,,NaN,,,,0 / 0,2604,2014-12-14 13:44:00:964
4.46459,-3.06518,4.94522,1.32878,-9.69816,-0.59197,3.13581,6.63299,5.53719,1.54991,0.33821,0.27123,129.0,7.08,26.04,4.14,37.188,81.469,-114.013,1.97,69.2424,,,,NaN,,,,0 / 0,2654,2014-12-14 13:44:01:014
-6.08905,-19.51813,-2.08415,0.6394,-9.74365,0.908,-6.72845,-9.77448,-2.99215,2.52888,-1.36195,2.38684,129.0,5.94,26.88,5.22,349.126,83.498,-35.153,1.97,69.2424,,,,NaN,,,,0 / 0,2705,2014-12-14 13:44:01:065
-0.14425,-19.51813,-6.09444,0.36063,-9.54493,2.22137,-0.50488,-9.9732,-8.31581,4.88099,-0.25301,-0.48298,129.0,5.52,27.36,3.72,349.126,83.498,-35.153,1.97,69.2424,,,,NaN,,,,0 / 0,2753,2014-12-14 13:44:01:113
4.92906,-19.04408,-9.86531,0.04714,-8.27137,5.26799,4.88193,-10.77271,-15.1333,4.1662,-2.19712,2.31654,207.0,5.22,26.28,-2.4,337.792,67.034,-5.946,1.97,69.2424,,,,NaN,,,,0 / 0,2804,2014-12-14 13:44:01:164
0.69133,-5.98371,-8.63948,0.10011,-7.65307,6.1311,0.59122,1.66936,-14.77058,2.34672,-2.64453,1.28856,207.0,6.3,22.8,-7.62,323.273,51.297,-0.935,1.97,69.2424,,,,NaN,,,,0 / 0,2853,2014-12-14 13:44:01:213
2.91554,6.78457,-11.68011,0.46477,-7.19278,6.64975,2.45076,13.97735,-18.32986,1.25589,-1.63999,0.46298,207.0,7.38,20.82,-9.9,323.273,51.297,-0.935,1.97,69.2424,,,,NaN,,,,0 / 0,2903,2014-12-14 13:44:01:263
2.74316,8.45333,-5.81432,0.66035,-7.42262,6.37486,2.08281,15.87595,-12.18918,-2.35961,-0.12944,-0.08989,207.0,7.92,20.34,-10.68,300.771,49.191,-5.914,1.97,69.2424,,,,NaN,,,,0 / 0,2954,2014-12-14 13:44:01:314
-0.54169,-6.37396,12.78623,0.79353,-7.88126,5.7817,-1.33522,1.5073,7.00454,-0.11404,-0.06979,0.48002,489.0,7.92,22.2,-12.6,290.456,53.481,-7.815,1.97,61.2116,,,,NaN,,,,0 / 0,3004,2014-12-14 13:44:01:364
6.29376,-5.75626,8.40485,0.6415,-7.68838,6.05374,5.65226,1.93212,2.35111,0.71687,1.06365,0.60466,489.0,7.98,23.58,-12.78,290.456,53.481,-7.815,1.97,61.2116,,,,NaN,,,,0 / 0,3054,2014-12-14 13:44:01:414
14.9081,-19.51813,-19.40141,0.20635,-7.76305,5.9885,14.70175,-11.75508,-25.38991,-2.49703,-0.58218,-0.27419,489.0,8.7,27.3,-10.74,305.974,51.872,-6.863,1.97,61.2116,,,,NaN,,,,0 / 0,3104,2014-12-14 13:44:01:464
2.47261,-6.66606,-19.40141,0.23104,-8.53159,4.83015,-4.77224,-10.86339,-2.29394,-5.05473,1.67724,-1.18286,671.0,9.48,30.48,-9.24,313.17,54.863,-2.396,1.97,61.2116,,,,NaN,,,,0 / 0,3154,2014-12-14 13:44:01:514
-2.54563,-19.08957,-5.25647,0.36108,-9.07552,3.69799,-1.34823,-10.36779,-9.85498,-3.99373,-0.39576,-1.32986,671.0,10.32,32.22,-8.04,297.791,67.735,-5.577,1.97,61.2116,,,,NaN,,,,0 / 0,3203,2014-12-14 13:44:01:563
-3.08433,-19.51813,1.28209,0.70195,-9.71642,1.12647,-0.66768,-9.77807,15.53104,-4.86938,0.98589,-0.64809,671.0,10.08,33.0,-7.44,297.791,67.735,-5.577,1.97,61.2116,,,,NaN,,,,0 / 0,3254,2014-12-14 13:44:01:614
3.23397,-19.51813,19.82459,0.6403,-9.77074,0.54184,2.59367,-9.74739,19.28275,-3.79026,3.47861,0.18388,375.0,9.12,35.04,-4.8,304.507,85.093,-49.761,1.97,61.2116,,,,NaN,,,,0 / 0,3304,2014-12-14 13:44:01:664
-2.43311,-3.54641,7.1862,0.6394,-9.78241,-0.25917,-3.07251,6.236,7.44537,-0.74041,2.12998,-0.57992,375.0,7.8,36.6,1.44,304.507,85.093,-49.761,1.97,67.413,,,,NaN,,,,0 / 0,3353,2014-12-14 13:44:01:713
-1.90638,-3.94864,10.35851,0.67711,-9.78331,-0.00494,-2.58349,5.83467,10.36345,-0.07356,-0.03677,-0.27525,375.0,5.52,35.64,10.08,48.809,85.614,-107.882,1.97,67.413,,,,NaN,,,,0 / 0,3404,2014-12-14 13:44:01:764
4.29939,-0.00539,3.37223,0.82899,-9.76071,0.46298,3.4704,9.75532,2.90925,0.87133,0.51185,-0.31573,233.0,5.52,34.86,11.7,27.629,84.444,-60.817,1.97,67.413,,,,NaN,,,,0 / 0,3454,2014-12-14 13:44:01:814
-4.86083,-4.20721,3.00353,1.08412,-9.63382,1.47812,-5.94495,5.42661,1.52541,1.30703,1.58563,0.06137,233.0,5.64,35.7,10.92,15.105,81.245,-50.096,1.97,67.413,,,,NaN,,,,0 / 0,3503,2014-12-14 13:44:01:863
-19.64203,-19.51813,-7.57645,0.48857,-9.57187,2.07637,-20.1306,-9.94626,-9.65282,1.86736,-1.09031,3.15384,233.0,6.9,36.78,9.06,15.105,81.245,-50.096,1.97,67.413,,,,NaN,,,,0 / 0,3553,2014-12-14 13:44:01:913
11.77887,-19.51813,-1.00676,-0.19034,-8.93606,4.03513,11.96921,-10.58207,-5.04189,6.03467,-0.38937,-3.03961,233.0,8.34,37.02,6.18,329.788,73.577,8.182,1.97,67.413,,,,NaN,,,,0 / 0,3604,2014-12-14 13:44:01:964
14.42447,-19.51813,-12.98974,0.56458,-6.54724,7.27912,13.85988,-12.97089,-20.26886,3.66233,-0.73132,3.41056,461.0,12.72,34.26,0.84,329.72,53.407,-5.216,1.97,67.413,,,,NaN,,,,0 / 0,3654,2014-12-14 13:44:02:014
7.86196,-3.71401,-7.95473,-0.34716,-4.92577,8.47263,7.62493,3.12952,-17.73699,3.29055,-0.15714,3.42867,461.0,15.06,24.9,-12.0,316.52,30.152,2.346,1.97,63.2127,,,,NaN,,,,0 / 0,3704,2014-12-14 13:44:02:064
-1.05165,5.08469,-14.0384,-0.32681,-4.19359,8.8587,-0.7416,10.57115,-20.71598,1.56908,-0.5971,0.68668,461.0,11.82,21.12,-17.52,316.52,30.152,2.346,1.97,63.2127,,,,NaN,,,,0 / 0,3753,2014-12-14 13:44:02:113
2.72879,3.07595,-2.20386,-0.26351,-4.18087,8.86693,4.06491,9.43555,-13.99171,-0.81498,-0.86022,0.68668,729.0,9.96,19.02,-21.54,309.674,25.317,2.113,1.97,63.2127,,,,NaN,,,,0 / 0,3804,2014-12-14 13:44:02:164
0.73442,-0.27593,2.891,0.91848,-4.88791,8.45183,-0.18405,4.61198,-5.56083,-1.45307,-2.02775,-0.33917,729.0,10.56,15.78,-27.0,279.676,27.244,-1.062,1.97,63.2127,,,,NaN,,,,0 / 0,3854,2014-12-14 13:44:02:214
0.22206,-10.54227,8.14627,0.89812,-5.64328,7.9697,-0.67606,-4.89899,0.17657,-0.80646,0.26364,0.79427,729.0,8.82,14.4,-29.7,255.076,32.502,-7.978,1.97,63.2127,,,,NaN,,,,0 / 0,3904,2014-12-14 13:44:02:264
1.86209,-10.94928,8.98664,0.90665,-5.8613,7.80989,0.95544,-5.08798,1.17675,0.08091,-0.7963,0.31064,1203.0,7.62,14.94,-29.64,255.076,32.502,-7.978,1.97,63.2127,,,,NaN,,,,0 / 0,3954,2014-12-14 13:44:02:314
-5.37798,7.69437,-9.95868,2.3939,-5.49769,7.75976,-7.77188,13.19205,-17.71844,-0.58275,2.61894,1.08083,1203.0,3.66,18.6,-29.04,258.722,34.834,-9.368,1.97,63.2127,,,,NaN,,,,0 / 0,4003,2014-12-14 13:44:02:363
-4.61662,0.39444,-19.40141,1.91267,-4.67842,8.4038,-6.52929,5.07286,-27.80521,0.24389,-0.77606,-1.64092,1203.0,3.36,19.08,-28.92,279.15,31.945,-11.935,1.97,62.9303,,,,NaN,,,,0 / 0,4053,2014-12-14 13:44:02:413
3.56916,12.57136,-16.90426,1.10582,-4.03348,8.87007,2.46333,16.60484,-25.77433,-1.31352,3.66396,-1.07526,1203.0,1.2,18.96,-29.76,279.15,31.945,-11.935,1.97,62.9303,,,,NaN,,,,0 / 0,4103,2014-12-14 13:44:02:463
-4.52803,-16.76959,2.99395,0.19453,-4.57682,8.6709,-4.72256,-12.19277,-5.67695,0.3174,-0.1401,-0.73331,1125.0,-0.78,16.08,-31.92,304.609,27.666,-4.257,1.97,62.9303,,,,NaN,,,,0 / 0,4153,2014-12-14 13:44:02:513
2.58993,-4.58549,4.96917,-0.23822,-4.83733,8.52725,3.06203,2.8075,-3.48341,-0.04479,0.88682,0.27016,1125.0,0.72,14.7,-32.28,200.541,29.032,0.17,1.97,62.9303,,,,NaN,,,,0 / 0,4203,2014-12-14 13:44:02:563
1.10073,-4.2527,6.09923,-0.41031,-4.92143,8.47233,1.29197,-0.40267,-1.67474,-0.38781,0.83675,-0.11014,1125.0,5.46,14.88,-32.34,227.234,30.122,2.773,1.97,62.9303,,,,NaN,,,,0 / 0,4254,2014-12-14 13:44:02:614
-0.35255,-9.2494,8.93396,-0.93583,-5.35583,8.16138,2.04644,-2.05512,-0.20126,-0.01497,0.87297,-0.21027,967.0,6.42,14.58,-32.64,227.234,30.122,2.773,1.97,62.9303,,,,NaN,,,,0 / 0,4304,2014-12-14 13:44:02:664
-0.85533,-4.12581,3.1783,-1.15191,-5.45848,8.06532,2.52977,1.73849,-4.90991,0.0319,1.11905,-0.52559,967.0,7.2,14.28,-32.22,208.593,33.103,6.541,1.97,62.9303,,,,NaN,,,,0 / 0,4353,2014-12-14 13:44:02:713
-0.50817,-10.39862,3.41054,-1.41198,-5.61695,7.91373,-1.83935,-3.81441,-2.85913,-0.22908,0.01224,-0.43398,967.0,8.94,15.54,-30.9,213.969,33.822,8.128,1.97,67.384,,,,NaN,,,,0 / 0,4403,2014-12-14 13:44:02:763
-0.34297,-9.49361,6.25246,-1.17241,-6.0705,7.61207,0.60469,-3.70024,0.76614,-0.28767,-0.21786,-0.41374,847.0,10.14,15.72,-30.48,218.082,36.681,10.088,1.97,67.384,,,,NaN,,,,0 / 0,4454,2014-12-14 13:44:02:814
0.39205,-9.73542,5.73292,-0.95409,-6.42005,7.3514,1.44475,-3.78463,-1.24364,-0.23974,0.24872,-0.24329,847.0,10.92,15.72,-30.12,218.082,36.681,10.088,1.97,67.384,,,,NaN,,,,0 / 0,4504,2014-12-14 13:44:02:864
-1.37487,-6.08426,4.42808,-1.02397,-6.69,7.09686,-0.35464,0.52882,-2.74121,-0.4709,0.29879,-0.22944,847.0,11.28,16.92,-29.34,220.305,40.894,7.395,1.97,67.384,,,,NaN,,,,0 / 0,4554,2014-12-14 13:44:02:914
0.48303,-8.96928,6.98748,-0.9493,-6.84368,6.95935,0.5369,-2.23574,0.00419,-0.42083,-0.10814,-0.2859,825.0,10.56,17.64,-29.34,220.411,44.256,7.768,1.97,67.384,,,,NaN,,,,0 / 0,4603,2014-12-14 13:44:02:963
1.05764,-7.60219,5.61321,-0.76195,-7.00663,6.81884,1.81959,-0.59556,-1.20563,-0.30685,0.22529,-0.17086,825.0,10.74,18.36,-29.7,220.411,44.256,7.768,1.97,67.384,,,,NaN,,,,0 / 0,4654,2014-12-14 13:44:03:014
0.34895,-8.14088,5.1631,-0.70689,-7.14654,6.67818,1.05584,-0.99434,-1.51508,-0.29194,0.30092,-0.19962,825.0,10.74,19.14,-28.26,223.343,45.601,6.376,1.97,67.384,,,,NaN,,,,0 / 0,4703,2014-12-14 13:44:03:063
-0.49859,-7.84161,5.00508,-0.65018,-7.3101,6.5046,0.15158,-0.53151,-1.49952,-0.18647,0.09852,-0.2156,825.0,10.14,19.38,-27.84,219.773,47.559,5.903,1.97,48.9379,,,,NaN,,,,0 / 0,4754,2014-12-14 13:44:03:114
0.2484,-8.40903,4.96917,-0.55336,-7.46467,6.33596,0.64988,-0.99838,-1.24633,-0.14919,0.10598,-0.21986,825.0,10.32,20.34,-27.72,220.512,48.872,5.425,1.97,48.9379,,,,NaN,,,,0 / 0,4804,2014-12-14 13:44:03:164
0.31544,-8.71549,5.29957,-0.53181,-7.52797,6.26233,0.62174,0.42722,-0.67651,-0.34413,-0.50655,-0.20707,801.0,10.08,20.94,-27.72,220.512,48.872,5.425,1.97,48.9379,,,,NaN,,,,0 / 0,4854,2014-12-14 13:44:03:214
1.60831,-8.01878,5.06254,-0.1637,-7.66399,6.11614,1.20354,-0.56324,-0.88705,-0.08421,0.13687,-0.14316,801.0,10.2,20.76,-27.6,223.034,50.937,3.376,1.97,48.9379,,,,NaN,,,,0 / 0,4904,2014-12-14 13:44:03:264
-0.10355,-8.26778,5.76883,-0.15128,-7.71232,6.05524,0.04773,-0.55545,-0.28641,-0.07569,0.60665,-0.09842,801.0,9.9,20.94,-27.48,228.515,51.399,1.533,1.97,48.9379,,,,NaN,,,,0 / 0,4954,2014-12-14 13:44:03:314