ACCELEROMETER X (m/s²),ACCELEROMETER Y (m/s²),ACCELEROMETER Z (m/s²),GRAVITY X (m/s²),GRAVITY Y (m/s²),GRAVITY Z (m/s²),LINEAR ACCELERATION X (m/s²),LINEAR ACCELERATION Y (m/s²),LINEAR ACCELERATION Z (m/s²),GYROSCOPE X (rad/s),GYROSCOPE Y (rad/s),GYROSCOPE Z (rad/s),LIGHT (lux),MAGNETIC FIELD X (μT),MAGNETIC FIELD Y (μT),MAGNETIC FIELD Z (μT),ORIENTATION X (°),ORIENTATION Y (°),ORIENTATION Z (°),PROXIMITY (i),SOUND LEVEL (dB),LOCATION Latitude : ,LOCATION Longitude : ,LOCATION Altitude ( m),LOCATION Altitude-google ( m),LOCATION Speed ( Kmh),LOCATION Accuracy ( m),LOCATION ORIENTATION (°),Satellites in range,Time since start in ms ,YYYY-MO-DD HH-MI-SS_SSS
2.01771,-10.30524,0.25738,0.32456,-9.68709,1.49219,1.69315,-0.61815,-1.23481,-0.97893,-0.28394,-0.03142,107.0,22.74,28.5,-13.8,260.698,81.042,-12.271,1.97,32.4827,,,,NaN,,,,0 / 0,4,2014-12-14 13:30:26:075
-0.46029,-9.38347,1.13605,0.41315,-9.76685,0.78171,-0.87343,0.38337,0.35434,-1.31875,0.45855,-0.13262,119.0,22.74,29.52,-12.42,276.252,84.827,-27.857,1.97,47.0049,,,,NaN,,,,0 / 0,54,2014-12-14 13:30:26:125
-0.21608,-9.21349,3.03944,0.41105,-9.79782,0.082,-0.62713,0.58433,2.95744,-1.44978,0.37226,-0.13688,119.0,22.8,29.76,-11.52,276.252,84.827,-27.857,1.97,47.0049,,,,NaN,,,,0 / 0,104,2014-12-14 13:30:26:175
0.02813,-9.05068,3.24534,0.45445,-9.79468,-0.17358,-0.42632,0.744,3.41892,-1.18026,0.33817,-0.09001,119.0,21.96,29.88,-11.16,323.889,87.55,-78.718,1.97,47.0049,,,,NaN,,,,0 / 0,154,2014-12-14 13:30:26:225
-0.83139,-8.30369,-0.92057,0.43889,-9.76984,-0.72829,-1.27027,1.46615,-0.19228,-1.22287,0.73445,0.07404,119.0,22.26,31.08,-8.94,33.22,85.026,-148.926,1.97,47.0049,,,,NaN,,,,0 / 0,204,2014-12-14 13:30:26:275
1.53887,-9.41939,-4.27245,0.43919,-9.7049,-1.33941,1.09969,0.28551,-2.93305,-1.46895,1.1009,0.03036,79.0,21.84,31.2,-6.9,33.22,85.026,-148.926,1.97,47.0049,,,,NaN,,,,0 / 0,254,2014-12-14 13:30:26:325
2.33614,-13.67628,-0.75776,0.8034,-9.46518,-2.43655,-0.26546,-4.02196,3.56063,-1.78533,1.2266,-0.39574,79.0,19.86,30.9,-3.06,46.334,77.416,-162.279,1.97,47.0049,,,,NaN,,,,0 / 0,303,2014-12-14 13:30:26:374
-3.88639,-12.45284,4.06416,0.9716,-9.3742,-2.71143,-4.77748,-3.64383,7.04105,-1.06735,1.08066,-0.39787,79.0,19.74,31.2,-1.56,46.62,72.931,-160.722,1.97,47.0049,,,,NaN,,,,0 / 0,354,2014-12-14 13:30:26:425
-3.8002,-16.3099,9.26676,0.9909,-9.48224,-2.29724,-3.87277,-6.63882,10.86279,-0.57732,1.03379,-0.18269,57.0,20.4,31.2,1.26,46.62,72.931,-160.722,1.97,52.6763,,,,NaN,,,,0 / 0,403,2014-12-14 13:30:26:474
-2.32297,-12.07216,6.50385,0.96576,-9.60658,-1.71844,-4.55138,-3.59594,11.38054,2.25521,0.4415,0.28816,57.0,18.3,30.72,6.18,58.937,75.22,-156.667,1.97,52.6763,,,,NaN,,,,0 / 0,453,2014-12-14 13:30:26:524
1.2396,-12.68029,-2.83593,0.78246,-9.77298,-0.22012,0.64389,-3.09406,-5.31169,2.73991,0.02392,0.55021,57.0,17.22,30.12,7.68,65.73,80.963,-143.617,1.97,52.6763,,,,NaN,,,,0 / 0,504,2014-12-14 13:30:26:575
-1.05644,-15.21336,-0.21189,0.60573,-9.77523,0.49949,-0.20321,-4.52549,-2.65337,2.42459,-0.98169,0.66206,57.0,17.1,29.58,8.46,65.73,80.963,-143.617,1.97,52.6763,,,,NaN,,,,0 / 0,554,2014-12-14 13:30:26:625
1.36888,-14.45679,-2.65876,0.28521,-9.62095,1.87855,1.21446,-5.19736,-4.95076,3.28959,-0.42349,0.70894,57.0,17.16,29.7,3.36,344.731,85.408,-50.491,1.97,52.6763,,,,NaN,,,,0 / 0,603,2014-12-14 13:30:26:674
2.8485,-11.48798,-2.55342,-0.1251,-9.00759,3.87531,2.81468,-2.21553,-5.74578,3.26722,-0.47569,1.02532,67.0,16.98,29.34,1.14,300.788,72.803,-2.023,1.97,52.6763,,,,NaN,,,,0 / 0,653,2014-12-14 13:30:26:724
-0.46029,-4.92547,-3.74812,0.00464,-8.32434,5.1842,-0.34177,3.67794,-8.45318,2.33937,-2.0608,0.59495,67.0,17.22,26.82,-3.96,302.64,58.086,-0.051,1.97,52.6763,,,,NaN,,,,0 / 0,704,2014-12-14 13:30:26:775
1.50535,-1.61429,-5.52941,0.20785,-8.05963,5.58298,1.26339,6.41452,-11.15518,1.61606,-1.95215,0.4831,67.0,17.34,25.86,-6.84,302.64,58.086,-0.051,1.97,52.5729,,,,NaN,,,,0 / 0,753,2014-12-14 13:30:26:824
1.75196,-0.92715,-3.98754,0.56503,-8.08088,5.52731,1.2782,7.09148,-9.61332,-0.22366,-1.06585,0.38829,85.0,18.18,24.36,-9.78,289.992,54.717,-4.199,1.97,52.5729,,,,NaN,,,,0 / 0,804,2014-12-14 13:30:26:875
2.02968,-11.13364,19.82459,0.66933,-8.32284,5.14319,1.38669,-2.84222,14.62753,-0.75522,-1.58889,0.04314,85.0,18.9,22.68,-14.22,289.992,54.717,-4.199,1.97,52.5729,,,,NaN,,,,0 / 0,854,2014-12-14 13:30:26:925
3.23397,-13.06097,9.94671,0.9499,-8.34559,5.06149,1.40719,-7.99963,9.79947,0.22056,-2.05654,0.0261,85.0,17.58,21.84,-16.5,270.407,58.07,-7.415,1.97,52.5729,,,,NaN,,,,0 / 0,903,2014-12-14 13:30:26:974
8.10138,-19.51813,6.3602,1.40839,-8.15615,5.25961,4.78002,-11.13932,14.56498,0.60086,-0.74307,0.07723,157.0,16.02,22.26,-19.38,266.842,57.897,-13.411,1.97,52.5729,,,,NaN,,,,0 / 0,953,2014-12-14 13:30:27:024
-1.45148,-5.9454,-15.58984,1.67729,-7.89952,5.56368,-2.14954,-1.60606,-19.80798,0.06396,0.68758,0.00373,157.0,15.24,22.74,-19.68,274.802,53.661,-16.777,1.97,52.5729,,,,NaN,,,,0 / 0,1004,2014-12-14 13:30:27:075
-2.50254,-3.02208,-10.94988,1.32115,-8.11664,5.34281,-7.4313,1.92554,-16.66813,-2.08893,1.18399,-0.27111,157.0,14.22,22.26,-20.16,274.802,53.661,-16.777,1.97,52.5729,,,,NaN,,,,0 / 0,1053,2014-12-14 13:30:27:124
-3.94385,-13.22617,2.30202,0.93957,-8.87665,4.06102,-4.52504,1.45777,-6.87989,-1.62128,-0.60033,0.02504,157.0,13.26,21.42,-22.5,258.503,59.509,-14.264,1.97,53.2564,,,,NaN,,,,0 / 0,1104,2014-12-14 13:30:27:175
3.14059,-7.64289,-0.80325,0.81657,-9.40757,2.64619,0.53331,2.75064,-5.06703,-2.64394,0.68012,0.04208,181.0,13.26,21.24,-21.9,246.066,64.846,-13.027,1.97,53.2564,,,,NaN,,,,0 / 0,1153,2014-12-14 13:30:27:224
1.91476,-10.13047,0.77692,0.7826,-9.59641,1.86224,0.15024,-0.41345,0.23403,-2.78881,1.31609,0.06552,181.0,13.8,23.64,-16.86,255.379,78.113,-22.795,1.97,53.2564,,,,NaN,,,,0 / 0,1204,2014-12-14 13:30:27:275
0.71287,-9.21109,1.75615,0.57536,-9.77852,0.46911,-0.97863,-0.25498,0.91369,-2.33927,1.44498,0.22531,181.0,14.46,24.9,-14.4,255.379,78.113,-22.795,1.97,53.2564,,,,NaN,,,,0 / 0,1255,2014-12-14 13:30:27:326
0.25319,-9.56304,1.1959,0.54199,-9.77867,-0.50667,-0.12031,0.6626,1.75465,-1.70224,1.44392,-0.0474,169.0,14.4,26.46,-12.18,319.936,86.934,-87.793,1.97,53.2564,,,,NaN,,,,0 / 0,1303,2014-12-14 13:30:27:374
0.07123,-10.1999,-1.04746,0.56413,-9.74739,-0.91758,-0.51266,-0.48767,0.17852,-1.40823,0.51927,-0.11984,169.0,14.34,27.42,-8.34,319.936,86.934,-87.793,1.97,53.2564,,,,NaN,,,,0 / 0,1354,2014-12-14 13:30:27:425
0.97624,-12.03625,2.42652,0.67576,-9.62245,-1.76752,0.31633,-2.39929,4.11907,-1.7896,1.1808,-0.11132,169.0,15.18,27.6,-2.7,38.481,81.169,-156.368,1.97,53.2564,,,,NaN,,,,0 / 0,1404,2014-12-14 13:30:27:475
-2.33255,-12.57973,2.91015,0.82645,-9.559,-2.02879,-5.3455,-3.65535,4.81983,-1.15044,1.16269,-0.34142,71.0,14.64,27.6,-0.12,49.725,77.092,-157.836,1.97,52.5387,,,,NaN,,,,0 / 0,1453,2014-12-14 13:30:27:524
-1.21446,-13.87739,8.15106,0.76644,-9.59731,-1.86478,-4.30881,-2.33405,6.71589,-0.13417,1.07534,0.07723,71.0,13.8,27.36,3.12,49.725,77.092,-157.836,1.97,52.5387,,,,NaN,,,,0 / 0,1504,2014-12-14 13:30:27:575
-4.39635,-15.10083,9.74799,0.74325,-9.69038,-1.30978,-1.1784,-5.23567,5.39279,1.75454,1.08812,0.12304,71.0,13.44,26.82,5.52,70.89,78.136,-157.657,1.97,52.5387,,,,NaN,,,,0 / 0,1554,2014-12-14 13:30:27:625
3.10229,-15.77599,-8.27795,0.35584,-9.76355,0.8474,0.55381,-4.95854,-4.45157,3.06055,0.972,0.8602,71.0,13.08,26.22,7.98,58.241,85.553,-123.018,1.97,52.5387,,,,NaN,,,,0 / 0,1604,2014-12-14 13:30:27:675
3.2603,-18.53651,-5.71376,0.06599,-9.67871,1.57838,3.03794,-9.2708,-5.52043,2.47359,0.32326,1.03064,71.0,10.92,27.78,10.32,324.504,80.73,-2.394,1.97,52.5387,,,,NaN,,,,0 / 0,1654,2014-12-14 13:30:27:725
-0.43395,-14.59086,-2.87903,-0.39474,-9.29414,3.10408,0.11402,-3.88534,-7.83113,3.08186,-0.69407,0.9401,71.0,10.32,29.94,8.64,324.504,80.73,-2.394,1.97,52.5387,,,,NaN,,,,0 / 0,1704,2014-12-14 13:30:27:775
2.10869,-10.09216,-3.01789,-0.65033,-8.92319,4.01553,3.26704,0.29075,-7.79357,2.93592,-2.1897,1.07752,71.0,10.56,31.2,6.0,320.622,71.393,7.247,1.97,50.1977,,,,NaN,,,,0 / 0,1753,2014-12-14 13:30:27:824
1.43353,-2.85449,-4.70101,-0.43949,-8.29456,5.21322,1.39193,6.78547,-12.1603,2.58758,-2.72659,0.49482,87.0,15.54,34.38,-1.2,315.536,57.759,4.819,1.97,50.1977,,,,NaN,,,,0 / 0,1804,2014-12-14 13:30:27:875
1.83815,-1.80104,-5.42646,0.37589,-7.61446,6.16851,1.47438,5.53405,-10.58432,0.63921,-1.68157,0.34355,87.0,17.94,35.16,-5.16,315.536,57.759,4.819,1.97,50.1977,,,,NaN,,,,0 / 0,1854,2014-12-14 13:30:27:925
0.96187,-3.2208,-2.73538,0.63776,-7.65995,6.0901,0.09263,4.09139,-8.43717,-0.29609,-0.96145,0.5108,87.0,19.86,34.74,-10.98,305.054,50.937,-3.487,1.97,50.1977,,,,NaN,,,,0 / 0,1903,2014-12-14 13:30:27:974
0.92835,-10.60931,8.20134,0.46088,-8.14477,5.44247,0.46747,-2.46453,2.75887,-1.81303,0.58851,0.29135,155.0,18.72,32.64,-20.34,278.712,56.154,-4.84,1.97,50.1977,,,,NaN,,,,0 / 0,1954,2014-12-14 13:30:28:025
0.96187,-14.61002,12.86285,0.67591,-8.2802,5.21068,0.23658,-7.01067,10.37886,0.11829,-2.37932,0.34461,155.0,18.12,32.76,-22.92,278.712,56.154,-4.84,1.97,50.1977,,,,NaN,,,,0 / 0,2003,2014-12-14 13:30:28:074
1.7759,-6.77379,5.15352,0.79158,-8.1358,5.41778,1.75046,2.22631,-0.19243,0.95985,-0.93482,0.29029,155.0,19.08,33.42,-23.34,268.742,57.602,-7.391,1.97,50.1977,,,,NaN,,,,0 / 0,2054,2014-12-14 13:30:28:125
-5.38037,-19.51813,-10.84932,1.13829,-8.3001,5.09741,5.44965,-11.21399,10.43812,-1.62235,-2.11513,-0.01544,233.0,19.14,34.14,-23.04,280.0,55.003,-11.323,1.97,51.6367,,,,NaN,,,,0 / 0,2104,2014-12-14 13:30:28:175
1.73999,1.60591,-15.75265,1.26204,-8.25281,5.14484,8.12622,8.84897,-16.29239,-0.53045,-0.80166,0.21998,233.0,18.48,34.74,-24.36,280.0,55.003,-11.323,1.97,51.6367,,,,NaN,,,,0 / 0,2154,2014-12-14 13:30:28:225
1.58436,-19.51813,4.44244,0.99928,-8.75066,4.31241,-9.06774,3.00996,-19.70772,-3.19681,1.76456,0.4032,233.0,18.06,33.6,-27.06,269.161,58.058,-14.542,1.97,51.6367,,,,NaN,,,,0 / 0,2204,2014-12-14 13:30:28:275
-1.51852,-8.65085,-2.60609,0.83258,-9.27095,3.08672,-2.15852,1.14248,-6.62146,-1.61276,-0.55772,0.05486,233.0,17.94,33.36,-28.44,247.207,70.973,-15.095,1.97,51.6367,,,,NaN,,,,0 / 0,2254,2014-12-14 13:30:28:325
0.23403,-8.24384,-0.49919,0.7841,-9.40442,2.66684,-1.19171,0.94032,-4.31286,-2.24766,0.44044,0.19974,301.0,17.94,33.36,-28.44,247.207,70.973,-15.095,1.97,51.6367,,,,NaN,,,,0 / 0,2303,2014-12-14 13:30:28:374
0.58119,-9.06265,1.239,0.35045,-9.74126,1.07545,0.23074,0.67861,0.16355,-2.24659,2.01916,0.24341,301.0,20.22,36.24,-23.16,244.126,77.789,-16.958,1.97,51.6367,,,,NaN,,,,0 / 0,2354,2014-12-14 13:30:28:425
-0.05567,-9.92696,2.4361,0.27084,-9.79812,0.30676,0.3711,0.71407,1.56611,-1.94725,1.93607,0.02823,301.0,20.7,38.1,-19.92,270.975,87.608,-41.442,1.97,54.3192,,,,NaN,,,,0 / 0,2404,2014-12-14 13:30:28:475
-2.33734,-9.57501,-0.24301,0.23284,-9.79363,-0.44966,-2.69692,0.24855,-0.5378,-1.23992,0.63325,-0.09108,181.0,21.84,39.36,-17.1,270.975,87.608,-41.442,1.97,54.3192,,,,NaN,,,,0 / 0,2454,2014-12-14 13:30:28:525
2.85329,-9.98921,-0.68354,0.26291,-9.7251,-1.23466,0.11043,0.17777,0.19273,-1.48706,0.85269,-0.02716,181.0,23.7,41.04,-12.18,33.592,87.04,-152.625,1.97,54.3192,,,,NaN,,,,0 / 0,2504,2014-12-14 13:30:28:575
-2.12186,-12.26131,3.7146,0.50578,-9.6208,-1.83231,-2.61552,-2.62809,5.48362,-1.45191,1.04551,-0.40746,181.0,24.3,41.28,-3.42,52.286,82.604,-167.979,1.97,54.3192,,,,NaN,,,,0 / 0,2553,2014-12-14 13:30:28:624
-4.10905,-11.81598,1.488,0.46911,-9.61317,-1.88154,-4.58624,-2.20282,3.3673,-0.53684,0.7973,-0.18482,95.0,24.66,42.06,-0.48,58.675,78.824,-164.569,1.97,54.3192,,,,NaN,,,,0 / 0,2604,2014-12-14 13:30:28:675
1.89322,-15.12956,9.77672,0.50039,-9.70594,-1.30963,-0.55366,-6.06765,12.77905,0.6701,1.21275,-0.04634,95.0,24.12,42.54,3.9,67.646,78.879,-166.486,1.97,54.3192,,,,NaN,,,,0 / 0,2653,2014-12-14 13:30:28:724
1.23242,-14.85662,2.12246,0.48527,-9.78211,-0.4965,-1.63988,-5.38815,7.02668,2.79743,1.58986,0.23063,95.0,24.18,42.54,5.76,67.646,78.879,-166.486,1.97,54.3192,,,,NaN,,,,0 / 0,2703,2014-12-14 13:30:28:774
0.80625,-15.22293,-4.77763,0.25753,-9.70579,1.37966,0.41973,-5.44591,-5.43424,3.41742,1.32248,0.29348,95.0,24.54,41.58,7.26,328.003,86.26,-39.208,1.97,52.188,,,,NaN,,,,0 / 0,2754,2014-12-14 13:30:28:825
0.86371,-16.34581,0.43455,-0.23373,-9.49091,2.45735,1.09744,-6.8549,-2.0228,2.38731,-0.3681,1.00188,95.0,24.72,40.5,6.42,328.003,86.26,-39.208,1.97,52.188,,,,NaN,,,,0 / 0,2804,2014-12-14 13:30:28:875
-0.21847,-14.60762,-0.96845,-0.42392,-9.24237,3.25133,0.20545,-5.36526,-4.21978,3.19478,-0.96997,0.95501,95.0,24.72,39.48,3.78,294.246,75.421,5.433,1.97,52.188,,,,NaN,,,,0 / 0,2854,2014-12-14 13:30:28:925
1.31382,-6.63733,-3.68348,-0.62459,-8.54401,4.77299,1.93841,1.90668,-8.45647,2.6973,-2.14389,0.9156,95.0,25.56,35.4,-3.36,294.645,60.603,7.455,1.97,52.188,,,,NaN,,,,0 / 0,2904,2014-12-14 13:30:28:975
1.79266,-2.19848,-6.29076,0.0431,-7.75153,6.0069,1.74956,5.55305,-12.29767,2.19343,-2.55828,0.41599,127.0,25.56,32.16,-7.08,294.645,60.603,7.455,1.97,52.188,,,,NaN,,,,0 / 0,2954,2014-12-14 13:30:29:025
2.17812,-2.27748,-6.73369,0.30631,-7.59575,6.1953,1.87182,5.31827,-12.92899,0.56677,-1.89782,0.19228,127.0,25.38,28.74,-10.5,291.748,52.226,-0.411,1.97,52.188,,,,NaN,,,,0 / 0,3004,2014-12-14 13:30:29:075
1.45268,-5.10982,-0.88945,0.85772,-7.7207,5.9855,0.59496,2.61088,-6.87495,-0.46015,-0.95506,0.39788,127.0,22.32,24.18,-18.3,277.555,51.933,-8.155,1.97,52.188,,,,NaN,,,,0 / 0,3054,2014-12-14 13:30:29:125
3.87561,-12.15357,13.56674,0.7621,-8.09031,5.48961,3.11351,-4.06326,8.07714,-1.28359,0.27852,0.18056,251.0,20.22,22.2,-21.06,263.82,55.587,-7.904,1.97,51.9,,,,NaN,,,,0 / 0,3104,2014-12-14 13:30:29:175
-0.54169,-14.06653,17.38789,0.92656,-8.04856,5.52567,-1.46824,-6.01798,11.86222,0.1609,-1.79129,0.03995,251.0,18.36,21.12,-22.08,263.82,55.587,-7.904,1.97,51.9,,,,NaN,,,,0 / 0,3156,2014-12-14 13:30:29:227
2.62345,-4.35086,4.50709,1.14323,-7.7825,5.85637,1.48022,3.43164,-1.34928,0.68714,-0.20618,0.3052,251.0,15.54,20.46,-21.54,258.162,55.157,-9.519,1.97,51.9,,,,NaN,,,,0 / 0,3204,2014-12-14 13:30:29:275
3.98575,-10.27412,-9.5373,1.39582,-7.83592,5.72903,2.58993,-2.4382,-15.26633,-1.06628,-1.54735,0.05167,251.0,15.18,20.1,-20.88,264.192,52.522,-11.046,1.97,51.9,,,,NaN,,,,0 / 0,3254,2014-12-14 13:30:29:325
8.06307,-2.99096,-6.03698,1.41168,-8.17515,5.22924,6.02291,7.56418,-16.68355,-0.13098,-0.37769,0.21039,345.0,13.02,19.32,-20.58,258.758,56.474,-15.107,1.97,51.9,,,,NaN,,,,0 / 0,3304,2014-12-14 13:30:29:375
-9.32601,-15.86218,-1.65798,1.21102,-8.78672,4.18297,-7.48577,2.25205,-18.79688,-2.73129,0.4969,-0.03142,345.0,11.82,19.5,-20.7,258.758,56.474,-15.107,1.97,51.9,,,,NaN,,,,0 / 0,3353,2014-12-14 13:30:29:424
-1.87286,-19.51813,5.55575,1.1374,-9.04275,3.62033,-3.04902,-10.67679,1.47917,-2.47882,1.13499,0.11345,345.0,11.64,19.56,-20.58,250.346,63.637,-16.146,1.97,51.9,,,,NaN,,,,0 / 0,3403,2014-12-14 13:30:29:474
1.74717,-7.81048,-1.43532,0.99344,-9.40891,2.58035,1.61549,1.81181,-3.38331,-2.4948,1.59092,0.51399,437.0,10.92,20.34,-18.42,248.22,73.624,-21.057,1.97,49.84,,,,NaN,,,,0 / 0,3453,2014-12-14 13:30:29:524
0.33459,-8.68676,1.46405,0.59825,-9.7251,1.11241,-1.24843,0.99434,-0.70524,-2.59494,2.18534,0.26792,437.0,10.92,21.66,-17.22,248.22,73.624,-21.057,1.97,49.84,,,,NaN,,,,0 / 0,3504,2014-12-14 13:30:29:575
-1.13784,-9.01477,0.03232,0.54887,-9.77747,0.52238,-1.62925,0.14979,1.52107,-2.09959,1.91583,-0.08788,437.0,10.62,22.68,-14.88,253.508,82.6,-28.271,1.97,49.84,,,,NaN,,,,0 / 0,3553,2014-12-14 13:30:29:624
-0.89603,-9.35714,0.17358,0.44353,-9.79558,-0.14874,-1.33956,0.43844,0.32232,-1.04178,0.65456,-0.0229,217.0,11.82,23.82,-10.98,302.624,86.798,-71.194,1.97,49.84,,,,NaN,,,,0 / 0,3604,2014-12-14 13:30:29:675
0.82301,-9.42896,-0.59496,0.38861,-9.76864,-0.77018,0.4344,0.33968,0.17523,-1.27507,1.12434,0.0016,217.0,11.82,24.36,-6.48,302.624,86.798,-71.194,1.97,49.84,,,,NaN,,,,0 / 0,3654,2014-12-14 13:30:29:725
1.82857,-11.66275,0.10894,0.4944,-9.72465,-1.16568,1.33417,-1.93811,1.27461,-1.34964,1.1531,-0.06232,217.0,11.82,24.9,-3.6,35.317,84.953,-153.226,1.97,49.84,,,,NaN,,,,0 / 0,3704,2014-12-14 13:30:29:775
-4.39156,-11.96203,0.87029,0.6183,-9.66524,-1.54022,-5.00987,-2.29679,2.41051,-0.92886,1.12221,-0.32224,133.0,11.46,24.78,-2.16,43.096,80.8,-157.255,1.97,49.84,,,,NaN,,,,0 / 0,3753,2014-12-14 13:30:29:824
-0.62309,-11.42812,2.16795,0.54573,-9.67347,-1.51613,0.63626,-2.58035,6.16417,-0.20768,0.95283,0.19548,133.0,9.18,23.94,0.84,55.636,80.543,-160.204,1.97,52.6217,,,,NaN,,,,0 / 0,3804,2014-12-14 13:30:29:875
-1.76752,-15.24687,9.71687,0.46807,-9.78286,-0.49859,-2.23559,-5.46402,10.21546,1.50207,1.34911,0.03569,133.0,8.94,24.12,2.34,55.636,80.543,-160.204,1.97,52.6217,,,,NaN,,,,0 / 0,3854,2014-12-14 13:30:29:925
1.37128,-15.50545,-8.34978,0.3316,-9.69248,1.45493,1.03968,-5.81297,-9.8047,3.21821,1.63566,0.28922,133.0,8.7,24.78,3.96,56.804,86.001,-136.809,1.97,52.6217,,,,NaN,,,,0 / 0,3904,2014-12-14 13:30:29:975
-0.15622,-15.22293,-7.0593,0.02858,-9.53491,2.2926,-0.1848,-5.68802,-9.3519,2.34896,0.86122,0.95714,133.0,7.62,24.72,4.5,327.201,81.248,-12.839,1.97,52.6217,,,,NaN,,,,0 / 0,3954,2014-12-14 13:30:30:025
-1.86089,-14.05217,-1.73939,-0.46926,-9.10021,3.62452,-2.41306,-4.5207,-6.81674,2.98705,-1.14787,1.16274,133.0,6.6,24.78,0.9,327.201,81.248,-12.839,1.97,52.6217,,,,NaN,,,,0 / 0,4004,2014-12-14 13:30:30:075
0.58359,-7.08744,-4.69862,-0.50383,-8.27646,5.23627,0.96546,-1.55668,-7.92496,2.95296,-2.42938,1.20854,133.0,7.44,24.9,-2.82,321.153,62.389,8.158,1.97,52.6217,,,,NaN,,,,0 / 0,4054,2014-12-14 13:30:30:125
1.47184,-4.98772,-5.47195,-0.20007,-7.94142,5.75012,1.0753,3.53863,-12.0364,2.02831,-3.3306,0.57258,189.0,8.22,23.52,-5.4,321.153,62.389,8.158,1.97,50.0641,,,,NaN,,,,0 / 0,4103,2014-12-14 13:30:30:174
2.4343,-3.47937,-5.68264,0.71467,-7.36651,6.43382,1.36559,3.7146,-11.60589,1.04294,-2.33671,0.45114,189.0,9.0,20.7,-8.88,310.747,50.723,-2.708,1.97,50.0641,,,,NaN,,,,0 / 0,4154,2014-12-14 13:30:30:225
2.22122,-3.4267,-4.93086,1.00452,-7.35394,6.40943,1.30693,4.1291,-10.03993,0.10658,-1.56865,0.56619,189.0,9.0,19.74,-11.16,300.04,48.581,-8.907,1.97,50.0641,,,,NaN,,,,0 / 0,4204,2014-12-14 13:30:30:275
3.28425,-7.6812,2.39061,1.09834,-7.97613,5.59869,2.18591,0.29494,-3.20808,-1.80131,0.37972,0.56193,439.0,7.2,18.96,-15.48,271.046,54.423,-11.099,1.97,50.0641,,,,NaN,,,,0 / 0,4254,2014-12-14 13:30:30:325
2.83174,-17.55489,19.82459,1.03325,-8.26508,5.17611,1.79849,-9.2898,14.64847,-1.1025,-0.58967,0.11984,439.0,5.88,18.54,-16.02,271.046,54.423,-11.099,1.97,50.0641,,,,NaN,,,,0 / 0,4304,2014-12-14 13:30:30:375
1.86927,-7.48966,6.21654,1.37203,-8.03883,5.44666,0.49725,0.54917,0.76989,0.90339,-0.3127,0.21678,439.0,5.88,18.36,-15.6,258.996,56.677,-13.926,1.97,50.0641,,,,NaN,,,,0 / 0,4353,2014-12-14 13:30:30:424
2.4367,-4.06356,2.58933,1.34644,-7.92331,5.61949,1.09026,3.85975,-3.03016,0.24186,-0.30951,0.34675,439.0,5.82,18.78,-14.22,258.996,56.677,-13.926,1.97,50.0641,,,,NaN,,,,0 / 0,4404,2014-12-14 13:30:30:475
-4.99011,-19.51813,4.10246,1.56237,-8.01294,5.43349,-6.55248,-11.50519,-1.33103,-0.55921,-2.46028,0.04314,573.0,5.34,19.2,-13.38,282.581,54.795,-16.042,1.97,51.2155,,,,NaN,,,,0 / 0,4453,2014-12-14 13:30:30:524
2.23319,-1.40599,-15.49168,1.5706,-8.30668,4.97021,-8.48565,-0.13348,-18.85539,-2.91345,0.44363,0.11984,573.0,5.7,20.16,-12.6,279.784,57.892,-17.537,1.97,51.2155,,,,NaN,,,,0 / 0,4504,2014-12-14 13:30:30:575
-2.23439,-13.12322,1.51194,1.04118,-9.05367,3.62198,-2.20057,1.25516,-6.00301,-2.22635,1.79013,0.28283,573.0,6.06,21.24,-12.78,279.784,57.892,-17.537,1.97,51.2155,,,,NaN,,,,0 / 0,4553,2014-12-14 13:30:30:624
1.79026,-7.64528,-1.82079,1.02397,-9.23668,3.13177,0.70404,1.49084,-5.61575,-2.1145,0.2881,0.14435,717.0,6.3,22.56,-12.3,268.245,67.4,-16.038,1.97,51.2155,,,,NaN,,,,0 / 0,4604,2014-12-14 13:30:30:675
-0.29987,-9.35953,2.05542,0.72499,-9.58908,1.92269,-0.48782,-0.09352,0.04474,-2.5225,1.74965,0.45327,717.0,6.6,23.7,-10.38,268.245,67.4,-16.038,1.97,51.2155,,,,NaN,,,,0 / 0,4653,2014-12-14 13:30:30:724
0.58838,-8.44255,1.05465,0.50802,-9.72091,1.19067,0.09906,1.29018,-0.04399,-2.05058,1.96483,-0.00905,717.0,6.84,25.14,-6.42,270.76,77.905,-20.66,1.97,51.2155,,,,NaN,,,,0 / 0,4704,2014-12-14 13:30:30:775
-2.42114,-10.99717,3.74812,0.42347,-9.79722,0.07916,-2.81244,-1.1983,3.76743,-1.47641,1.38,-0.01757,453.0,6.48,25.44,-4.26,287.07,85.543,-35.844,1.97,51.2155,,,,NaN,,,,0 / 0,4753,2014-12-14 13:30:30:824
0.03771,-8.85196,-0.6189,0.268,-9.7854,-0.58882,-2.18291,1.00108,-0.25753,-1.07693,0.45748,0.0261,453.0,7.38,25.44,-0.96,287.07,85.543,-35.844,1.97,52.6096,,,,NaN,,,,0 / 0,4804,2014-12-14 13:30:30:875
1.25875,-10.11849,-0.58778,0.43754,-9.71103,-1.29437,1.78952,0.13782,0.15248,-1.43167,1.19145,-0.17417,453.0,7.62,25.2,4.98,75.33,86.218,-155.528,1.97,52.6096,,,,NaN,,,,0 / 0,4853,2014-12-14 13:30:30:924
-1.07081,-10.96365,-0.13527,0.50159,-9.66375,-1.5914,-0.40821,-1.95801,1.84383,-1.13446,1.34591,-0.14434,453.0,7.56,24.6,6.78,93.186,81.991,-161.323,1.97,52.6096,,,,NaN,,,,0 / 0,4904,2014-12-14 13:30:30:975
-1.41318,-11.3563,-0.05387,0.6825,-9.60913,-1.8362,-2.10106,-1.8582,2.67717,-0.38345,1.25004,-0.17523,255.0,6.06,24.6,11.16,107.936,78.477,-159.61,1.97,52.6096,,,,NaN,,,,0 / 0,4954,2014-12-14 13:30:31:025
-6.6876,-16.40567,7.15507,0.6409,-9.65522,-1.59334,-2.84192,-5.00762,4.97021,-0.55389,1.18932,-0.23276,255.0,5.7,24.9,12.42,107.936,78.477,-159.61,1.97,52.6096,,,,NaN,,,,0 / 0,5016,2014-12-14 13:30:31:087
-0.74041,-15.49108,5.21337,0.40851,-9.7643,-0.81418,-5.3883,-6.65109,9.10695,1.20806,0.63751,0.18269,255.0,4.86,24.78,13.98,123.679,79.914,-158.088,1.97,52.6096,,,,NaN,,,,0 / 0,5054,2014-12-14 13:30:31:125
2.95385,-14.79676,-5.55096,0.16954,-9.76894,0.84396,3.85885,-4.93101,-5.35329,3.0009,1.26069,0.4096,209.0,3.72,26.04,16.08,70.232,88.305,-86.776,1.97,52.6096,,,,NaN,,,,0 / 0,5104,2014-12-14 13:30:31:175
1.64661,-14.31314,-5.05296,0.04519,-9.71193,1.35946,1.60142,-4.60121,-6.41242,2.76335,0.61088,0.61626,209.0,3.48,27.06,16.68,70.232,88.305,-86.776,1.97,50.2086,,,,NaN,,,,0 / 0,5154,2014-12-14 13:30:31:225
0.89723,-13.53263,-1.49997,-0.28207,-9.40727,2.75603,1.17929,-4.12536,-4.25599,2.85496,-0.80592,0.66632,209.0,4.26,32.16,14.22,349.338,78.004,3.881,1.97,50.2086,,,,NaN,,,,0 / 0,5204,2014-12-14 13:30:31:275
0.26276,-10.97801,-2.89818,-0.4142,-9.09288,3.64936,0.67696,-1.88513,-6.54754,2.93059,-0.73348,0.75794,311.0,6.18,35.52,8.88,341.742,68.005,6.475,1.97,50.2086,,,,NaN,,,,0 / 0,5253,2014-12-14 13:30:31:324
0.84695,-5.28939,-4.78481,-0.27533,-8.32928,5.16878,1.12228,3.03989,-9.95359,2.54284,-2.28557,0.64822,311.0,9.96,37.62,-0.3,333.008,58.142,3.049,1.97,50.2086,,,,NaN,,,,0 / 0,5304,2014-12-14 13:30:31:375
2.35769,-3.64457,-4.93086,0.17373,-7.79762,5.9445,2.18396,4.15304,-10.87536,0.9215,-0.99767,0.44262,311.0,12.72,37.02,-7.68,333.008,58.142,3.049,1.97,50.2086,,,,NaN,,,,0 / 0,5353,2014-12-14 13:30:31:424
1.06482,-3.8409,-2.28048,0.2888,-7.80839,5.92595,1.17585,4.9156,-10.13855,0.1364,-0.47036,0.38829,569.0,14.64,35.88,-13.14,307.62,52.668,-1.674,1.97,50.2086,,,,NaN,,,,0 / 0,5403,2014-12-14 13:30:31:474
0.82301,-5.36361,0.77452,0.2457,-8.01609,5.64373,0.5773,2.65248,-4.86921,-1.02687,-0.43521,0.31905,569.0,13.44,30.9,-22.98,268.104,54.827,-2.493,1.97,50.2086,,,,NaN,,,,0 / 0,5454,2014-12-14 13:30:31:525
-0.76195,-12.8,11.12705,0.35838,-8.12532,5.47913,0.10549,-5.30675,8.00382,-0.26733,-1.08502,0.31585,569.0,12.66,29.34,-24.42,268.104,54.827,-2.493,1.97,49.894,,,,NaN,,,,0 / 0,5504,2014-12-14 13:30:31:575
3.60746,-13.82472,12.47978,0.63551,-7.9278,5.73741,2.79957,-4.94403,4.32183,1.39768,-2.03204,0.1028,569.0,12.06,27.78,-25.08,252.296,55.95,-3.742,1.97,49.894,,,,NaN,,,,0 / 0,5554,2014-12-14 13:30:31:625
0.16221,-2.81379,0.94691,1.31008,-7.33748,6.37292,-1.14787,4.52369,-5.42601,1.28902,-1.23203,0.19122,823.0,10.5,26.4,-24.96,262.647,51.669,-8.951,1.97,49.894,,,,NaN,,,,0 / 0,5603,2014-12-14 13:30:31:674
1.49099,-1.93272,-3.36984,1.50027,-7.2872,6.38878,-0.00928,5.35448,-9.75862,-0.25881,-1.33855,0.38829,823.0,10.02,25.68,-26.22,262.647,51.669,-8.951,1.97,49.894,,,,NaN,,,,0 / 0,5653,2014-12-14 13:30:31:724
0.85892,-19.51813,-7.61476,1.99602,-7.21343,6.3367,1.96818,2.03178,-12.48621,0.09699,-0.25092,-0.33928,823.0,5.88,20.88,-28.92,255.916,49.651,-16.24,1.97,49.894,,,,NaN,,,,0 / 0,5703,2014-12-14 13:30:31:774
-0.29987,1.44789,-9.76475,1.87765,-7.12963,6.46629,-2.17753,8.57753,-16.23104,0.6733,1.21275,0.04421,887.0,3.9,18.42,-29.1,239.318,46.637,-16.192,1.97,49.894,,,,NaN,,,,0 / 0,5753,2014-12-14 13:30:31:824
0.85413,-19.51813,2.9748,1.41033,-7.57885,6.06152,-0.83707,-9.17757,-3.04572,-0.35468,-0.04852,0.0293,887.0,3.12,16.62,-29.88,239.318,46.637,-16.192,1.97,55.316,,,,NaN,,,,0 / 0,5804,2014-12-14 13:30:31:875
-1.08278,-8.89506,-0.67636,1.1555,-8.16183,5.31214,-2.80077,-0.37843,-6.2559,-0.60183,-0.50552,0.40001,887.0,3.84,15.84,-30.48,219.238,50.609,-13.098,1.97,55.316,,,,NaN,,,,0 / 0,5854,2014-12-14 13:30:31:925
1.80702,-8.34439,3.8391,1.04492,-8.35696,5.02393,1.19964,0.04833,-0.7847,-0.84258,0.34776,-0.00692,965.0,4.32,15.66,-30.24,212.129,58.449,-11.749,1.97,55.316,,,,NaN,,,,0 / 0,5904,2014-12-14 13:30:31:975
-0.81463,-8.80887,3.77206,0.99599,-8.57364,4.65523,1.53753,-0.9505,-0.32247,-0.79144,0.57147,0.13263,965.0,4.86,16.08,-30.06,212.129,58.449,-11.749,1.97,55.316,,,,NaN,,,,0 / 0,5954,2014-12-14 13:30:32:025
-2.23199,-7.82724,4.45202,0.78275,-8.7318,4.39471,-1.28269,0.76929,1.17316,-0.48678,0.61088,0.05699,965.0,6.24,17.82,-29.1,214.118,60.958,-12.076,1.97,55.316,,,,NaN,,,,0 / 0,6004,2014-12-14 13:30:32:075
1.8597,-8.96209,4.00909,0.55351,-8.81994,4.25135,1.35482,-0.25004,-0.50682,-0.2375,0.70249,0.00906,965.0,6.06,17.82,-28.5,211.861,63.664,-8.314,1.97,55.316,,,,NaN,,,,0 / 0,6054,2014-12-14 13:30:32:125
-1.59035,-9.28531,3.09211,0.39055,-8.88443,4.13344,-1.12632,-0.54453,-1.07634,-0.08837,0.44257,-0.04101,1035.0,7.92,19.14,-27.6,212.669,64.953,-5.398,1.97,55.316,,,,NaN,,,,0 / 0,6104,2014-12-14 13:30:32:175
-0.63985,-8.63648,2.55581,0.29314,-8.90628,4.09423,0.1251,0.25004,-1.12049,0.02881,0.22312,-0.01651,1035.0,9.36,19.56,-26.52,212.669,64.953,-5.398,1.97,49.3401,,,,NaN,,,,0 / 0,6154,2014-12-14 13:30:32:225
-0.43395,-9.45051,3.20224,0.3114,-8.93696,4.0254,-0.68459,-0.17163,-0.99898,0.02348,0.33072,-0.11132,1035.0,10.32,19.92,-25.86,218.945,65.46,-4.089,1.97,49.3401,,,,NaN,,,,0 / 0,6204,2014-12-14 13:30:32:275
-1.60711,-9.28292,3.35787,0.11776,-8.98529,3.92709,-1.03729,0.68205,-1.45074,-0.13524,0.45535,0.11984,965.0,10.68,20.46,-25.8,218.945,65.46,-4.089,1.97,49.3401,,,,NaN,,,,0 / 0,6254,2014-12-14 13:30:32:325
-0.35494,-9.58459,3.46082,0.0606,-9.01477,3.8602,-1.2167,-0.43769,-0.33713,-0.20555,0.31261,0.10813,965.0,10.56,20.64,-25.26,219.632,66.382,-1.718,1.97,49.3401,,,,NaN,,,,0 / 0,6304,2014-12-14 13:30:32:375
0.14545,-9.80725,2.8503,0.08948,-9.04305,3.79286,-0.12001,-0.48468,-1.35542,-0.17039,-0.13374,0.06552,965.0,10.14,19.2,-25.08,214.37,67.24,-1.352,1.97,49.3401,,,,NaN,,,,0 / 0,6353,2014-12-14 13:30:32:424
0.77273,-8.59818,2.95085,0.06,-9.10994,3.62991,0.62653,0.5788,-0.53301,-0.19596,0.03138,0.11239,965.0,10.86,19.38,-24.24,214.37,67.24,-1.352,1.97,49.3401,,,,NaN,,,,0 / 0,6404,2014-12-14 13:30:32:475
-0.03651,-9.04829,3.45842,0.06898,-9.14346,3.54447,-0.11028,-0.00299,-0.1842,-0.13737,-0.03361,-0.03782,965.0,10.68,19.74,-24.06,217.503,68.559,-0.957,1.97,49.3401,,,,NaN,,,,0 / 0,6454,2014-12-14 13:30:32:525
-0.05806,-8.88309,3.23576,0.07901,-9.15752,3.50766,0.10714,0.13318,-0.23598,-0.10861,0.00155,-0.0229,965.0,11.64,20.46,-24.42,219.894,69.037,-1.29,1.97,44.9106,,,,NaN,,,,0 / 0,6504,2014-12-14 13:30:32:575
-0.13467,-9.11772,3.14478,0.05881,-9.1891,3.42476,-0.29823,0.89468,-2.62898,-0.09582,0.06973,-0.01012,965.0,11.46,20.28,-24.66,219.894,69.037,-1.29,1.97,44.9106,,,,NaN,,,,0 / 0,6554,2014-12-14 13:30:32:625
0.7009,-9.36911,2.57975,0.1034,-9.22246,3.33258,0.26336,-0.49844,-0.46373,-0.22153,-0.24985,-0.11345,977.0,11.52,20.28,-24.6,217.419,69.557,-0.984,1.97,44.9106,,,,NaN,,,,0 / 0,6603,2014-12-14 13:30:32:674
0.10714,-9.28771,2.91973,0.21069,-9.27185,3.18728,-0.10355,-0.01586,-0.26755,-0.16507,-0.23068,-0.06445,977.0,11.28,20.28,-24.24,219.123,70.991,-3.782,1.97,44.9106,,,,NaN,,,,0 / 0,6654,2014-12-14 13:30:32:725
-0.01736,-9.56543,3.48955,0.24032,-9.29893,3.10543,-0.22984,-0.24211,0.28476,-0.10967,-0.04639,-0.01971,977.0,11.34,20.76,-24.0,219.123,70.991,-3.782,1.97,44.9106,,,,NaN,,,,0 / 0,6703,2014-12-14 13:30:32:774
-0.23284,-8.63648,2.68989,0.12989,-9.29279,3.13027,-0.22865,0.15921,-0.02559,-0.017,0.21886,0.02077,1019.0,11.28,20.82,-24.36,219.759,71.486,-4.15,1.97,44.9106,,,,NaN,,,,0 / 0,6754,2014-12-14 13:30:32:825
0.67217,-8.76577,2.14161,0.06599,-9.29654,3.12084,0.22625,0.45999,-0.70823,-0.05428,-0.12415,0.00267,1019.0,10.2,20.82,-24.24,213.516,71.439,-1.211,1.97,44.9106,,,,NaN,,,,0 / 0,6803,2014-12-14 13:30:32:874