ACCELEROMETER X (m/s²),ACCELEROMETER Y (m/s²),ACCELEROMETER Z (m/s²),GRAVITY X (m/s²),GRAVITY Y (m/s²),GRAVITY Z (m/s²),LINEAR ACCELERATION X (m/s²),LINEAR ACCELERATION Y (m/s²),LINEAR ACCELERATION Z (m/s²),GYROSCOPE X (rad/s),GYROSCOPE Y (rad/s),GYROSCOPE Z (rad/s),LIGHT (lux),MAGNETIC FIELD X (μT),MAGNETIC FIELD Y (μT),MAGNETIC FIELD Z (μT),ORIENTATION X (°),ORIENTATION Y (°),ORIENTATION Z (°),PROXIMITY (i),SOUND LEVEL (dB),LOCATION Latitude : ,LOCATION Longitude : ,LOCATION Altitude ( m),LOCATION Altitude-google ( m),LOCATION Speed ( Kmh),LOCATION Accuracy ( m),LOCATION ORIENTATION (°),Satellites in range,Time since start in ms ,YYYY-MO-DD HH-MI-SS_SSS
-2.56718,-8.57663,0.8679,0.42138,-9.79453,0.25049,-2.98856,1.2179,0.6174,-1.1547,0.38291,-0.12517,83.0,27.48,32.82,-3.96,303.149,85.185,-36.782,1.97,17.6278,,,,NaN,,,,0 / 0,6,2014-12-14 13:31:27:276
-1.1139,-8.69634,0.91578,0.33264,-9.79917,-0.19139,-1.44655,1.10283,1.10717,-1.29638,0.07079,0.01865,63.0,28.08,33.54,-2.64,303.149,85.185,-36.782,1.97,38.4758,,,,NaN,,,,0 / 0,56,2014-12-14 13:31:27:326
2.94666,-9.31404,0.93254,0.30586,-9.76849,-0.80984,2.6408,0.45445,1.74238,-1.01621,0.88891,0.02184,63.0,26.82,34.14,-0.36,54.97,86.42,-152.558,1.97,38.4758,,,,NaN,,,,0 / 0,105,2014-12-14 13:31:27:375
4.4598,-10.62846,0.21189,0.45669,-9.74395,-1.00916,4.00311,-0.88451,1.22104,-0.74777,1.19571,-0.1486,63.0,26.7,33.54,1.08,60.769,83.514,-155.651,1.97,38.4758,,,,NaN,,,,0 / 0,156,2014-12-14 13:31:27:426
-1.15939,-11.27011,-4.50708,1.01903,-9.59761,-1.73774,-2.17842,-1.6725,-2.76934,-1.54139,1.76563,-0.62264,63.0,26.64,33.0,2.7,60.769,83.514,-155.651,1.97,38.4758,,,,NaN,,,,0 / 0,206,2014-12-14 13:31:27:476
-5.69162,-11.51671,0.26456,1.03789,-9.49525,-2.22137,-6.7295,-2.02145,2.48593,-1.5563,0.68225,-0.36378,57.0,26.28,33.12,4.38,56.355,78.146,-149.612,1.97,38.4758,,,,NaN,,,,0 / 0,256,2014-12-14 13:31:27:526
2.95385,-14.37538,7.39928,1.0132,-9.45485,-2.39779,1.94065,-4.92053,9.79707,-0.42499,0.92726,-0.28709,57.0,23.88,33.12,10.74,73.141,74.607,-157.093,1.97,38.4758,,,,NaN,,,,0 / 0,306,2014-12-14 13:31:27:576
1.12707,-13.09449,6.91326,1.17765,-9.4957,-2.1488,-0.05058,-3.59878,9.06205,0.00644,1.44818,-0.52357,57.0,23.16,32.94,11.94,73.141,74.607,-157.093,1.97,38.4758,,,,NaN,,,,0 / 0,356,2014-12-14 13:31:27:626
-6.28777,-13.13279,0.96606,0.84351,-9.73063,-0.88047,-7.13128,-3.40216,1.84653,1.80461,-0.1902,0.4064,57.0,20.58,32.82,15.0,71.718,77.849,-143.816,1.97,53.7941,,,,NaN,,,,0 / 0,406,2014-12-14 13:31:27:676
3.60028,-15.36658,-0.65721,0.39519,-9.77523,0.67935,2.27853,-6.3192,-2.17214,2.40542,-0.86984,0.72385,57.0,18.9,32.58,15.18,58.616,86.039,-114.884,1.97,53.7941,,,,NaN,,,,0 / 0,456,2014-12-14 13:31:27:726
0.69851,-14.70339,-2.20147,0.29224,-9.68904,1.48635,0.41345,-4.89943,-3.94639,2.88159,-1.39821,0.65674,57.0,17.76,32.94,13.98,58.616,86.039,-114.884,1.97,53.7941,,,,NaN,,,,0 / 0,505,2014-12-14 13:31:27:775
2.94906,-14.52143,-3.00592,0.10998,-9.34607,2.96851,2.87978,-4.68216,-6.08217,3.25337,-0.595,0.61093,57.0,18.3,33.54,10.14,317.935,76.539,-4.56,1.97,53.7941,,,,NaN,,,,0 / 0,556,2014-12-14 13:31:27:826
2.44149,-10.52072,-2.94367,0.00419,-9.08839,3.68393,2.4373,-1.43233,-6.6276,3.31302,-0.27435,0.72278,57.0,18.72,34.38,6.24,314.018,67.935,-0.065,1.97,53.7941,,,,NaN,,,,0 / 0,606,2014-12-14 13:31:27:876
-0.90082,-3.07236,-4.05697,-0.06644,-8.31252,5.20275,-0.83438,5.24016,-9.25972,2.16999,-2.10128,0.4618,69.0,18.9,31.68,-3.6,305.233,57.956,0.732,1.97,53.7941,,,,NaN,,,,0 / 0,656,2014-12-14 13:31:27:926
1.59394,-1.13306,-4.543,0.45056,-7.79911,5.92789,1.14338,6.66606,-10.47089,1.18995,-1.78916,0.33822,69.0,19.5,29.7,-8.16,305.233,57.956,0.732,1.97,53.7941,,,,NaN,,,,0 / 0,705,2014-12-14 13:31:27:975
1.12228,-2.02609,-2.314,0.60199,-7.8054,5.9062,0.52029,5.7793,-8.22019,-0.31101,-0.60246,0.54595,69.0,20.4,27.78,-10.98,295.127,52.743,-5.82,1.97,53.7941,,,,NaN,,,,0 / 0,756,2014-12-14 13:31:28:026
-1.82498,-9.43375,12.65455,0.4733,-7.95653,5.71316,-2.29828,-1.47722,6.94139,-0.42393,-1.20966,0.38403,69.0,19.92,25.5,-16.32,281.27,53.655,-6.083,1.97,51.7922,,,,NaN,,,,0 / 0,806,2014-12-14 13:31:28:076
3.17411,-15.32828,18.1253,0.61561,-7.92137,5.74833,2.5585,-7.40691,12.37698,0.33774,-2.1098,0.11878,69.0,19.08,24.72,-18.48,281.27,53.655,-6.083,1.97,51.7922,,,,NaN,,,,0 / 0,856,2014-12-14 13:31:28:126
2.91793,-4.90632,1.46405,1.28135,-7.65441,5.99478,1.63659,2.74809,-4.53073,1.28476,-1.21818,0.29668,117.0,17.52,23.76,-19.86,272.975,53.254,-9.774,1.97,51.7922,,,,NaN,,,,0 / 0,905,2014-12-14 13:31:28:175
4.95779,-14.55495,12.94904,1.4678,-7.53859,6.09803,3.49,-7.01636,6.85101,0.38994,-2.19076,0.44795,117.0,16.56,24.18,-20.28,279.268,50.239,-13.534,1.97,51.7922,,,,NaN,,,,0 / 0,955,2014-12-14 13:31:28:225
11.20427,1.35931,-6.76242,1.53259,-7.58004,6.03025,9.67168,8.93935,-12.79267,-0.87773,0.78026,-0.00799,117.0,14.4,23.22,-21.48,279.268,50.239,-13.534,1.97,51.7922,,,,NaN,,,,0 / 0,1006,2014-12-14 13:31:28:276
-3.46022,-7.07307,-15.96573,1.41108,-7.85328,5.70134,-4.8713,0.78021,-21.66707,-2.78242,0.1933,-0.45433,139.0,12.24,22.26,-23.46,272.344,50.62,-14.26,1.97,51.7922,,,,NaN,,,,0 / 0,1056,2014-12-14 13:31:28:326
-1.78428,-8.45452,-2.54144,0.87837,-8.82697,4.18147,-2.66265,0.37245,-6.72292,-2.02182,-0.73668,0.0293,139.0,12.06,22.02,-23.76,246.429,59.616,-11.205,1.97,51.7922,,,,NaN,,,,0 / 0,1105,2014-12-14 13:31:28:375
2.11827,-7.41065,-1.38744,0.9291,-9.19658,3.27572,1.18917,1.78592,-4.66316,-2.63648,0.02072,0.12837,139.0,13.02,23.22,-22.02,245.242,69.683,-15.835,1.97,51.7922,,,,NaN,,,,0 / 0,1156,2014-12-14 13:31:28:426
2.12545,-9.54628,0.76734,0.81927,-9.49286,2.32058,1.30619,-0.05342,-1.55324,-3.00506,1.09131,0.23489,139.0,14.22,24.9,-19.5,245.242,69.683,-15.835,1.97,53.0936,,,,NaN,,,,0 / 0,1206,2014-12-14 13:31:28:476
0.57401,-9.03871,2.32118,0.5586,-9.7634,0.73263,-0.15817,0.91608,1.58661,-2.16031,1.80504,-0.00266,199.0,13.26,27.78,-15.18,252.592,80.234,-23.699,1.97,53.0936,,,,NaN,,,,0 / 0,1255,2014-12-14 13:31:28:525
-0.99659,-9.51516,0.30287,0.53211,-9.78884,-0.26172,-1.5287,0.27369,0.56458,-1.682,1.12221,-0.10386,199.0,13.38,28.74,-12.18,297.93,86.578,-65.715,1.97,53.0936,,,,NaN,,,,0 / 0,1306,2014-12-14 13:31:28:576
-0.9104,-9.58459,-1.71545,0.53032,-9.7673,-0.70015,-1.44071,0.18271,-1.01529,-1.8354,0.83672,-0.10706,199.0,14.58,29.1,-8.16,297.93,86.578,-65.715,1.97,53.0936,,,,NaN,,,,0 / 0,1355,2014-12-14 13:31:28:625
2.91554,-11.99794,3.43448,0.67217,-9.65522,-1.58002,-1.22269,-2.7677,4.97814,-1.01728,1.14671,-0.46818,81.0,14.82,29.58,-0.18,38.376,81.755,-155.958,1.97,53.0936,,,,NaN,,,,0 / 0,1406,2014-12-14 13:31:28:676
-3.4674,-12.35228,2.5582,0.81358,-9.62185,-1.71155,-4.28098,-2.73044,4.26976,-0.46334,1.16908,-0.34461,81.0,14.46,29.58,2.1,53.691,78.858,-154.576,1.97,53.0936,,,,NaN,,,,0 / 0,1456,2014-12-14 13:31:28:726
-4.74112,-16.104,11.0265,0.68369,-9.71268,-1.17032,-5.42481,-6.39132,12.19681,-0.12991,1.04551,-0.02929,81.0,13.98,29.4,3.78,53.691,78.858,-154.576,1.97,53.0936,,,,NaN,,,,0 / 0,1505,2014-12-14 13:31:28:775
1.09595,-15.33067,-2.07458,0.46522,-9.79169,0.27728,0.63072,-5.53899,-2.35185,3.33326,0.44257,0.62265,65.0,12.06,28.8,6.78,69.348,82.056,-149.707,1.97,53.0936,,,,NaN,,,,0 / 0,1555,2014-12-14 13:31:28:825
3.56916,-16.85817,-7.15747,0.16789,-9.70579,1.39283,3.40126,-7.15238,-8.55029,2.65149,0.79091,0.86979,65.0,10.08,28.2,8.04,325.497,81.775,-6.873,1.97,54.4199,,,,NaN,,,,0 / 0,1606,2014-12-14 13:31:28:876
1.35931,-15.41207,-0.9517,-0.24975,-9.3929,2.80765,1.60905,-6.01917,-3.75935,3.13512,-0.83575,0.9156,65.0,10.08,30.06,6.66,323.792,73.296,5.083,1.97,54.4199,,,,NaN,,,,0 / 0,1656,2014-12-14 13:31:28:926
0.94272,-12.67071,-3.1807,-0.50323,-9.04185,3.76324,1.44595,-3.62886,-6.94393,3.11701,-0.35105,1.13504,79.0,10.68,31.8,5.04,323.792,73.296,5.083,1.97,54.4199,,,,NaN,,,,0 / 0,1705,2014-12-14 13:31:28:975
1.50296,-4.44663,-4.71299,-0.45475,-8.20508,5.35164,1.95771,3.75845,-10.06463,2.67173,-2.49223,0.61519,79.0,12.48,33.78,0.84,325.932,62.166,7.793,1.97,54.4199,,,,NaN,,,,0 / 0,1756,2014-12-14 13:31:29:026
1.09355,-1.24319,-6.93959,-0.09307,-7.7439,6.01618,1.18663,6.50071,-12.95577,2.21473,-2.27279,0.46393,79.0,13.98,33.9,-2.4,323.838,52.153,0.886,1.97,54.4199,,,,NaN,,,,0 / 0,1806,2014-12-14 13:31:29:076
1.71844,-1.51852,-6.67384,0.27339,-7.42247,6.40344,1.44505,5.90395,-13.07728,1.12284,-1.84775,0.26153,79.0,16.2,34.2,-6.06,323.838,52.153,0.886,1.97,54.4199,,,,NaN,,,,0 / 0,1855,2014-12-14 13:31:29:125
0.61232,-4.93505,1.12408,0.78994,-7.6384,6.09938,-0.17762,2.70335,-4.9753,-0.6455,-0.8496,0.40321,119.0,18.36,33.6,-14.82,306.97,49.371,-5.234,1.97,54.4199,,,,NaN,,,,0 / 0,1905,2014-12-14 13:31:29:175
2.77428,-12.44566,13.41112,1.00392,-7.74734,5.92789,1.77036,-4.69832,7.48323,-0.22259,-1.39182,-0.13795,119.0,17.16,31.56,-22.02,285.639,52.357,-7.619,1.97,52.2191,,,,NaN,,,,0 / 0,1956,2014-12-14 13:31:29:226
4.15813,-11.8926,9.59716,1.33776,-7.70245,5.92056,2.82037,-4.19015,3.6766,0.20884,-0.86131,0.36592,119.0,16.56,31.98,-22.98,283.326,51.761,-12.732,1.97,52.2191,,,,NaN,,,,0 / 0,2006,2014-12-14 13:31:29:276
5.15412,-7.52079,6.83904,1.4229,-7.62733,5.99748,3.73121,0.10654,0.84156,0.45811,-5.8E-4,0.2562,203.0,16.32,32.64,-22.98,283.326,51.761,-12.732,1.97,52.2191,,,,NaN,,,,0 / 0,2056,2014-12-14 13:31:29:326
2.40557,-19.51813,14.31613,1.54157,-7.76529,5.78738,0.86401,-11.75284,8.52875,0.25891,1.77415,0.79203,203.0,15.42,33.3,-24.66,284.484,51.057,-13.347,1.97,52.2191,,,,NaN,,,,0 / 0,2106,2014-12-14 13:31:29:376
4.67288,2.43909,-11.90038,1.43039,-7.73028,5.86235,3.2425,10.16937,-17.76273,0.20138,0.65456,0.03675,203.0,15.24,33.12,-25.86,278.767,52.024,-13.712,1.97,52.2191,,,,NaN,,,,0 / 0,2156,2014-12-14 13:31:29:426
0.18854,-19.51813,6.74088,0.97579,-8.51932,4.75818,-0.78724,-10.99881,1.9827,-2.62263,1.42794,0.204,223.0,16.14,33.12,-27.0,259.684,60.311,-11.589,1.97,52.2191,,,,NaN,,,,0 / 0,2205,2014-12-14 13:31:29:475
-0.7021,-8.093,-3.54701,1.01798,-8.85645,4.08615,-1.72008,0.76345,-7.63316,-1.50197,-0.94654,0.04208,223.0,16.8,33.36,-26.46,259.684,60.311,-11.589,1.97,52.2191,,,,NaN,,,,0 / 0,2256,2014-12-14 13:31:29:526
0.97624,-8.7969,0.42258,0.79188,-9.44498,2.51735,0.18435,0.64808,-2.09478,-2.50758,1.17547,0.11239,223.0,18.3,34.08,-24.84,256.128,69.827,-16.418,1.97,52.2191,,,,NaN,,,,0 / 0,2306,2014-12-14 13:31:29:576
-0.27593,-9.76655,3.33153,0.49635,-9.68499,1.45837,-0.77228,-0.08155,1.87316,-2.27429,2.50279,0.09108,209.0,19.92,37.8,-19.92,258.021,79.005,-18.022,1.97,51.7859,,,,NaN,,,,0 / 0,2355,2014-12-14 13:31:29:625
-0.98222,-8.3396,2.06979,0.3732,-9.7652,0.82121,-1.35542,1.4256,1.24858,-1.53713,2.15445,-0.04101,209.0,19.92,38.88,-16.68,258.021,79.005,-18.022,1.97,51.7859,,,,NaN,,,,0 / 0,2406,2014-12-14 13:31:29:676
-1.6526,-10.3651,0.17119,0.23613,-9.79902,-0.30885,-1.88873,-0.56608,0.48004,-1.52541,0.87081,-0.07723,209.0,20.64,39.72,-12.3,273.451,84.722,-24.439,1.97,51.7859,,,,NaN,,,,0 / 0,2455,2014-12-14 13:31:29:725
2.95145,-11.01393,0.73622,0.28715,-9.77163,-0.77827,2.6643,-1.24229,1.51448,-1.5318,0.80369,-0.16565,209.0,21.0,40.98,-2.4,56.502,85.148,-159.748,1.97,51.7859,,,,NaN,,,,0 / 0,2506,2014-12-14 13:31:29:776
-4.03483,-12.4289,1.8591,0.63416,-9.69038,-1.36664,2.41276,-2.22391,3.88968,-1.34751,1.00396,-0.41279,87.0,21.66,41.1,1.5,56.502,85.148,-159.748,1.97,51.7859,,,,NaN,,,,0 / 0,2556,2014-12-14 13:31:29:826
-4.37959,-12.59889,3.04423,0.57476,-9.6832,-1.44101,-2.63736,-2.22062,4.70206,-0.15122,0.84204,-0.03994,87.0,21.96,40.86,2.94,58.979,81.163,-155.107,1.97,51.7859,,,,NaN,,,,0 / 0,2606,2014-12-14 13:31:29:876
-0.65182,-11.63402,3.33153,0.54498,-9.69876,-1.34554,0.73487,-2.49027,7.92571,0.03733,0.93046,0.06658,87.0,20.82,40.26,7.44,71.711,81.487,-157.951,1.97,51.7859,,,,NaN,,,,0 / 0,2656,2014-12-14 13:31:29:926
-1.13784,-13.2549,1.88783,0.6418,-9.77597,0.435,-1.77964,-3.47892,1.45283,3.21821,1.65804,-0.00905,87.0,20.22,40.68,12.36,357.214,85.465,-55.871,1.97,51.7859,,,,NaN,,,,0 / 0,2706,2014-12-14 13:31:29:976
-1.42515,-16.54932,-6.85101,0.49066,-9.67377,1.53274,-1.91581,-6.87555,-8.38375,3.24058,1.05723,0.46925,87.0,20.7,40.8,13.2,357.214,85.465,-55.871,1.97,52.1588,,,,NaN,,,,0 / 0,2756,2014-12-14 13:31:30:026
-0.65661,-17.52376,-7.33224,0.1857,-9.48463,2.48593,-0.84231,-8.03913,-9.81817,2.47466,-0.01549,0.92732,87.0,21.6,41.46,11.76,318.252,75.274,-4.272,1.97,52.1588,,,,NaN,,,,0 / 0,2805,2014-12-14 13:31:30:075
-2.20326,-13.31236,-3.01071,-0.29793,-8.84822,4.21798,-1.90534,-4.46414,-7.22869,3.10742,-1.5303,1.27885,105.0,22.44,41.88,5.16,313.57,64.457,4.04,1.97,52.1588,,,,NaN,,,,0 / 0,2855,2014-12-14 13:31:30:125
0.38487,-7.8033,-4.1288,-0.33429,-8.3215,5.17791,0.71916,0.5182,-9.30671,2.79317,-2.78944,1.24476,105.0,23.76,41.04,1.56,313.57,64.457,4.04,1.97,52.1588,,,,NaN,,,,0 / 0,2906,2014-12-14 13:31:30:176
2.17094,-3.91272,-5.10324,0.05851,-7.82096,5.91607,2.11243,3.90824,-11.01931,2.23817,-3.2816,0.60561,105.0,25.5,38.04,-4.02,307.446,52.893,-0.567,1.97,52.1588,,,,NaN,,,,0 / 0,2956,2014-12-14 13:31:30:226
2.30502,-1.33656,-6.6475,0.73741,-7.37893,6.41706,1.5676,6.04237,-13.06456,1.72578,-2.71168,0.3297,105.0,25.92,33.78,-9.48,307.446,52.893,-0.567,1.97,52.1588,,,,NaN,,,,0 / 0,3005,2014-12-14 13:31:30:275
2.9323,-5.96455,1.45687,1.22254,-7.26535,6.47228,1.06811,3.46276,-10.89077,0.0629,-1.16385,0.49908,185.0,25.32,29.94,-14.64,294.852,47.805,-10.696,1.97,52.1588,,,,NaN,,,,0 / 0,3056,2014-12-14 13:31:30:326
3.45423,-10.29567,7.7225,1.22404,-7.85074,5.74788,1.37786,-5.28445,11.26891,-0.81275,0.08357,0.60348,185.0,22.26,26.04,-20.4,294.852,47.805,-10.696,1.97,52.7686,,,,NaN,,,,0 / 0,3106,2014-12-14 13:31:30:376
1.62746,-12.62522,10.26275,1.36544,-7.72938,5.87896,0.26202,-4.89584,4.38378,0.51457,-1.04987,0.40321,185.0,17.52,22.08,-24.66,266.987,53.183,-12.022,1.97,52.7686,,,,NaN,,,,0 / 0,3156,2014-12-14 13:31:30:426
1.44311,-7.39629,5.04817,1.35811,-7.6393,5.99718,0.08499,0.24301,-0.949,0.60725,-0.01443,0.30414,303.0,17.52,21.42,-23.64,265.075,51.169,-12.76,1.97,52.7686,,,,NaN,,,,0 / 0,3206,2014-12-14 13:31:30:476
-1.31502,-16.63791,-8.05529,1.62417,-7.7204,5.82464,-2.93918,-8.9175,-13.87993,-1.7864,-0.54493,0.49588,303.0,16.56,20.76,-22.62,267.719,51.931,-15.581,1.97,52.7686,,,,NaN,,,,0 / 0,3256,2014-12-14 13:31:30:526
5.83886,-13.5853,-0.63566,1.59993,-7.95384,5.50876,4.23893,-5.63146,-6.14442,0.79154,0.29237,0.20507,303.0,15.18,20.46,-22.62,267.719,51.931,-15.581,1.97,52.7686,,,,NaN,,,,0 / 0,3306,2014-12-14 13:31:30:576
-4.36523,-3.85287,-17.77335,1.56282,-8.07444,5.34161,-5.92804,4.22158,-23.11497,-3.52811,1.79119,0.01758,371.0,13.62,19.14,-22.44,263.864,53.606,-15.842,1.97,52.7686,,,,NaN,,,,0 / 0,3356,2014-12-14 13:31:30:626
-3.65415,-19.51813,5.9053,1.26997,-8.57244,4.59028,-4.92412,-10.94569,1.31502,-2.95713,2.12675,0.06552,371.0,13.2,19.38,-21.96,251.159,60.944,-15.465,1.97,52.7686,,,,NaN,,,,0 / 0,3405,2014-12-14 13:31:30:675
0.60035,-7.38671,-1.84952,1.14054,-9.2096,3.17067,-0.54019,1.82289,-5.02019,-2.12302,0.44683,0.15074,371.0,11.7,19.14,-19.86,249.568,65.576,-16.762,1.97,52.7686,,,,NaN,,,,0 / 0,3456,2014-12-14 13:31:30:726
1.50535,-8.5455,0.47046,0.97609,-9.42852,2.51451,0.52927,0.88301,-2.04405,-2.53102,1.46203,0.32651,371.0,11.34,19.5,-18.48,249.568,65.576,-16.762,1.97,50.895,,,,NaN,,,,0 / 0,3506,2014-12-14 13:31:30:776
0.22206,-9.18236,1.29646,0.76061,-9.62095,1.74044,-0.53855,0.43859,-0.44397,-2.31264,1.935,0.17417,393.0,12.24,20.28,-16.32,251.582,78.832,-23.606,1.97,50.895,,,,NaN,,,,0 / 0,3555,2014-12-14 13:31:30:825
-1.39163,-10.2406,2.90536,0.62908,-9.73258,1.02621,-0.42856,0.76809,-1.4057,-2.25299,2.03514,0.04741,393.0,11.94,21.12,-15.48,257.851,82.95,-31.509,1.97,50.895,,,,NaN,,,,0 / 0,3606,2014-12-14 13:31:30:876
-0.27593,-9.15842,0.2047,0.5158,-9.7866,-0.35898,-2.23304,0.7862,0.98028,-1.34218,0.35522,-0.08788,393.0,13.44,22.74,-8.82,0.13,86.326,-124.837,1.97,50.895,,,,NaN,,,,0 / 0,3656,2014-12-14 13:31:30:926
2.29305,-11.28447,1.60531,0.6599,-9.72001,-1.12198,1.63314,-1.56446,2.7273,-1.5318,0.97094,-0.14754,161.0,13.26,23.22,-4.98,32.036,82.373,-149.538,1.97,50.895,,,,NaN,,,,0 / 0,3705,2014-12-14 13:31:30:975
-3.5512,-12.63001,0.83199,0.71407,-9.68425,-1.36993,-4.26527,-2.94577,2.20192,-0.79357,1.2575,-0.28815,161.0,12.9,22.86,-2.64,32.036,82.373,-149.538,1.97,50.895,,,,NaN,,,,0 / 0,3755,2014-12-14 13:31:31:025
-0.59915,-12.223,1.06901,0.69088,-9.67826,-1.42365,-1.29003,-2.54474,2.49266,-0.39943,1.04018,-0.01438,161.0,12.48,22.98,-0.96,46.678,80.714,-154.113,1.97,50.895,,,,NaN,,,,0 / 0,3806,2014-12-14 13:31:31:076
-3.72358,-14.85423,11.9339,0.71228,-9.75877,-0.65706,-4.43586,-5.09546,12.59096,1.15373,1.11475,-0.18482,121.0,11.52,23.34,2.28,44.722,84.329,-132.691,1.97,52.5442,,,,NaN,,,,0 / 0,3855,2014-12-14 13:31:31:125
-0.71168,-14.22216,2.1057,0.66693,-9.76879,0.54663,-1.37861,-4.45336,1.55907,3.3322,1.09451,0.06978,121.0,10.14,22.86,2.88,44.722,84.329,-132.691,1.97,52.5442,,,,NaN,,,,0 / 0,3906,2014-12-14 13:31:31:176
-0.58,-16.20455,-9.67856,0.34521,-9.54164,2.23813,-0.92521,-6.66291,-11.91669,2.00914,0.27106,1.07006,121.0,9.6,23.22,3.06,320.545,80.523,-20.83,1.97,52.5442,,,,NaN,,,,0 / 0,3956,2014-12-14 13:31:31:226
-0.07961,-14.83747,-0.76974,0.00853,-9.33813,2.99515,-0.38262,-7.2447,-0.93972,3.07014,-1.44934,0.89003,141.0,9.0,23.82,3.3,320.545,80.523,-20.83,1.97,52.5442,,,,NaN,,,,0 / 0,4006,2014-12-14 13:31:31:276
-0.20411,-11.27968,-3.40096,-0.23209,-8.60401,4.69982,2.35275,-0.20485,-7.80629,3.01262,-1.67411,1.25755,141.0,7.62,25.08,-2.7,322.504,67.066,1.58,1.97,52.5442,,,,NaN,,,,0 / 0,4056,2014-12-14 13:31:31:326
0.03531,-3.76668,-4.8734,-0.1426,-8.19924,5.37798,1.03744,2.6848,-10.01674,2.46294,-2.68718,0.73557,141.0,8.52,24.48,-4.98,314.752,56.729,1.519,1.97,52.5442,,,,NaN,,,,0 / 0,4105,2014-12-14 13:31:31:375
1.6945,-3.23038,-5.96036,0.62848,-7.37474,6.43337,1.26474,4.2521,-12.50387,1.86639,-2.58491,0.52145,141.0,8.94,24.0,-7.62,314.752,56.729,1.519,1.97,52.5442,,,,NaN,,,,0 / 0,4155,2014-12-14 13:31:31:425
2.12785,-3.88878,-2.38582,1.12917,-7.44402,6.28358,1.20324,3.14658,-10.7974,-0.36427,-1.00726,0.54702,283.0,9.12,21.42,-13.2,310.006,48.765,-5.58,1.97,51.8351,,,,NaN,,,,0 / 0,4205,2014-12-14 13:31:31:475
2.41036,-3.94145,-1.20548,1.18857,-7.6586,6.0087,1.19545,2.61103,-5.66992,-0.97041,-0.10498,0.42132,283.0,9.0,20.7,-13.86,291.304,49.383,-10.187,1.97,51.8351,,,,NaN,,,,0 / 0,4255,2014-12-14 13:31:31:525
1.0744,-17.95232,19.82459,1.17286,-7.95623,5.61186,2.75543,-2.57167,4.38034,-1.77681,0.01753,0.20187,283.0,7.62,18.78,-16.5,291.304,49.383,-10.187,1.97,51.8351,,,,NaN,,,,0 / 0,4306,2014-12-14 13:31:31:576
1.95546,-9.31883,7.77996,1.44984,-7.93244,5.58074,0.50563,-1.38639,2.19922,0.91618,-0.3926,0.40214,501.0,4.68,17.4,-16.08,257.065,55.784,-14.179,1.97,51.8351,,,,NaN,,,,0 / 0,4356,2014-12-14 13:31:31:626
3.6338,-6.23749,6.61398,1.43488,-7.76769,5.81163,2.19892,1.53019,0.80236,0.63921,-0.19339,0.34781,501.0,4.68,17.46,-15.36,265.148,53.987,-14.563,1.97,51.8351,,,,NaN,,,,0 / 0,4406,2014-12-14 13:31:31:676
-7.26221,-19.51813,4.94762,1.65589,-7.86031,5.62533,-8.9181,-11.65782,-0.67771,-0.63698,-1.9106,-0.05379,501.0,4.86,17.4,-15.06,265.148,53.987,-14.563,1.97,51.8351,,,,NaN,,,,0 / 0,4455,2014-12-14 13:31:31:725
2.77668,-0.53929,-18.23544,1.55982,-7.91972,5.56921,1.21685,7.38043,-23.80465,-1.40184,-0.22109,0.14648,573.0,4.86,17.82,-14.34,268.779,53.178,-16.46,1.97,51.8351,,,,NaN,,,,0 / 0,4505,2014-12-14 13:31:31:775
-6.41945,-19.51813,-1.17436,1.37322,-8.4029,4.86577,-7.79268,-11.11523,-6.04012,-3.65487,2.0426,0.2562,573.0,4.74,18.36,-13.56,262.714,58.966,-15.76,1.97,50.2489,,,,NaN,,,,0 / 0,4556,2014-12-14 13:31:31:826
-1.51613,-8.74422,-3.25971,1.11929,-8.90628,3.94909,-2.63542,0.16206,-7.20879,-1.44232,-0.83255,-0.03888,573.0,4.86,18.6,-13.44,262.714,58.966,-15.76,1.97,50.2489,,,,NaN,,,,0 / 0,4605,2014-12-14 13:31:31:875
1.30903,-9.07462,1.02592,0.91219,-9.53132,2.12007,0.39684,0.45669,-1.09415,-2.74727,1.45457,0.45008,573.0,7.08,20.88,-9.78,257.35,71.095,-20.303,1.97,50.2489,,,,NaN,,,,0 / 0,4656,2014-12-14 13:31:31:926
1.14862,-9.38108,2.48159,0.69282,-9.69427,1.30903,0.4558,0.31319,1.17256,-2.28388,1.93394,0.19548,633.0,8.04,21.6,-8.16,270.171,81.314,-27.891,1.97,50.2489,,,,NaN,,,,0 / 0,4706,2014-12-14 13:31:31:976
-0.93194,-10.36749,3.05859,0.57401,-9.78914,0.12166,-1.50595,-0.57835,2.93694,-1.90251,1.90944,-0.05592,633.0,8.22,21.66,-4.98,289.393,84.357,-38.94,1.97,50.2489,,,,NaN,,,,0 / 0,4756,2014-12-14 13:31:32:026
-3.03645,-9.25419,-1.26534,0.41285,-9.76849,-0.75971,-1.45732,0.61486,-0.91503,-1.42741,0.62579,0.01971,633.0,8.4,22.38,0.66,57.029,84.942,-151.479,1.97,50.2489,,,,NaN,,,,0 / 0,4806,2014-12-14 13:31:32:076
1.86209,-9.60374,-2.04345,0.49665,-9.71806,-1.2182,3.47713,-0.75477,0.32157,-1.6607,0.92513,-0.07616,281.0,7.92,21.84,3.3,57.029,84.942,-151.479,1.97,50.2489,,,,NaN,,,,0 / 0,4856,2014-12-14 13:31:32:126
-3.10588,-12.6755,3.98275,0.68758,-9.6419,-1.65335,-3.79346,-3.0336,5.6361,-0.52726,1.55257,-0.14114,281.0,6.48,21.06,6.84,86.849,80.994,-157.337,1.97,51.6,,,,NaN,,,,0 / 0,4906,2014-12-14 13:31:32:176
0.05207,-11.88063,1.25097,0.65706,-9.66928,-1.49847,-0.60498,-2.21134,2.74944,-0.10222,1.4322,0.03356,281.0,6.78,20.64,7.86,95.577,79.832,-157.496,1.97,51.6,,,,NaN,,,,0 / 0,4955,2014-12-14 13:31:32:225
-2.08116,-14.63635,8.59638,0.52313,-9.78899,-0.27294,-2.60429,-4.84736,8.86932,3.03712,0.71741,0.26472,191.0,6.18,20.28,10.56,109.773,81.858,-150.963,1.97,51.6,,,,NaN,,,,0 / 0,5028,2014-12-14 13:31:32:298
1.76153,-14.75846,-3.12563,0.4142,-9.75862,0.87733,1.34734,-4.99984,-4.00296,3.03712,0.71741,0.38403,191.0,4.8,20.1,12.96,109.773,81.858,-150.963,1.97,51.6,,,,NaN,,,,0 / 0,5056,2014-12-14 13:31:32:326
0.95229,-14.67705,-9.32661,0.29434,-9.66449,1.63808,0.65796,-5.01256,-10.9647,3.12873,1.06681,0.47138,191.0,3.9,20.34,14.46,8.25,84.322,-25.273,1.97,51.6,,,,NaN,,,,0 / 0,5106,2014-12-14 13:31:32:376
0.72724,-15.30433,1.02831,-0.28491,-9.32452,3.02388,1.01215,-5.97982,-1.99557,2.76867,-0.55558,1.00508,221.0,3.06,25.26,15.24,352.123,76.46,-0.642,1.97,51.6,,,,NaN,,,,0 / 0,5156,2014-12-14 13:31:32:426
-0.63027,-13.71219,-3.04902,-0.4962,-9.0227,3.80992,-0.13408,-4.68949,-6.85894,3.03712,-0.51723,1.07752,221.0,3.48,28.5,13.8,352.123,76.46,-0.642,1.97,51.6,,,,NaN,,,,0 / 0,5206,2014-12-14 13:31:32:476
0.98342,-6.1537,-3.69306,-0.6183,-8.24728,5.26994,1.60172,2.09358,-8.96299,2.44803,-2.45495,0.82931,221.0,7.08,35.1,6.18,344.798,61.529,8.701,1.97,51.6,,,,NaN,,,,0 / 0,5255,2014-12-14 13:31:32:525
2.04405,-3.47219,-5.15112,-0.23358,-7.83308,5.89572,2.27763,4.36089,-11.04685,2.12632,-2.85016,0.44688,221.0,8.46,36.06,3.18,338.631,57.244,6.692,1.97,50.0858,,,,NaN,,,,0 / 0,5306,2014-12-14 13:31:32:576
2.33375,-3.49134,-3.77446,0.58239,-7.37399,6.43861,1.75136,3.88265,-10.21307,0.69247,-1.8094,0.18589,453.0,14.46,36.6,-8.7,321.578,48.758,-5.168,1.97,50.0858,,,,NaN,,,,0 / 0,5356,2014-12-14 13:31:32:626
1.08397,-5.12419,-2.10331,0.90815,-7.45599,6.30513,0.17582,2.3318,-8.40844,-0.00528,-1.15852,0.3329,453.0,15.42,35.04,-13.92,321.578,48.758,-5.168,1.97,50.0858,,,,NaN,,,,0 / 0,5405,2014-12-14 13:31:32:675
2.75513,-8.81605,4.63158,0.93524,-7.77472,5.90335,1.81989,-1.04133,-1.27177,-0.63911,0.02818,0.34675,453.0,12.9,31.38,-21.6,302.301,49.49,-8.196,1.97,50.0858,,,,NaN,,,,0 / 0,5456,2014-12-14 13:31:32:726
2.11588,-11.39939,14.9051,1.02173,-7.87513,5.75402,1.09415,-3.52426,9.15109,-0.67107,-0.50339,-0.03355,731.0,11.88,30.48,-23.52,272.097,53.421,-10.069,1.97,50.0858,,,,NaN,,,,0 / 0,5505,2014-12-14 13:31:32:775
2.23798,-6.49128,3.57574,1.54665,-7.36202,6.29121,0.69133,0.87074,-2.71547,1.52125,-0.76864,0.07723,731.0,11.1,29.22,-25.02,279.895,48.652,-13.812,1.97,50.0858,,,,NaN,,,,0 / 0,5555,2014-12-14 13:31:32:825
2.28826,-3.10109,4.06655,1.61309,-7.09596,6.57388,0.67516,3.99488,-2.50733,0.96411,-0.20298,0.1795,731.0,11.16,28.2,-25.62,279.895,48.652,-13.812,1.97,50.0858,,,,NaN,,,,0 / 0,5605,2014-12-14 13:31:32:875
0.31304,-19.51813,13.07593,2.07488,-6.82213,6.73235,-1.76183,-12.696,6.34359,2.50768,-0.29353,-0.58856,775.0,10.2,26.82,-27.0,277.812,45.228,-14.635,1.97,49.9778,,,,NaN,,,,0 / 0,5656,2014-12-14 13:31:32:926
-1.59993,1.17017,-9.38886,2.06874,-6.40434,7.13263,-3.66867,7.57451,-16.52149,1.19634,1.15097,-0.22424,775.0,9.3,23.46,-29.46,277.812,45.228,-14.635,1.97,49.9778,,,,NaN,,,,0 / 0,5706,2014-12-14 13:31:32:976
4.20841,-19.51813,3.33393,1.39986,-6.76975,6.95561,2.80855,-12.74838,-3.62168,-0.30568,0.87081,-0.4245,775.0,9.36,21.48,-30.66,262.706,40.241,-13.66,1.97,49.9778,,,,NaN,,,,0 / 0,5756,2014-12-14 13:31:33:026
-1.62866,-8.53832,-0.02274,1.06153,-7.41005,6.33521,-2.44164,-1.01125,-6.75733,-0.48358,0.32965,0.23383,775.0,10.32,19.02,-33.18,240.333,46.773,-11.044,1.97,49.9778,,,,NaN,,,,0 / 0,5806,2014-12-14 13:31:33:076
1.35213,-10.70507,2.48877,0.93748,-7.62912,6.08995,-2.43475,-1.41886,-5.51639,-0.74883,0.73765,-0.02823,637.0,11.7,18.06,-31.98,234.632,51.074,-8.751,1.97,49.9778,,,,NaN,,,,0 / 0,5855,2014-12-14 13:31:33:125
2.13742,-10.34594,3.90135,0.85084,-8.06846,5.50876,0.09652,-1.42111,-1.75555,-0.83831,0.67906,-0.10919,637.0,12.9,18.48,-30.96,234.632,51.074,-8.751,1.97,49.9778,,,,NaN,,,,0 / 0,5906,2014-12-14 13:31:33:176
-1.83216,-7.36756,3.90853,0.64344,-8.31357,5.1616,-2.4756,0.94601,-1.25307,-0.85003,0.66414,-0.16458,637.0,12.84,18.48,-30.96,232.802,55.361,-8.78,1.97,49.9778,,,,NaN,,,,0 / 0,5956,2014-12-14 13:31:33:226
-1.0732,-7.844,5.71616,0.48153,-8.43956,4.97111,-1.55473,0.59556,0.74505,-0.62846,0.75789,-0.01757,661.0,13.86,19.02,-28.92,233.68,57.967,-7.106,1.97,54.8536,,,,NaN,,,,0 / 0,6006,2014-12-14 13:31:33:276
-0.14664,-9.32123,6.67384,0.32935,-8.52126,4.84257,-0.476,-0.79996,1.83127,-0.56028,0.69504,-0.03675,661.0,14.64,19.74,-28.26,233.68,57.967,-7.106,1.97,54.8536,,,,NaN,,,,0 / 0,6056,2014-12-14 13:31:33:326
0.9068,-8.51438,5.55575,0.15802,-8.64172,4.63323,0.74879,0.12734,0.92252,0.06503,0.33817,-0.1731,661.0,16.2,22.02,-24.78,235.853,60.334,-3.891,1.97,54.8536,,,,NaN,,,,0 / 0,6105,2014-12-14 13:31:33:375
1.17256,-8.84478,2.82396,0.21937,-8.64621,4.62231,0.95319,-0.19857,-1.79834,-0.16613,0.27,-0.18269,595.0,16.8,22.62,-24.24,242.151,61.844,-2.717,1.97,54.8536,,,,NaN,,,,0 / 0,6156,2014-12-14 13:31:33:426
-2.02609,-8.91661,1.47124,0.02783,-8.76173,4.40488,-2.05393,-0.15487,-2.93365,-0.20768,-0.31164,0.09321,595.0,16.98,23.4,-24.24,242.151,61.844,-2.717,1.97,54.8536,,,,NaN,,,,0 / 0,6206,2014-12-14 13:31:33:476
2.01532,-9.35235,4.15993,0.08006,-8.83939,4.24612,1.93526,-0.51296,-0.08619,-0.25668,-0.49806,0.01225,595.0,17.76,23.76,-23.4,239.81,63.309,-0.362,1.97,54.8536,,,,NaN,,,,0 / 0,6256,2014-12-14 13:31:33:526
0.6602,-8.76098,4.02346,0.33624,-8.89715,4.1107,0.32397,0.13617,-0.08724,-0.22898,0.28171,-0.04421,595.0,17.76,24.0,-23.04,243.723,64.743,-3.428,1.97,54.8536,,,,NaN,,,,0 / 0,6305,2014-12-14 13:31:33:575
-0.40282,-9.22785,3.64278,0.24211,-8.95297,3.99443,-0.64494,-0.27488,-0.35165,-0.13204,0.26254,-0.01864,595.0,17.52,23.64,-22.74,243.633,65.523,-4.199,1.97,44.8819,,,,NaN,,,,0 / 0,6356,2014-12-14 13:31:33:626
0.45191,-8.85675,3.14,0.27758,-8.97047,3.95283,0.17433,0.11372,-0.81283,-0.066,-0.12522,-0.11238,633.0,17.52,23.94,-22.98,243.633,65.523,-4.199,1.97,44.8819,,,,NaN,,,,0 / 0,6406,2014-12-14 13:31:33:676
0.22685,-9.2925,3.76488,0.30496,-9.02195,3.83162,-0.07811,-0.27054,-0.06674,-0.13631,0.08784,-0.03781,633.0,17.7,24.6,-22.92,243.556,66.167,-4.017,1.97,44.8819,,,,NaN,,,,0 / 0,6456,2014-12-14 13:31:33:726
0.44951,-9.03392,3.80798,0.32486,-9.02868,3.81426,0.07916,0.19588,0.10624,-0.09796,-0.00591,-0.03994,633.0,17.58,24.6,-23.16,243.212,66.924,-4.551,1.97,44.8819,,,,NaN,,,,0 / 0,6506,2014-12-14 13:31:33:776
0.11193,-8.99083,3.32914,0.3708,-9.01522,3.84165,-0.39684,0.09218,-0.69986,0.07036,-0.04213,-0.08788,639.0,16.62,24.48,-22.92,242.171,66.824,-5.513,1.97,44.8819,,,,NaN,,,,0 / 0,6556,2014-12-14 13:31:33:826
0.04968,-9.06505,3.35547,0.37275,-9.01626,3.8391,-0.31199,-0.17148,-0.45415,0.06396,0.02392,-0.03781,639.0,16.5,24.48,-22.62,242.171,66.824,-5.513,1.97,44.8819,,,,NaN,,,,0 / 0,6605,2014-12-14 13:31:33:875
0.23882,-9.01477,2.53426,0.38457,-9.023,3.82219,-0.14575,0.00823,-1.28793,-0.00634,-0.04426,-0.03036,639.0,16.38,24.54,-21.9,245.23,66.839,-5.546,1.97,44.8819,,,,NaN,,,,0 / 0,6655,2014-12-14 13:31:33:925
-0.05088,-9.15124,3.78404,0.40282,-9.05712,3.73885,-0.4537,-0.09412,0.04519,-0.12565,-0.32975,0.00693,639.0,15.96,24.3,-22.5,242.92,67.153,-5.982,1.97,35.1277,,,,NaN,,,,0 / 0,6706,2014-12-14 13:31:33:976
0.84934,-9.06026,3.40336,0.45714,-9.07717,3.68348,0.3922,0.01691,-0.28012,-0.06919,-0.48102,-0.03249,639.0,16.2,24.6,-22.62,242.259,67.76,-7.075,1.97,35.1277,,,,NaN,,,,0 / 0,6755,2014-12-14 13:31:34:025
0.15502,-9.32362,3.79601,0.58942,-9.11278,3.57484,-0.4344,-0.21084,0.22116,-0.15335,-0.06769,-0.07616,685.0,16.14,24.96,-22.56,242.259,67.76,-7.075,1.97,35.1277,,,,NaN,,,,0 / 0,6805,2014-12-14 13:31:34:075
0.40642,-9.42657,3.98515,0.58598,-9.11877,3.56033,-0.17957,-0.3078,0.42482,-0.01273,0.04416,-0.0261,685.0,16.38,25.26,-22.56,246.263,68.318,-9.363,1.97,35.1277,,,,NaN,,,,0 / 0,6856,2014-12-14 13:31:34:126
0.25798,-8.73704,2.20865,0.49336,-9.10201,3.61659,-0.23538,0.36497,-1.40794,-0.03297,0.04629,0.01971,685.0,16.2,24.9,-22.92,243.762,68.22,-8.862,1.97,35.1277,,,,NaN,,,,0 / 0,6906,2014-12-14 13:31:34:176
0.42318,-9.34996,3.13281,0.48722,-9.11428,3.58651,-0.06404,-0.23568,-0.4537,-0.00634,-0.08154,0.01438,685.0,15.54,25.56,-23.52,241.171,68.341,-7.736,1.97,35.1277,,,,NaN,,,,0 / 0,6955,2014-12-14 13:31:34:225