ACCELEROMETER X (m/s²),ACCELEROMETER Y (m/s²),ACCELEROMETER Z (m/s²),GRAVITY X (m/s²),GRAVITY Y (m/s²),GRAVITY Z (m/s²),LINEAR ACCELERATION X (m/s²),LINEAR ACCELERATION Y (m/s²),LINEAR ACCELERATION Z (m/s²),GYROSCOPE X (rad/s),GYROSCOPE Y (rad/s),GYROSCOPE Z (rad/s),LIGHT (lux),MAGNETIC FIELD X (μT),MAGNETIC FIELD Y (μT),MAGNETIC FIELD Z (μT),ORIENTATION X (°),ORIENTATION Y (°),ORIENTATION Z (°),PROXIMITY (i),SOUND LEVEL (dB),LOCATION Latitude : ,LOCATION Longitude : ,LOCATION Altitude ( m),LOCATION Altitude-google ( m),LOCATION Speed ( Kmh),LOCATION Accuracy ( m),LOCATION ORIENTATION (°),Satellites in range,Time since start in ms ,YYYY-MO-DD HH-MI-SS_SSS
0.83019,-8.12652,3.25971,0.32905,-9.35923,2.90985,0.50114,1.23271,0.34985,-0.36108,-0.11457,-0.06658,105.0,24.48,29.52,-16.68,257.522,72.155,-5.497,1.97,42.7742,,,,NaN,,,,0 / 0,6,2014-12-14 13:29:21:623
0.91638,-8.97407,6.20457,0.41779,-9.41415,2.71488,0.49859,0.44008,3.4897,-0.5475,0.38824,-0.06871,105.0,23.64,28.74,-16.38,261.657,72.984,-7.264,1.97,42.7742,,,,NaN,,,,0 / 0,55,2014-12-14 13:29:21:672
1.25875,-9.39066,2.6444,0.4341,-9.42103,2.68854,0.82465,0.03038,-0.04414,-0.40475,0.32006,-0.11878,117.0,23.76,29.22,-16.68,260.551,73.877,-9.172,1.97,42.7742,,,,NaN,,,,0 / 0,106,2014-12-14 13:29:21:723
-1.64302,-7.07786,-1.1959,0.37798,-9.4972,2.41485,-2.02101,2.41934,-3.61076,-0.76588,0.48944,0.06764,117.0,23.52,29.7,-16.44,260.551,73.877,-9.172,1.97,42.7742,,,,NaN,,,,0 / 0,155,2014-12-14 13:29:21:772
2.2715,-12.29004,2.75213,0.20171,-9.66375,1.65604,2.06979,-2.62629,1.0961,-0.98958,-0.35105,-0.11025,117.0,23.16,29.88,-14.76,255.784,78.135,-5.758,1.97,42.7742,,,,NaN,,,,0 / 0,206,2014-12-14 13:29:21:823
1.26115,-8.63888,-0.41061,0.34806,-9.71747,1.27387,0.91309,1.07859,-1.68447,-1.11422,-0.14226,-0.13263,117.0,23.4,30.06,-14.28,262.655,82.261,-15.282,1.97,45.3422,,,,NaN,,,,0 / 0,256,2014-12-14 13:29:21:873
-1.82737,-10.46326,2.21583,0.26231,-9.79632,0.36661,-2.08969,-0.66693,1.84922,-1.57015,0.85376,-0.07617,117.0,23.58,30.48,-12.78,279.986,87.365,-35.584,1.97,45.3422,,,,NaN,,,,0 / 0,306,2014-12-14 13:29:21:923
-0.78111,-9.00759,1.96444,0.23254,-9.80381,-0.05073,-1.01365,0.79622,2.01517,-1.40823,0.07825,-0.13156,117.0,22.62,30.9,-11.76,279.986,87.365,-35.584,1.97,45.3422,,,,NaN,,,,0 / 0,355,2014-12-14 13:29:21:972
0.88526,-9.31165,-0.30287,0.32352,-9.75113,-0.99105,0.56174,0.43949,0.68818,-1.42421,1.05083,5.3E-4,79.0,21.24,31.68,-9.72,33.66,86.801,-151.522,1.97,45.3422,,,,NaN,,,,0 / 0,406,2014-12-14 13:29:22:023
2.78625,-8.61972,-3.14239,0.44397,-9.6817,-1.49623,2.34228,1.06198,-1.64616,-1.49452,1.23086,-0.05699,79.0,22.02,31.98,-6.42,50.221,83.898,-161.921,1.97,45.3422,,,,NaN,,,,0 / 0,455,2014-12-14 13:29:22:072
1.64182,-10.00836,-3.36266,0.68295,-9.56124,-2.07083,0.95888,-0.44712,-1.29182,-1.69585,1.36935,-0.36805,79.0,22.2,31.98,-3.96,50.221,83.898,-161.921,1.97,45.3422,,,,NaN,,,,0 / 0,506,2014-12-14 13:29:22:123
-2.07158,-14.45918,3.64517,0.9484,-9.33619,-2.84775,-3.01999,-5.12299,6.49293,-0.97467,0.6993,-0.16884,79.0,21.24,31.8,0.42,52.263,77.153,-161.748,1.97,45.3422,,,,NaN,,,,0 / 0,555,2014-12-14 13:29:22:172
0.15742,-13.88218,3.28125,0.98117,-9.33679,-2.83429,-0.82375,-4.54539,6.11554,-0.78079,0.93685,-0.09428,55.0,20.28,31.8,2.88,56.184,72.191,-160.905,1.97,52.9906,,,,NaN,,,,0 / 0,606,2014-12-14 13:29:22:223
-7.89189,-14.29638,7.64109,1.22867,-9.50109,-2.09538,-9.12056,-4.79529,9.73647,0.91192,1.39918,-0.25939,55.0,18.96,31.8,6.54,60.259,75.659,-149.614,1.97,52.9906,,,,NaN,,,,0 / 0,656,2014-12-14 13:29:22:273
-3.68767,-13.27884,2.17274,1.05524,-9.66958,-1.24768,-4.74291,-3.60926,3.42042,2.42885,0.00794,0.48203,55.0,18.0,31.2,8.1,60.259,75.659,-149.614,1.97,52.9906,,,,NaN,,,,0 / 0,706,2014-12-14 13:29:22:323
2.40557,-14.55256,-2.29963,0.80954,-9.77119,-0.20291,2.67582,-2.63377,-2.36248,2.85815,-0.3649,0.57684,55.0,16.14,30.3,10.08,41.071,85.118,-104.071,1.97,52.9906,,,,NaN,,,,0 / 0,756,2014-12-14 13:29:22:373
-1.94708,-14.00189,-2.11049,0.41958,-9.64803,1.70572,-2.36667,-4.35386,-3.81621,2.95083,-0.98382,0.86659,55.0,15.42,30.42,8.16,322.583,79.681,-13.82,1.97,52.9906,,,,NaN,,,,0 / 0,806,2014-12-14 13:29:22:423
0.94751,-13.80078,-2.64918,0.14081,-9.42926,2.69063,0.8067,-4.37151,-5.33982,3.35883,-0.50871,1.0381,55.0,14.94,30.48,5.94,322.583,79.681,-13.82,1.97,52.9906,,,,NaN,,,,0 / 0,856,2014-12-14 13:29:22:473
-0.91997,-9.40263,-3.38899,-0.22835,-8.74452,4.43316,-0.69162,-0.65811,-7.82216,3.07014,-2.7511,1.02638,71.0,16.98,29.28,-0.48,311.617,68.437,1.706,1.97,52.9906,,,,NaN,,,,0 / 0,906,2014-12-14 13:29:22:523
-1.53528,-5.1625,-4.85664,-0.0618,-8.25955,5.2864,-1.47348,3.09705,-10.14304,2.88266,-2.8523,0.8325,71.0,17.88,28.56,-3.18,305.746,57.378,0.67,1.97,52.9906,,,,NaN,,,,0 / 0,955,2014-12-14 13:29:22:572
2.16137,-2.94307,-5.30435,0.5782,-7.64334,6.11674,1.58317,4.70027,-11.42109,0.94281,-1.63363,0.4064,71.0,18.48,26.88,-8.46,302.789,51.206,-5.4,1.97,52.4922,,,,NaN,,,,0 / 0,1006,2014-12-14 13:29:22:623
1.05764,-2.30621,-1.27731,0.76195,-7.71995,5.99927,0.29568,5.41374,-7.27658,-0.20874,-0.67489,0.54595,71.0,18.48,24.96,-13.02,302.789,51.206,-5.4,1.97,52.4922,,,,NaN,,,,0 / 0,1056,2014-12-14 13:29:22:673
1.13186,-8.67958,14.39993,0.65242,-7.93947,5.7193,0.47944,-0.74011,8.68063,-1.08226,-0.31803,0.56725,93.0,16.92,23.22,-18.24,271.76,54.057,-6.508,1.97,52.4922,,,,NaN,,,,0 / 0,1106,2014-12-14 13:29:22:723
2.60429,-15.32588,15.67125,0.78246,-7.92286,5.72588,1.82184,-7.40302,9.94536,-0.13524,-1.49195,0.31266,93.0,16.32,22.62,-20.76,271.76,54.057,-6.508,1.97,52.4922,,,,NaN,,,,0 / 0,1156,2014-12-14 13:29:22:773
3.20284,-6.74267,7.87333,1.08233,-7.68344,5.99703,2.12051,0.94077,1.87631,0.75852,-0.43734,0.36485,93.0,16.38,23.16,-21.9,266.015,53.083,-9.735,1.97,52.4922,,,,NaN,,,,0 / 0,1205,2014-12-14 13:29:22:822
3.27946,-19.51813,5.11761,1.40031,-7.72414,5.87762,1.87915,-11.79399,-0.76001,-0.38132,-1.54841,0.02503,139.0,15.54,23.04,-21.48,272.806,51.966,-13.401,1.97,52.4922,,,,NaN,,,,0 / 0,1255,2014-12-14 13:29:22:872
7.23707,-0.92476,-10.88524,1.11121,-7.89039,5.71646,6.12586,6.96563,-16.60169,-1.2069,0.45855,-0.10599,139.0,13.5,22.5,-22.5,268.268,52.867,-13.492,1.97,52.4922,,,,NaN,,,,0 / 0,1305,2014-12-14 13:29:22:922
-9.35953,-18.32342,-3.02268,1.02487,-8.29022,5.13736,-10.3844,-10.0332,-8.16004,-3.18296,1.75071,0.09215,139.0,12.84,21.72,-22.92,268.268,52.867,-13.492,1.97,49.6705,,,,NaN,,,,0 / 0,1355,2014-12-14 13:29:22:972
0.02334,-7.88949,-2.54144,0.72874,-9.03901,3.73316,-0.70539,1.14952,-6.2746,-2.23381,-0.17316,0.00373,191.0,12.84,23.04,-22.62,243.928,62.244,-9.035,1.97,49.6705,,,,NaN,,,,0 / 0,1405,2014-12-14 13:29:23:022
1.25875,-9.17518,0.16879,0.71302,-9.34562,2.88486,0.54573,0.17044,-2.71607,-2.75792,0.50861,0.0016,191.0,13.8,24.54,-21.12,245.091,72.361,-13.883,1.97,49.6705,,,,NaN,,,,0 / 0,1456,2014-12-14 13:29:23:073
1.45747,-8.98604,3.02268,0.44397,-9.71971,1.22508,1.0135,0.73367,1.7976,-2.56298,1.77521,0.23063,191.0,14.16,26.82,-16.68,248.345,82.364,-19.921,1.97,49.6705,,,,NaN,,,,0 / 0,1506,2014-12-14 13:29:23:123
0.0018,-9.02434,1.80403,0.37993,-9.79917,0.05207,-0.37813,0.77482,1.75196,-2.24127,1.6069,-0.2008,191.0,13.98,28.02,-13.86,248.345,82.364,-19.921,1.97,49.6705,,,,NaN,,,,0 / 0,1556,2014-12-14 13:29:23:173
-1.97103,-10.04188,1.22463,0.40776,-9.78899,-0.42482,-2.37879,-0.25289,1.64946,-1.32407,0.78878,-0.14754,155.0,15.24,29.28,-8.04,320.765,87.759,-82.196,1.97,49.6705,,,,NaN,,,,0 / 0,1605,2014-12-14 13:29:23:222
0.6626,-11.26292,0.36272,0.41854,-9.74081,-1.05465,-0.59152,0.24241,-1.11091,-1.69479,0.92194,-0.16778,155.0,15.36,29.7,-7.32,19.143,86.558,-136.174,1.97,49.6705,,,,NaN,,,,0 / 0,1656,2014-12-14 13:29:23:273
-3.15855,-13.24053,2.69228,0.64658,-9.59267,-1.93287,-3.80513,-3.64787,4.62515,-1.03006,1.35017,-0.39255,155.0,14.28,29.52,0.48,51.451,78.005,-161.504,1.97,49.6705,,,,NaN,,,,0 / 0,1705,2014-12-14 13:29:23:322
-3.29263,-12.86704,3.11605,0.61217,-9.60614,-1.87571,-3.90479,-3.2609,4.99176,-0.2897,1.09984,-0.09108,69.0,13.62,29.52,2.52,51.451,78.005,-161.504,1.97,53.9037,,,,NaN,,,,0 / 0,1756,2014-12-14 13:29:23:373
-2.3541,-14.6172,9.2476,0.65137,-9.72929,-1.04387,-3.00547,-4.88791,10.29148,2.47679,1.45563,-0.08788,69.0,12.3,29.94,7.8,74.395,80.387,-158.99,1.97,53.9037,,,,NaN,,,,0 / 0,1806,2014-12-14 13:29:23:423
0.07362,-14.56213,-2.96761,0.61606,-9.78645,0.13153,-0.54244,-4.77568,-3.09914,3.50051,1.21062,0.27537,69.0,11.7,29.52,9.54,24.828,86.317,-77.948,1.97,53.9037,,,,NaN,,,,0 / 0,1856,2014-12-14 13:29:23:473
0.72006,-17.81107,-2.45525,0.09951,-9.64369,1.77755,0.62055,-8.16737,-4.2328,2.17212,-0.1657,1.08178,69.0,10.56,30.12,10.56,328.397,79.54,-3.204,1.97,53.9037,,,,NaN,,,,0 / 0,1905,2014-12-14 13:29:23:522
-0.43155,-16.37933,-0.29808,-0.12779,-9.47625,2.52109,-0.30376,-6.90308,-2.81917,3.15643,-1.12657,0.93797,69.0,10.5,31.98,9.6,328.397,79.54,-3.204,1.97,53.9037,,,,NaN,,,,0 / 0,1956,2014-12-14 13:29:23:573
1.42395,-8.64367,-3.77685,-0.61127,-8.77954,4.32647,2.03522,0.13587,-8.10332,2.99877,-2.015,1.35342,83.0,11.94,36.3,4.5,326.499,69.637,6.195,1.97,53.9037,,,,NaN,,,,0 / 0,2005,2014-12-14 13:29:23:622
0.69372,-4.12341,-4.86382,-0.45101,-8.26254,5.2629,1.14473,4.13913,-10.12672,2.60888,-2.8704,0.81439,83.0,14.16,37.56,0.3,324.368,57.409,4.898,1.97,53.9037,,,,NaN,,,,0 / 0,2056,2014-12-14 13:29:23:673
1.60831,-2.48099,-6.20218,0.27414,-7.59635,6.19619,1.33417,5.11536,-12.39837,0.93322,-2.23018,0.44901,83.0,18.84,36.6,-8.1,312.729,50.769,-2.533,1.97,51.5024,,,,NaN,,,,0 / 0,2106,2014-12-14 13:29:23:723
1.77829,-2.91195,-4.8734,0.59286,-7.47844,6.3159,1.18543,4.56649,-11.1893,-0.21194,-1.24162,0.59282,129.0,19.8,34.68,-14.16,312.729,50.769,-2.533,1.97,51.5024,,,,NaN,,,,0 / 0,2155,2014-12-14 13:29:23:772
3.77266,-7.17602,1.3204,0.76959,-7.87438,5.79427,4.71972,-2.00724,-0.58389,-1.67242,0.14855,0.2775,129.0,19.98,33.78,-19.56,289.412,51.147,-7.438,1.97,51.5024,,,,NaN,,,,0 / 0,2206,2014-12-14 13:29:23:823
-0.94152,-15.45038,16.53556,0.9089,-8.15211,5.37468,-1.85042,-7.29827,11.16087,-0.25668,-1.82538,0.16139,129.0,19.32,31.2,-25.98,289.412,51.147,-7.438,1.97,51.5024,,,,NaN,,,,0 / 0,2255,2014-12-14 13:29:23:872
2.20925,-8.45692,7.69856,0.96651,-8.00232,5.58567,1.24274,-0.4546,2.11288,0.5721,-0.05917,0.24235,221.0,18.36,31.44,-27.12,263.077,56.231,-9.598,1.97,51.5024,,,,NaN,,,,0 / 0,2306,2014-12-14 13:29:23:923
-6.61099,-19.51813,2.63242,1.29541,-8.10931,5.36017,-7.9064,-11.40882,-2.72774,0.02988,1.81463,0.74089,221.0,18.9,32.58,-26.64,272.602,53.489,-10.476,1.97,51.5024,,,,NaN,,,,0 / 0,2356,2014-12-14 13:29:23:973
0.29628,5.71197,-15.71434,1.27536,-8.09943,5.37977,-3.46007,13.96029,-21.82958,0.70206,-0.51297,0.19015,221.0,19.26,31.98,-28.86,266.263,55.682,-13.337,1.97,51.5024,,,,NaN,,,,0 / 0,2405,2014-12-14 13:29:24:022
0.71048,-19.51813,4.48554,1.00063,-8.43732,4.89719,-8.08402,-5.08349,-10.82628,-3.04128,1.74858,0.30839,221.0,19.08,31.68,-29.58,266.263,55.682,-13.337,1.97,54.4877,,,,NaN,,,,0 / 0,2456,2014-12-14 13:29:24:073
-2.55761,-11.28447,-0.08499,0.64823,-8.8765,4.11788,-2.32911,-5.38695,-1.73131,-2.28707,1.68467,-0.22424,261.0,18.54,31.44,-29.52,244.91,64.844,-8.946,1.97,54.4877,,,,NaN,,,,0 / 0,2506,2014-12-14 13:29:24:123
0.4112,-8.0523,-1.64841,0.55725,-9.4131,2.69348,-0.14605,1.3608,-4.34188,-2.40638,0.71741,0.11878,261.0,19.86,31.56,-28.44,241.957,73.712,-11.689,1.97,54.4877,,,,NaN,,,,0 / 0,2556,2014-12-14 13:29:24:173
0.495,-8.99801,0.75058,0.38607,-9.63083,1.80792,0.10894,0.63282,-1.05734,-2.7707,1.76456,0.30094,261.0,20.88,32.94,-25.14,241.957,73.712,-11.689,1.97,54.4877,,,,NaN,,,,0 / 0,2606,2014-12-14 13:29:24:223
0.54767,-8.41382,2.97719,0.13632,-9.79707,0.41165,0.41135,1.38325,2.56554,-1.88014,2.18854,0.07191,233.0,22.08,35.46,-21.54,241.661,83.579,-11.538,1.97,54.4877,,,,NaN,,,,0 / 0,2655,2014-12-14 13:29:24:272
0.12151,-9.19194,1.92853,0.13452,-9.80575,-0.01032,-0.01302,0.61381,1.93885,-1.29212,2.00957,-0.09214,233.0,23.58,37.2,-17.88,328.031,89.212,-94.389,1.97,54.4877,,,,NaN,,,,0 / 0,2706,2014-12-14 13:29:24:323
-2.47141,-7.46572,-4.26048,0.13707,-9.79004,-0.55516,-2.60848,2.32432,-3.70533,-1.4093,0.98798,-0.19121,233.0,24.3,38.7,-12.0,328.031,89.212,-94.389,1.97,54.4877,,,,NaN,,,,0 / 0,2756,2014-12-14 13:29:24:373
1.41437,-13.12561,4.15514,0.46088,-9.61152,-1.89172,0.95349,-3.51409,6.04686,-1.29957,1.08279,-0.31265,93.0,25.68,38.88,-3.6,53.461,81.436,-171.212,1.97,54.4877,,,,NaN,,,,0 / 0,2806,2014-12-14 13:29:24:423
-5.36122,-13.39376,3.78882,0.55306,-9.59761,-1.93736,-5.91428,-3.79616,5.72618,-0.62526,1.50251,-0.37337,93.0,26.1,38.7,0.06,61.396,78.548,-166.308,1.97,52.6916,,,,NaN,,,,0 / 0,2856,2014-12-14 13:29:24:473
1.91476,-13.05379,9.37689,0.54289,-9.6633,-1.58092,1.37188,-3.39049,10.95781,0.10658,1.15523,0.14541,93.0,26.28,38.58,2.16,61.396,78.548,-166.308,1.97,52.6916,,,,NaN,,,,0 / 0,2906,2014-12-14 13:29:24:523
-2.16975,-15.34025,-0.19034,0.73637,-9.77822,-0.1251,-2.90611,-5.56203,-0.06524,3.4334,2.45272,-0.09001,93.0,25.26,37.92,7.02,61.486,82.473,-149.965,1.97,52.6916,,,,NaN,,,,0 / 0,2956,2014-12-14 13:29:24:573
-3.85287,-16.69537,-9.55167,0.55785,-9.75353,0.85428,-4.41072,-6.94184,-10.40595,3.32581,1.31182,0.75581,93.0,24.72,37.62,7.44,323.807,84.028,-33.145,1.97,52.6916,,,,NaN,,,,0 / 0,3006,2014-12-14 13:29:24:623
1.11749,-17.70093,0.53989,-0.04055,-9.48598,2.48743,1.15805,-8.21496,-1.94753,3.12127,-1.20646,0.81972,93.0,23.58,35.1,6.42,300.695,75.305,0.934,1.97,52.6916,,,,NaN,,,,0 / 0,3055,2014-12-14 13:29:24:672
0.94511,-9.14405,-4.21499,-0.47794,-8.74751,4.40728,-0.77707,-2.53636,-8.07744,2.75163,-2.50076,1.38857,93.0,23.58,33.3,2.88,299.037,67.97,4.48,1.97,52.6916,,,,NaN,,,,0 / 0,3106,2014-12-14 13:29:24:723
0.76555,-6.02202,-5.11282,-0.36916,-8.3842,5.07331,0.69417,3.00861,-10.49498,2.56947,-3.01954,0.90175,115.0,23.58,30.06,-2.16,297.465,58.755,4.162,1.97,52.6916,,,,NaN,,,,0 / 0,3156,2014-12-14 13:29:24:773
1.30424,-1.78907,-6.59483,0.2059,-7.86001,5.86071,1.09834,6.07095,-12.45553,2.11034,-3.35084,0.65674,115.0,22.62,26.46,-6.42,297.465,58.755,4.162,1.97,52.3508,,,,NaN,,,,0 / 0,3205,2014-12-14 13:29:24:822
2.05123,-2.99814,-4.56933,0.971,-7.56164,6.16836,1.08023,4.5635,-10.7377,-0.07985,-1.69009,0.6301,115.0,21.42,23.34,-10.68,292.363,53.274,-2.012,1.97,52.3508,,,,NaN,,,,0 / 0,3256,2014-12-14 13:29:24:873
1.97222,-5.02363,-1.12408,1.13216,-7.8039,5.82988,0.84007,2.78027,-6.95396,-0.89477,-0.43947,0.57897,217.0,19.26,21.48,-14.64,280.23,52.729,-10.99,1.97,52.3508,,,,NaN,,,,0 / 0,3306,2014-12-14 13:29:24:923
1.88124,-15.76402,17.30649,1.19396,-8.22094,5.21173,0.68729,-7.54308,12.09476,0.00964,-1.82005,0.02184,217.0,16.44,19.14,-19.26,263.772,55.477,-10.914,1.97,52.3508,,,,NaN,,,,0 / 0,3356,2014-12-14 13:29:24:973
1.82618,-13.33391,10.38246,1.41318,-8.11724,5.31827,0.413,-5.21667,5.06419,0.59447,-1.04348,0.4309,217.0,15.12,18.54,-19.74,263.772,55.477,-10.914,1.97,52.3508,,,,NaN,,,,0 / 0,3406,2014-12-14 13:29:25:023
2.52768,-6.94618,4.1288,1.36514,-8.01564,5.48242,1.16253,1.06946,-1.35362,0.65945,0.16773,0.44155,217.0,13.98,18.42,-19.14,263.924,54.822,-13.983,1.97,52.3508,,,,NaN,,,,0 / 0,3455,2014-12-14 13:29:25:072
7.64409,-19.51813,19.15002,1.40375,-8.19939,5.19317,6.24034,-11.31874,13.95685,-0.03191,1.79332,0.97738,347.0,12.24,18.6,-18.84,265.988,53.604,-14.363,1.97,52.3508,,,,NaN,,,,0 / 0,3506,2014-12-14 13:29:25:123
6.32488,2.4343,-14.94341,1.6306,-8.12502,5.24375,4.69428,10.55933,-20.18716,-0.09156,-0.62483,0.11345,347.0,10.56,18.0,-19.68,265.988,53.604,-14.363,1.97,52.3508,,,,NaN,,,,0 / 0,3555,2014-12-14 13:29:25:172
-9.00998,-12.87422,-8.03374,1.52436,-8.48131,4.68141,-10.53434,-4.39291,-12.71516,-3.43756,1.8615,-0.0229,347.0,9.6,18.24,-19.56,253.226,59.865,-18.036,1.97,51.6825,,,,NaN,,,,0 / 0,3606,2014-12-14 13:29:25:223
0.15742,-7.91104,-2.21105,1.1365,-9.20271,3.19207,-0.97908,1.29167,-5.40311,-1.93873,0.04948,0.09108,423.0,8.76,19.38,-18.3,245.828,69.787,-19.598,1.97,51.6825,,,,NaN,,,,0 / 0,3656,2014-12-14 13:29:25:273
1.12228,-7.95892,-0.33639,1.03938,-9.4357,2.46139,0.0829,1.47677,-2.79777,-2.35099,1.07747,0.18376,423.0,8.58,19.38,-17.64,245.828,69.787,-19.598,1.97,51.6825,,,,NaN,,,,0 / 0,3705,2014-12-14 13:29:25:322
-1.22643,-9.04589,1.75615,0.73278,-9.70924,1.16882,-1.95921,0.66334,0.58733,-2.13261,2.03088,0.08149,423.0,8.94,21.78,-15.48,246.265,78.311,-26.03,1.97,51.6825,,,,NaN,,,,0 / 0,3756,2014-12-14 13:29:25:373
-0.27114,-8.22229,1.13365,0.62743,-9.77253,0.52523,-0.89857,1.55025,0.60843,-1.99945,1.80824,0.06125,283.0,8.82,22.56,-13.86,255.929,81.913,-32.085,1.97,51.6825,,,,NaN,,,,0 / 0,3806,2014-12-14 13:29:25:423
-0.36691,-8.77056,-1.81361,0.59586,-9.78495,-0.26695,-0.96277,1.01439,-1.54665,-1.2037,0.44576,-0.09428,283.0,9.0,23.22,-9.36,341.305,86.182,-114.133,1.97,51.6825,,,,NaN,,,,0 / 0,3855,2014-12-14 13:29:25:472
1.48141,-12.1823,1.15281,0.72245,-9.67602,-1.4226,0.75896,-2.50628,2.57541,-1.98347,0.93579,-0.28922,283.0,9.78,23.64,-6.06,19.295,83.745,-144.404,1.97,51.6825,,,,NaN,,,,0 / 0,3905,2014-12-14 13:29:25:522
-0.88166,-12.73775,4.56694,0.83917,-9.61272,-1.75061,-1.72083,-3.12503,6.31755,-1.3816,1.03166,-0.33609,145.0,10.08,23.64,-4.62,19.295,83.745,-144.404,1.97,52.7435,,,,NaN,,,,0 / 0,3955,2014-12-14 13:29:25:572
-1.93751,-12.03625,4.08571,0.83483,-9.60778,-1.77949,-2.77234,-2.42847,5.8652,-0.37599,1.0242,0.00799,145.0,9.18,23.58,-2.1,33.049,78.073,-154.294,1.97,52.7435,,,,NaN,,,,0 / 0,4006,2014-12-14 13:29:25:623
-0.58,-15.37377,11.51491,0.81343,-9.67916,-1.35078,-1.39343,-5.69461,12.86569,0.35159,1.01142,-0.00373,145.0,8.4,23.76,-0.9,35.829,80.747,-148.944,1.97,52.7435,,,,NaN,,,,0 / 0,4056,2014-12-14 13:29:25:673
-0.29509,-15.61319,-2.32118,0.75597,-9.7673,0.44712,-1.37906,-6.15953,-4.51606,3.04351,1.30117,0.20932,145.0,7.62,24.0,0.84,35.829,80.747,-148.944,1.97,52.7435,,,,NaN,,,,0 / 0,4106,2014-12-14 13:29:25:723
0.38726,-16.76001,-7.61715,0.58329,-9.70549,1.2788,-1.10343,-6.91326,-9.72674,3.12127,1.20317,0.40533,137.0,6.78,23.16,1.56,348.526,84.862,-59.398,1.97,52.7435,,,,NaN,,,,0 / 0,4155,2014-12-14 13:29:25:772
-0.2065,-15.51981,0.69312,-0.00329,-9.43525,2.67328,-0.20321,-6.08456,-1.98015,2.96255,-1.15107,0.96247,137.0,6.6,21.78,-0.3,307.887,79.227,-10.427,1.97,52.7435,,,,NaN,,,,0 / 0,4206,2014-12-14 13:29:25:823
0.18375,-11.81119,-2.5175,-0.25618,-9.0417,3.78867,1.65125,-2.02983,-6.50834,3.09784,-1.87012,1.38218,137.0,6.78,21.42,-2.94,307.887,79.227,-10.427,1.97,52.7435,,,,NaN,,,,0 / 0,4255,2014-12-14 13:29:25:872
1.9818,-5.80414,-4.27245,-0.05297,-8.29471,5.23118,2.17109,1.72068,-8.61838,2.83472,-2.6989,0.87405,191.0,7.56,20.1,-3.84,304.69,62.215,3.515,1.97,52.7435,,,,NaN,,,,0 / 0,4306,2014-12-14 13:29:25:923
2.53965,-2.54085,-5.99149,0.52089,-7.68703,6.06706,2.01876,5.14619,-12.05855,1.96014,-2.3399,0.3787,191.0,8.16,18.54,-5.28,315.106,51.615,-4.907,1.97,52.1624,,,,NaN,,,,0 / 0,4356,2014-12-14 13:29:25:973
1.86448,-3.13461,-5.9029,0.85787,-7.46003,6.30738,1.00661,4.32542,-12.21028,1.02803,-1.86053,0.31798,191.0,8.94,19.14,-7.32,315.106,51.615,-4.907,1.97,52.1624,,,,NaN,,,,0 / 0,4405,2014-12-14 13:29:26:022
0.49261,-4.65493,0.50637,1.1971,-7.7635,5.87073,-0.70449,3.10857,-5.36436,-1.35923,0.41487,0.62052,393.0,8.7,19.5,-8.88,304.569,50.37,-10.926,1.97,52.1624,,,,NaN,,,,0 / 0,4456,2014-12-14 13:29:26:073
3.0568,-16.13512,19.82459,1.0325,-8.15001,5.35553,3.29293,-5.39488,13.11274,-0.98212,-0.19979,0.02503,393.0,8.04,20.52,-11.82,287.256,56.209,-10.912,1.97,52.1624,,,,NaN,,,,0 / 0,4506,2014-12-14 13:29:26:123
-1.3198,-14.9476,16.03277,1.23212,-8.11006,5.37394,-0.10849,-4.68126,4.63727,0.26637,-2.18118,0.08895,393.0,7.74,21.3,-11.94,287.256,56.209,-10.912,1.97,52.1624,,,,NaN,,,,0 / 0,4555,2014-12-14 13:29:26:172
5.12299,-3.28065,6.0274,1.46675,-7.78983,5.77377,4.68366,4.1517,-6.56819,0.5934,-0.79527,0.28496,393.0,8.16,22.02,-10.5,302.136,54.66,-14.114,1.97,52.1624,,,,NaN,,,,0 / 0,4605,2014-12-14 13:29:26:222
2.68809,-7.15447,-6.71933,1.72861,-7.84266,5.62802,-17.34808,-11.54828,14.38796,-1.14937,0.33711,0.40746,575.0,8.76,22.44,-9.6,302.136,54.66,-14.114,1.97,52.1624,,,,NaN,,,,0 / 0,4656,2014-12-14 13:29:26:273
5.87956,0.94272,-10.45189,1.60217,-8.05409,5.36047,0.09158,7.61117,-20.00715,-0.87666,-0.04745,0.13156,575.0,8.88,24.0,-8.94,308.202,55.014,-16.727,1.97,48.9481,,,,NaN,,,,0 / 0,4706,2014-12-14 13:29:26:323
-1.08757,-19.51813,3.31956,1.17271,-8.75559,4.25854,-5.50741,-7.65247,-9.29205,-3.01465,1.68893,0.18163,575.0,9.6,27.78,-11.22,302.417,58.482,-16.55,1.97,48.9481,,,,NaN,,,,0 / 0,4756,2014-12-14 13:29:26:373
-0.96067,-8.91661,-2.25653,1.09699,-9.07163,3.55988,-3.12294,0.85802,-6.93899,-1.5073,-0.44693,-0.05273,687.0,9.72,29.1,-12.12,302.417,58.482,-16.55,1.97,48.9481,,,,NaN,,,,0 / 0,4806,2014-12-14 13:29:26:423
-0.10116,-9.40502,0.38666,0.95708,-9.47056,2.35844,-1.55114,0.09697,-2.55596,-2.53315,0.93152,0.32544,687.0,10.38,29.76,-11.52,279.723,70.786,-19.287,1.97,48.9481,,,,NaN,,,,0 / 0,4855,2014-12-14 13:29:26:472
1.83815,-8.52156,2.40737,0.7018,-9.65956,1.54022,1.3216,0.88256,1.38205,-2.55872,2.30145,0.39149,687.0,11.94,31.44,-9.24,279.723,70.786,-19.287,1.97,48.9481,,,,NaN,,,,0 / 0,4906,2014-12-14 13:29:26:523
-2.22721,-9.21827,3.41772,0.58284,-9.78435,0.31588,-2.81244,0.56952,3.24788,-1.74698,1.93607,-0.1518,475.0,12.06,32.82,-3.36,287.802,80.061,-24.496,1.97,48.9481,,,,NaN,,,,0 / 0,4955,2014-12-14 13:29:26:572
-3.16334,-9.27095,2.2302,0.53765,-9.79199,0.02619,-3.70099,0.52104,2.20401,-1.2772,1.37574,-0.10599,475.0,11.94,32.82,0.96,1.719,86.854,-87.212,1.97,48.9481,,,,NaN,,,,0 / 0,5006,2014-12-14 13:29:26:623
3.41593,-11.37306,2.67552,0.54812,-9.71702,-1.20473,2.8678,-1.65604,3.88025,-1.82901,1.07107,-0.13156,475.0,12.6,32.94,4.8,63.369,85.597,-141.643,1.97,48.9481,,,,NaN,,,,0 / 0,5056,2014-12-14 13:29:26:673
0.43754,-11.68909,1.18872,0.73008,-9.663,-1.50565,-3.49374,-1.95891,0.83423,-1.07054,1.16908,-0.39681,475.0,12.24,33.0,8.52,63.369,85.597,-141.643,1.97,52.9905,,,,NaN,,,,0 / 0,5106,2014-12-14 13:29:26:723
-1.34135,-11.91893,-0.02993,0.73637,-9.59716,-1.87705,-2.07772,-2.32178,1.84713,-0.80742,0.90596,-0.26365,245.0,11.94,33.42,10.74,86.314,79.262,-156.294,1.97,52.9905,,,,NaN,,,,0 / 0,5156,2014-12-14 13:29:26:773
-0.15383,-12.34271,4.97874,0.86356,-9.5584,-2.01562,-1.01739,-2.78431,6.99436,-0.67852,1.08279,-0.09641,245.0,11.04,32.94,15.0,96.544,77.079,-156.808,1.97,52.9905,,,,NaN,,,,0 / 0,5206,2014-12-14 13:29:26:823
-2.86646,-15.13435,10.97143,0.89364,-9.65327,-1.47902,-3.76009,-5.48108,12.45045,2.37026,1.43539,0.06232,245.0,11.04,33.0,16.5,96.544,77.079,-156.808,1.97,52.9905,,,,NaN,,,,0 / 0,5256,2014-12-14 13:29:26:873
-3.53683,-13.72656,5.0386,0.86371,-9.7444,-0.68714,-4.40054,-3.98216,5.72573,3.05416,0.86228,0.44368,201.0,10.32,33.12,17.64,89.0,83.538,-128.505,1.97,52.9905,,,,NaN,,,,0 / 0,5306,2014-12-14 13:29:26:923
1.1989,-16.01302,-5.42646,0.32067,-9.69861,1.41662,0.87822,-6.31441,-6.84308,2.62806,-0.58115,1.1425,201.0,9.78,34.38,18.06,21.065,85.18,-52.912,1.97,52.9905,,,,NaN,,,,0 / 0,5356,2014-12-14 13:29:26:973
1.40001,-15.24448,-1.76572,-0.14994,-9.40981,2.75752,1.54995,-5.83467,-4.52325,2.82407,-1.18729,1.12119,201.0,10.14,36.96,14.4,21.065,85.18,-52.912,1.97,52.9905,,,,NaN,,,,0 / 0,5406,2014-12-14 13:29:27:023
0.85892,-10.59973,-3.35547,-0.51625,-8.84313,4.20766,1.37517,-1.7566,-7.56313,3.06055,-1.40247,1.25648,295.0,12.42,38.76,9.72,327.863,73.644,3.112,1.97,48.9745,,,,NaN,,,,0 / 0,5455,2014-12-14 13:29:27:072
1.44071,-6.58705,-3.77925,-0.51924,-8.39527,5.04189,1.95995,1.80822,-8.82114,2.65788,-2.4688,1.11054,295.0,19.08,37.92,-3.06,309.669,58.879,5.88,1.97,48.9745,,,,NaN,,,,0 / 0,5506,2014-12-14 13:29:27:123
2.04644,-3.95343,-5.09127,-0.06704,-7.76425,5.99014,2.11348,3.81082,-11.08141,1.3508,-2.18544,0.52571,295.0,20.46,35.82,-7.74,309.669,58.879,5.88,1.97,48.9745,,,,NaN,,,,0 / 0,5555,2014-12-14 13:29:27:172
2.4367,-4.21439,-3.19027,0.58688,-7.57331,6.20263,1.29437,3.12668,-7.88934,0.64453,-1.57291,0.29029,595.0,20.88,32.46,-14.04,295.979,50.257,-3.119,1.97,48.9745,,,,NaN,,,,0 / 0,5605,2014-12-14 13:29:27:222
0.76315,-6.02202,0.70509,0.63731,-7.79357,5.91817,0.01571,1.78024,-5.7588,-0.50915,-0.23601,0.39788,595.0,18.48,26.82,-23.1,281.672,50.557,-5.405,1.97,48.9745,,,,NaN,,,,0 / 0,5656,2014-12-14 13:29:27:273
2.03926,-6.80253,2.18231,0.64913,-7.8883,5.79008,1.39013,1.08577,-3.60776,-0.82979,-0.31484,0.26898,595.0,17.34,25.14,-24.78,259.612,53.55,-6.397,1.97,48.9745,,,,NaN,,,,0 / 0,5705,2014-12-14 13:29:27:322
1.72083,-9.36672,8.49822,0.79413,-8.14492,5.40371,0.92671,-1.22179,3.09451,-1.07906,-0.4693,-0.00586,595.0,16.02,23.04,-27.3,259.612,53.55,-6.397,1.97,48.9745,,,,NaN,,,,0 / 0,5756,2014-12-14 13:29:27:373
2.12306,-8.93815,7.021,1.14024,-7.86989,5.7389,0.98282,-1.06826,1.28209,1.02377,-1.04241,0.16245,867.0,14.82,21.9,-27.96,246.083,56.155,-8.36,1.97,50.9117,,,,NaN,,,,0 / 0,5806,2014-12-14 13:29:27:423
2.40318,-4.70042,2.6013,1.32205,-7.68,5.95318,1.08113,2.97958,-3.35188,0.81285,-0.71857,0.21891,867.0,14.16,21.84,-27.96,254.837,51.549,-12.521,1.97,50.9117,,,,NaN,,,,0 / 0,5855,2014-12-14 13:29:27:472
2.22122,-19.51813,9.93474,1.87481,-7.33658,6.23136,0.34641,-12.18155,3.70338,1.52764,-1.91806,-0.71959,867.0,12.12,18.9,-28.02,256.031,48.428,-16.745,1.97,50.9117,,,,NaN,,,,0 / 0,5905,2014-12-14 13:29:27:522
0.71766,-2.20566,-11.33535,1.94753,-7.20744,6.3584,-1.22987,5.00179,-17.69375,1.14201,0.25295,-0.02077,969.0,11.28,17.4,-28.62,256.031,48.428,-16.745,1.97,50.9117,,,,NaN,,,,0 / 0,5956,2014-12-14 13:29:27:573
-3.02448,-19.51813,6.20457,1.35856,-7.66638,5.96261,-4.38304,-11.85175,0.24196,-1.77362,1.95205,0.204,969.0,10.38,16.44,-29.28,245.792,47.233,-15.197,1.97,50.9117,,,,NaN,,,,0 / 0,6006,2014-12-14 13:29:27:623
-1.59274,-11.33475,0.4968,1.12557,-7.95503,5.62323,-2.71832,-3.37971,-5.12643,-0.28331,-0.51937,0.18056,969.0,8.58,14.1,-29.7,225.931,54.212,-11.319,1.97,50.9117,,,,NaN,,,,0 / 0,6056,2014-12-14 13:29:27:673
0.75836,-8.95491,1.2797,1.01933,-8.41697,4.92817,-0.26097,-0.53795,-3.64846,-1.06521,0.62366,-0.03782,1031.0,9.0,14.34,-29.28,225.931,54.212,-11.319,1.97,50.9117,,,,NaN,,,,0 / 0,6106,2014-12-14 13:29:27:723
1.37367,-10.1975,2.81199,0.92057,-8.61509,4.59402,0.4531,-1.58242,-1.78203,-0.94591,1.09877,0.16245,1031.0,9.96,15.9,-28.62,227.362,59.125,-11.686,1.97,53.0546,,,,NaN,,,,0 / 0,6155,2014-12-14 13:29:27:772
-1.6502,-8.3827,3.1807,0.52672,-8.88982,4.10665,-2.17693,0.50712,-0.92596,-0.5475,0.82287,-0.04847,1031.0,10.92,16.92,-27.48,225.18,64.02,-8.978,1.97,53.0546,,,,NaN,,,,0 / 0,6206,2014-12-14 13:29:27:823
-0.76195,-8.57423,3.62123,0.34192,-8.97392,3.93996,-1.10388,0.39968,-0.31873,-0.51234,0.42446,0.01971,1031.0,10.92,17.22,-26.64,225.18,64.02,-8.978,1.97,53.0546,,,,NaN,,,,0 / 0,6256,2014-12-14 13:29:27:873
0.10475,-9.24701,4.3754,0.28641,-9.07103,3.7155,-0.18166,-0.17597,0.6599,0.00964,0.77813,-0.02716,979.0,12.54,18.84,-23.22,222.623,67.278,-4.554,1.97,53.0546,,,,NaN,,,,0 / 0,6305,2014-12-14 13:29:27:922
-0.27593,-9.62289,4.4616,0.13931,-9.07732,3.70847,-1.12393,-0.90606,0.83752,-0.01699,1.12221,5.3E-4,979.0,13.26,19.56,-22.44,228.256,67.764,-2.151,1.97,53.0546,,,,NaN,,,,0 / 0,6356,2014-12-14 13:29:27:973
-0.59915,-9.14884,1.96684,-0.01736,-9.0637,3.74423,-1.46675,0.27473,-2.11079,0.25039,0.17945,-0.10173,979.0,14.64,20.16,-22.56,228.256,67.764,-2.151,1.97,53.0546,,,,NaN,,,,0 / 0,6405,2014-12-14 13:29:28:022
-0.51535,-10.63804,3.15197,0.00314,-9.06041,3.75246,-0.69611,-0.0196,-2.2489,0.17901,-0.17102,-0.07084,821.0,14.76,20.28,-22.38,229.417,67.554,0.266,1.97,53.0546,,,,NaN,,,,0 / 0,6456,2014-12-14 13:29:28:073
-0.05567,-9.1249,2.20386,0.00359,-9.09752,3.66148,-0.71497,0.98581,-3.03046,-0.13417,0.06014,0.03036,821.0,15.18,20.28,-21.48,232.323,67.575,-0.378,1.97,46.6311,,,,NaN,,,,0 / 0,6505,2014-12-14 13:29:28:122
1.20608,-9.07462,3.23816,0.08948,-9.12819,3.58322,1.09834,-0.83647,0.03965,-0.07665,-0.17102,-0.0261,821.0,15.42,20.82,-21.0,232.322,68.429,-0.426,1.97,46.6311,,,,NaN,,,,0 / 0,6556,2014-12-14 13:29:28:173
0.31544,-8.69634,4.51666,0.12869,-9.13253,3.57095,-0.1462,0.41988,1.11794,-0.09795,0.09636,-0.0719,821.0,15.6,20.46,-21.6,232.991,68.631,-2.064,1.97,46.6311,,,,NaN,,,,0 / 0,6606,2014-12-14 13:29:28:223
-0.03412,-8.93097,3.02507,0.05806,-9.11338,3.62153,-0.62144,0.21877,-0.07138,0.08207,0.24762,0.06871,821.0,15.6,20.46,-21.6,232.991,68.631,-2.064,1.97,46.6311,,,,NaN,,,,0 / 0,6656,2014-12-14 13:29:28:273
-0.07721,-9.77134,2.96043,0.0187,-9.11458,3.61884,-0.09038,-0.65556,-0.65541,0.13321,-0.04426,-0.01438,813.0,14.46,20.76,-21.3,230.108,68.325,-0.918,1.97,46.6311,,,,NaN,,,,0 / 0,6706,2014-12-14 13:29:28:323
0.14784,-8.6317,1.96205,0.04699,-9.11682,3.613,-0.14126,0.12944,-1.3644,0.08634,-0.09539,0.03143,813.0,14.88,20.82,-21.06,232.776,68.38,-0.745,1.97,46.6311,,,,NaN,,,,0 / 0,6755,2014-12-14 13:29:28:372
-0.26396,-9.36432,3.70742,0.01257,-9.12969,3.58038,-0.13692,-0.48348,-0.02215,0.00857,0.12299,0.01012,813.0,15.54,20.88,-20.7,232.776,68.38,-0.745,1.97,46.6311,,,,NaN,,,,0 / 0,6805,2014-12-14 13:29:28:422
-0.01018,-8.61494,3.22619,0.00359,-9.1237,3.59549,-0.14994,0.06659,-0.2288,0.01496,-0.03148,-0.0261,795.0,15.72,20.1,-21.54,233.645,68.586,-0.201,1.97,47.3405,,,,NaN,,,,0 / 0,6856,2014-12-14 13:29:28:473
0.13827,-9.35714,3.69306,0.02933,-9.12071,3.60312,0.10894,-0.23643,0.08993,-0.00102,0.06333,-0.05166,795.0,15.84,19.92,-21.54,231.237,68.443,-0.466,1.97,47.3405,,,,NaN,,,,0 / 0,6906,2014-12-14 13:29:28:523
-0.25678,-9.03871,3.16633,0.00554,-9.13014,3.57948,-0.26231,0.09143,-0.41315,-0.00208,0.02392,-0.03142,795.0,16.14,20.82,-20.88,231.237,68.443,-0.466,1.97,47.3405,,,,NaN,,,,0 / 0,6955,2014-12-14 13:29:28:572
0.09996,-9.2063,3.02268,0.03397,-9.13807,3.55883,0.06599,-0.06823,-0.53615,-0.01486,0.0154,-0.06871,777.0,16.02,20.34,-21.12,233.501,68.592,-0.089,1.97,47.3405,,,,NaN,,,,0 / 0,7005,2014-12-14 13:29:28:622
-0.04609,-9.0004,3.05859,0.04788,-9.15139,3.52441,-0.09397,0.15098,-0.46582,-0.03723,0.09742,-0.03888,777.0,15.36,20.16,-21.18,231.365,68.935,-0.778,1.97,47.3405,,,,NaN,,,,0 / 0,7056,2014-12-14 13:29:28:673
-0.18495,-9.15603,3.14,0.03786,-9.1647,3.4897,-0.22281,0.00868,-0.3497,-0.05747,0.08464,-0.04208,777.0,15.42,20.16,-20.88,231.365,68.935,-0.778,1.97,47.3405,,,,NaN,,,,0 / 0,7107,2014-12-14 13:29:28:724
-0.22326,-9.28531,3.23337,0.03726,-9.18266,3.44226,-0.21742,-0.05956,-0.13707,-0.05215,-0.00591,-0.03356,777.0,15.9,20.7,-22.02,230.828,69.293,-0.643,1.97,47.3405,,,,NaN,,,,0 / 0,7155,2014-12-14 13:29:28:772
0.06644,-9.06026,3.05859,0.03876,-9.1879,3.42835,-0.09203,0.07018,-0.17822,-0.00421,-0.00804,-0.01332,769.0,16.2,21.12,-22.14,231.124,69.536,-0.648,1.97,42.3074,,,,NaN,,,,0 / 0,7205,2014-12-14 13:29:28:822
0.07841,-8.57902,2.31639,0.05222,-9.20526,3.38121,0.02095,0.63027,-1.05345,-0.09795,-0.19872,-0.03569,769.0,16.38,21.24,-21.78,231.124,69.536,-0.648,1.97,42.3074,,,,NaN,,,,0 / 0,7256,2014-12-14 13:29:28:873
0.32741,-9.66599,2.87185,0.20306,-9.25658,3.23202,0.07766,-0.25109,-0.44742,-0.11393,-0.3894,-0.10599,769.0,16.02,21.0,-21.54,231.117,69.829,-0.885,1.97,42.3074,,,,NaN,,,,0 / 0,7305,2014-12-14 13:29:28:922
0.38487,-9.37629,3.53025,0.28596,-9.28441,3.14478,-0.22027,0.23523,-0.227,-0.15228,-0.26583,-0.06871,769.0,15.54,21.12,-21.72,233.486,70.718,-3.595,1.97,42.3074,,,,NaN,,,,0 / 0,7356,2014-12-14 13:29:28:973
0.03771,-9.73542,3.87502,0.29703,-9.2883,3.13221,-0.33609,-0.28341,0.67876,-0.02978,0.04416,-0.00905,769.0,15.06,21.12,-21.48,235.278,71.287,-5.417,1.97,42.3074,,,,NaN,,,,0 / 0,7405,2014-12-14 13:29:29:022
-0.05088,-8.3396,2.67791,0.25109,-9.26616,3.2012,-0.27713,0.92192,-0.53825,0.18647,0.47666,0.0293,835.0,14.82,21.3,-21.3,235.278,71.287,-5.417,1.97,42.3074,,,,NaN,,,,0 / 0,7456,2014-12-14 13:29:29:073
0.10235,-9.48164,2.61088,0.16625,-9.26122,3.22065,0.75477,0.36542,-1.19605,-0.02445,-0.04213,-0.01971,835.0,14.64,21.48,-21.3,233.095,70.715,-3.083,1.97,42.3074,,,,NaN,,,,0 / 0,7505,2014-12-14 13:29:29:122