ACCELEROMETER X (m/s²),ACCELEROMETER Y (m/s²),ACCELEROMETER Z (m/s²),GRAVITY X (m/s²),GRAVITY Y (m/s²),GRAVITY Z (m/s²),LINEAR ACCELERATION X (m/s²),LINEAR ACCELERATION Y (m/s²),LINEAR ACCELERATION Z (m/s²),GYROSCOPE X (rad/s),GYROSCOPE Y (rad/s),GYROSCOPE Z (rad/s),LIGHT (lux),MAGNETIC FIELD X (μT),MAGNETIC FIELD Y (μT),MAGNETIC FIELD Z (μT),ORIENTATION X (°),ORIENTATION Y (°),ORIENTATION Z (°),PROXIMITY (i),SOUND LEVEL (dB),LOCATION Latitude : ,LOCATION Longitude : ,LOCATION Altitude ( m),LOCATION Altitude-google ( m),LOCATION Speed ( Kmh),LOCATION Accuracy ( m),LOCATION ORIENTATION (°),Satellites in range,Time since start in ms ,YYYY-MO-DD HH-MI-SS_SSS
-0.2472,-9.43854,2.51511,0.05447,-9.55197,2.22032,-0.30167,0.11343,0.29479,-0.60411,-0.27021,0.11695,127.0,21.84,28.38,-16.26,248.734,76.91,-1.405,,43.5344,,,,NaN,,,,0 / 0,6,2014-12-14 13:27:00:960
1.04088,-9.36911,0.30765,0.12121,-9.67587,1.59244,1.00586,0.0817,-1.61998,-0.81503,-0.17221,-0.02686,127.0,21.84,28.44,-15.78,247.327,78.81,-2.163,,43.5344,,,,NaN,,,,0 / 0,56,2014-12-14 13:27:01:010
0.68414,-9.79767,0.95409,0.13378,-9.71866,1.30484,0.55037,-0.07901,-0.35075,-1.12928,0.30397,-0.00343,127.0,22.62,28.8,-14.76,247.327,78.81,-2.163,,43.5344,,,,NaN,,,,0 / 0,106,2014-12-14 13:27:01:060
0.2484,-8.73704,1.49757,0.13931,-9.76131,0.93299,-0.5589,0.45924,1.14159,-1.15804,0.30716,-0.12167,127.0,22.56,28.74,-14.34,252.947,84.48,-8.493,,43.5344,,,,NaN,,,,0 / 0,156,2014-12-14 13:27:01:110
-0.32142,-9.37629,0.22146,0.19468,-9.8047,0.0431,-0.40836,0.41165,0.65003,-1.19107,0.70451,-0.10356,135.0,21.96,29.7,-13.2,317.851,88.835,-77.518,,52.9326,,,,NaN,,,,0 / 0,205,2014-12-14 13:27:01:159
-0.22565,-9.40502,-0.45849,0.2065,-9.80007,-0.29553,-0.74579,0.44772,0.00943,-1.20491,0.99319,-0.04391,135.0,21.66,30.48,-12.54,317.851,88.835,-77.518,,52.9326,,,,NaN,,,,0 / 0,256,2014-12-14 13:27:01:210
0.35374,-9.52234,-1.36829,0.23628,-9.77403,-0.7654,0.11747,0.25169,-0.60289,-1.1932,1.06989,-0.04391,135.0,21.48,30.6,-10.92,41.249,85.315,-162.845,,52.9326,,,,NaN,,,,0 / 0,306,2014-12-14 13:27:01:260
-0.75477,-10.8583,-0.93733,0.58359,-9.63157,-1.75076,-1.33836,-1.22673,0.81343,-1.4201,1.35858,-0.34218,71.0,20.82,30.42,-6.66,43.456,79.153,-161.565,,52.9326,,,,NaN,,,,0 / 0,356,2014-12-14 13:27:01:310
-0.75477,-10.8583,-0.93733,0.58359,-9.63157,-1.75076,-1.33836,-1.22673,0.81343,-1.4201,1.35858,-0.34218,71.0,20.82,30.42,-6.66,43.456,79.153,-161.565,,52.9326,,,,NaN,,,,0 / 0,406,2014-12-14 13:27:01:360
1.13904,-11.80641,3.4704,0.90231,-9.5156,-2.19339,0.23673,-2.2908,5.66378,-0.49971,0.63207,-0.38692,71.0,19.92,30.72,-0.54,45.125,79.153,-161.565,,52.9326,,,,NaN,,,,0 / 0,455,2014-12-14 13:27:01:409
-1.82259,-13.30039,3.64996,1.05255,-9.52249,-2.09418,-2.87514,-3.7779,5.74414,-0.46775,0.89732,-0.5041,57.0,19.08,30.48,2.16,52.491,76.172,-153.316,,52.9326,,,,NaN,,,,0 / 0,506,2014-12-14 13:27:01:460
-4.38438,-12.78085,5.3283,0.92536,-9.64369,-1.52181,-5.30974,-3.13715,6.85011,0.99699,0.19211,0.00722,57.0,17.7,30.72,3.3,52.491,76.172,-153.316,,51.5222,,,,NaN,,,,0 / 0,556,2014-12-14 13:27:01:510
0.74879,-12.16793,-2.76171,0.58029,-9.78839,-0.15054,0.16849,-2.37954,-2.61118,2.13576,-0.26702,0.39605,57.0,15.42,30.3,5.4,54.273,83.548,-140.217,,51.5222,,,,NaN,,,,0 / 0,606,2014-12-14 13:27:01:560
2.08236,-13.74332,-2.5582,0.4332,-9.77867,0.60124,1.64916,-3.96465,-3.15945,2.5299,-1.01057,0.49405,57.0,15.54,30.24,5.04,327.251,85.666,-35.773,,51.5222,,,,NaN,,,,0 / 0,656,2014-12-14 13:27:01:610
1.51733,-13.01069,-0.98043,0.28282,-9.63531,1.80328,1.23451,-3.37538,-2.78371,2.74402,-1.28008,0.52281,57.0,15.84,29.76,3.72,327.251,85.666,-35.773,,51.5222,,,,NaN,,,,0 / 0,706,2014-12-14 13:27:01:660
2.29305,-10.04188,-3.42012,0.19947,-9.34906,2.9543,2.09358,-0.69282,-6.37441,2.82605,-0.14131,0.39605,67.0,15.24,29.28,0.66,305.611,72.426,-3.863,,51.5222,,,,NaN,,,,0 / 0,756,2014-12-14 13:27:01:710
-0.62549,-5.59824,-3.61644,0.19228,-8.73958,4.44454,-0.81777,3.14134,-8.06098,2.26998,-1.98955,0.44505,67.0,15.96,29.16,-4.08,302.289,63.023,-2.477,,51.5222,,,,NaN,,,,0 / 0,806,2014-12-14 13:27:01:760
1.44071,-4.02046,-4.27245,0.39534,-8.49358,4.88612,1.04537,4.47312,-9.15857,1.54879,-1.82763,0.22241,67.0,16.14,28.92,-6.48,302.289,63.023,-2.477,,51.5222,,,,NaN,,,,0 / 0,856,2014-12-14 13:27:01:810
1.67534,-4.77942,-2.78087,0.71108,-8.36893,5.06239,0.96426,3.58951,-7.84325,0.7882,-1.02655,0.15849,67.0,16.98,28.02,-9.78,294.127,58.582,-7.996,,51.5222,,,,NaN,,,,0 / 0,905,2014-12-14 13:27:01:859
2.22601,-7.36516,8.69933,0.40791,-8.38779,5.06448,1.8181,1.02262,3.63485,-0.07786,0.15696,0.86263,119.0,16.38,26.4,-16.2,273.084,58.795,-4.605,,48.8947,,,,NaN,,,,0 / 0,955,2014-12-14 13:27:01:909
1.04327,-7.68838,8.81665,0.44502,-8.32165,5.16953,0.59825,0.63327,3.64712,-0.01821,-0.89019,0.29591,119.0,15.78,26.04,-17.94,273.084,58.795,-4.605,,48.8947,,,,NaN,,,,0 / 0,1006,2014-12-14 13:27:01:960
0.93314,-10.65958,8.0936,0.54318,-8.04182,5.58627,0.38996,-2.61776,2.50733,0.93414,-0.95624,0.25756,119.0,15.54,25.08,-19.32,268.488,56.913,-5.12,,48.8947,,,,NaN,,,,0 / 0,1056,2014-12-14 13:27:02:010
-1.21925,-3.91991,1.10253,0.68265,-7.88396,5.79217,-1.90189,3.96405,-4.68964,0.60497,-1.57196,0.36728,141.0,15.36,24.9,-19.5,273.709,53.507,-6.722,,48.8947,,,,NaN,,,,0 / 0,1107,2014-12-14 13:27:02:061
7.29214,1.49338,-12.24036,0.96022,-7.95848,5.64897,6.33192,9.45186,-17.88933,-0.62221,-0.81669,0.49618,141.0,15.24,24.6,-20.16,273.709,53.507,-6.722,,48.8947,,,,NaN,,,,0 / 0,1156,2014-12-14 13:27:02:110
7.93379,3.73196,-10.68412,0.92611,-7.95189,5.66393,7.00768,11.68385,-16.34806,-2.37671,0.50743,-0.43806,141.0,13.86,24.42,-20.88,267.111,54.247,-9.647,,48.8947,,,,NaN,,,,0 / 0,1205,2014-12-14 13:27:02:159
-2.42114,-16.37694,2.81678,0.42347,-8.79435,4.31854,-2.84461,-7.58259,-1.50176,-1.75139,0.82169,-0.00556,173.0,12.78,24.12,-22.32,267.111,54.247,-9.647,,48.8947,,,,NaN,,,,0 / 0,1255,2014-12-14 13:27:02:209
-0.43155,-8.3396,-2.53187,0.33698,-9.17458,3.44735,-0.40701,0.7033,-5.43095,-2.08056,-0.23399,0.11482,173.0,12.72,25.38,-22.8,239.987,63.738,-5.6,,48.8947,,,,NaN,,,,0 / 0,1306,2014-12-14 13:27:02:260
3.29382,-8.44255,0.27892,0.33968,-9.4544,2.5826,2.95415,1.01185,-2.30367,-2.26592,0.35936,0.03812,173.0,13.8,27.42,-20.34,238.296,74.596,-7.493,,49.3915,,,,NaN,,,,0 / 0,1356,2014-12-14 13:27:02:310
1.88124,-9.73542,1.20787,0.25214,-9.67228,1.59873,1.6291,-0.06315,-0.39085,-2.2787,1.45232,0.10416,219.0,14.22,28.5,-17.88,238.296,74.596,-7.493,,49.3915,,,,NaN,,,,0 / 0,1405,2014-12-14 13:27:02:359
-0.61351,-8.85436,0.4561,0.14919,-9.77343,0.79383,-0.7627,0.91907,-0.33773,-2.00173,1.75699,0.04238,219.0,14.16,29.46,-15.18,239.527,85.276,-10.644,,49.3915,,,,NaN,,,,0 / 0,1456,2014-12-14 13:27:02:410
-0.3286,-10.18314,2.45047,0.11462,-9.79558,-0.4522,-0.44323,-0.38756,2.90267,-1.50212,0.6555,-0.0471,219.0,14.04,31.08,-9.72,37.292,87.273,-165.777,,49.3915,,,,NaN,,,,0 / 0,1506,2014-12-14 13:27:02:460
0.31783,-9.75697,-0.65242,0.17074,-9.76296,-0.9101,0.14709,0.00599,0.25768,-1.32742,0.43712,-0.10356,219.0,14.64,31.62,-6.72,37.292,87.273,-165.777,,49.3915,,,,NaN,,,,0 / 0,1556,2014-12-14 13:27:02:510
-1.29107,-11.92133,1.71545,0.43724,-9.67302,-1.55369,-1.72831,-2.24831,3.26913,-1.39773,1.20625,-0.08652,95.0,14.82,31.62,-3.12,58.456,84.582,-169.375,,49.3915,,,,NaN,,,,0 / 0,1605,2014-12-14 13:27:02:559
-3.87202,-12.04343,0.24541,0.47226,-9.65881,-1.62985,-4.34428,-2.38462,1.87526,-0.46349,1.41397,-0.26761,95.0,13.86,32.34,1.32,58.446,80.036,-163.841,,49.3915,,,,NaN,,,,0 / 0,1656,2014-12-14 13:27:02:610
-0.51296,-13.59487,6.08247,0.45355,-9.67198,-1.55548,-0.96651,-3.9229,7.63795,-0.41342,1.14126,0.00829,95.0,13.38,32.76,4.32,58.446,80.036,-163.841,,52.1039,,,,NaN,,,,0 / 0,1705,2014-12-14 13:27:02:659
-0.97264,-13.79359,3.01071,0.38173,-9.79782,-0.16939,-1.35437,-3.99577,3.1801,2.82605,0.64059,0.25437,69.0,12.48,32.46,7.86,80.172,83.135,-157.173,,52.1039,,,,NaN,,,,0 / 0,1756,2014-12-14 13:27:02:710
1.321,-14.05456,-6.94678,0.20485,-9.76849,0.84051,1.11615,-4.28607,-7.78729,3.00714,0.70557,0.6336,69.0,11.64,33.18,9.12,56.347,87.559,-113.929,,52.1039,,,,NaN,,,,0 / 0,1806,2014-12-14 13:27:02:760
0.0401,-14.40651,0.47764,-0.18914,-9.55675,2.19159,0.22924,-4.84975,-1.71395,2.42764,-1.45372,0.75611,69.0,10.56,35.1,9.66,324.036,80.861,0.633,,52.1039,,,,NaN,,,,0 / 0,1855,2014-12-14 13:27:02:809
2.56599,-10.37707,-2.33794,-0.42557,-9.0628,3.72239,2.99156,-1.31427,-6.06032,2.84522,-1.40898,0.85837,85.0,11.46,36.96,6.36,324.036,80.861,0.633,,52.1039,,,,NaN,,,,0 / 0,1906,2014-12-14 13:27:02:860
2.70485,-7.11856,-3.46561,-0.44233,-8.7339,4.43765,3.14718,1.61534,-7.90326,2.5054,-2.01192,0.64958,85.0,13.68,38.76,-0.06,323.833,67.539,6.522,,52.1039,,,,NaN,,,,0 / 0,1955,2014-12-14 13:27:02:909
-0.33818,-4.95181,-4.38498,0.02364,-8.01654,5.64852,-0.36182,3.06473,-10.0335,1.6223,-1.97037,0.4589,85.0,16.2,38.94,-6.66,319.361,58.338,2.886,,52.1039,,,,NaN,,,,0 / 0,2005,2014-12-14 13:27:02:959
0.87807,-5.60064,-3.90853,0.29449,-7.89009,5.81626,0.58359,2.28946,-9.7248,0.49525,-1.32376,0.46209,85.0,18.18,37.92,-11.76,306.311,53.569,-2.899,,52.1039,,,,NaN,,,,0 / 0,2055,2014-12-14 13:27:03:009
1.78069,-4.51846,-0.48004,0.38846,-8.02372,5.62503,1.0343,3.03211,-4.93325,-0.31861,-0.32347,0.49512,149.0,19.26,36.12,-17.46,306.311,53.569,-2.899,,51.0431,,,,NaN,,,,0 / 0,2106,2014-12-14 13:27:03:060
2.24995,-9.92935,12.08234,0.38621,-8.2588,5.27383,1.86374,-1.67055,6.80851,-0.90664,0.03765,0.51962,149.0,18.66,33.96,-24.48,275.703,56.484,-3.665,,51.0431,,,,NaN,,,,0 / 0,2156,2014-12-14 13:27:03:110
0.4112,-13.27166,17.13889,0.56698,-8.15061,5.42362,-0.15577,-5.12105,11.71528,0.51229,-1.17888,0.27034,149.0,18.66,33.78,-25.02,265.882,57.369,-4.188,,51.0431,,,,NaN,,,,0 / 0,2205,2014-12-14 13:27:03:159
1.48141,-5.52402,2.81678,0.60139,-7.8437,5.85532,0.88002,2.31968,-3.03854,0.4537,-0.1754,0.37261,225.0,19.68,34.32,-26.04,273.438,53.114,-5.864,,51.0431,,,,NaN,,,,0 / 0,2255,2014-12-14 13:27:03:209
3.50691,-3.24714,-0.0395,0.65511,-7.77023,5.9469,2.85179,4.5231,-5.9864,-0.86296,-1.51018,0.00509,225.0,18.84,34.02,-27.06,273.438,53.114,-5.864,,51.0431,,,,NaN,,,,0 / 0,2305,2014-12-14 13:27:03:259
5.23552,-7.63331,-8.75919,1.04267,-8.11275,5.40985,4.19285,0.47944,-14.16903,0.38766,0.19531,0.38752,225.0,18.84,33.06,-28.74,264.691,55.405,-9.607,,51.0431,,,,NaN,,,,0 / 0,2356,2014-12-14 13:27:03:310
-4.01807,-5.95258,-14.57949,0.97309,-8.24024,5.22714,-4.99116,2.28766,-19.80663,-2.71652,0.84086,-0.32407,253.0,19.62,31.62,-30.12,264.691,55.405,-9.607,,51.0431,,,,NaN,,,,0 / 0,2406,2014-12-14 13:27:03:360
-3.93427,-9.2087,-0.66918,0.45744,-8.96494,3.94849,-4.39171,-0.24376,-4.61767,-1.69281,1.19879,-0.12487,253.0,18.36,30.12,-31.92,256.428,57.168,-10.546,,50.8317,,,,NaN,,,,0 / 0,2455,2014-12-14 13:27:03:409
1.16059,-8.14328,-1.79445,0.34058,-9.24925,3.2413,0.82001,1.10597,-5.03575,-2.41718,1.16044,0.03066,253.0,18.3,29.34,-31.92,234.447,66.088,-6.608,,50.8317,,,,NaN,,,,0 / 0,2505,2014-12-14 13:27:03:459
1.51972,-8.79211,1.58616,0.15368,-9.60778,1.95906,1.36604,0.81567,-0.3729,-2.28083,2.22357,-0.08865,293.0,20.28,32.22,-26.82,230.115,78.441,-4.485,,50.8317,,,,NaN,,,,0 / 0,2555,2014-12-14 13:27:03:509
-2.04285,-8.91421,1.97402,-0.00988,-9.78031,0.71961,-2.03298,0.8661,1.25441,-1.91758,1.76338,-0.02899,293.0,21.3,33.54,-22.8,224.937,85.792,0.786,,50.8317,,,,NaN,,,,0 / 0,2606,2014-12-14 13:27:03:560
-0.73801,-10.22384,4.2126,-0.0226,-9.80635,0.08051,-1.23496,-0.7862,3.77775,-1.61611,1.08054,-0.11954,293.0,21.84,35.64,-18.06,224.937,85.792,0.786,,50.8317,,,,NaN,,,,0 / 0,2656,2014-12-14 13:27:03:610
1.25157,-8.6724,-1.86389,0.09981,-9.78839,-0.59062,0.78066,0.61082,-1.81675,-1.59693,0.66083,-0.21115,293.0,23.64,37.38,-10.74,56.616,88.962,-179.131,,50.8317,,,,NaN,,,,0 / 0,2705,2014-12-14 13:27:03:659
0.25798,-11.98837,3.19267,0.23957,-9.71792,-1.29511,-1.51733,-2.39061,5.26545,-1.76098,0.87069,-0.20263,121.0,24.72,37.98,-7.08,54.821,82.282,-169.52,,50.8317,,,,NaN,,,,0 / 0,2755,2014-12-14 13:27:03:709
-2.55521,-12.2206,2.72819,0.32067,-9.69472,-1.44236,-3.2422,-1.91132,2.4584,-0.38146,0.94632,-0.26868,121.0,24.96,37.8,-4.56,54.821,82.282,-169.52,,52.8867,,,,NaN,,,,0 / 0,2806,2014-12-14 13:27:03:760
-0.24002,-12.4696,7.83981,0.3925,-9.70086,-1.3825,-0.63252,-2.76874,9.22232,-0.49012,0.99958,-0.14085,121.0,24.36,37.92,-0.9,57.578,81.334,-167.466,,52.8867,,,,NaN,,,,0 / 0,2856,2014-12-14 13:27:03:810
-2.33495,-13.75289,3.52307,0.44831,-9.79543,-0.14635,-2.78326,-3.95747,3.66941,2.6588,1.25312,-0.02047,93.0,24.3,37.74,1.68,61.629,83.883,-155.274,,52.8867,,,,NaN,,,,0 / 0,2906,2014-12-14 13:27:03:860
-1.6095,-15.36419,-4.38977,0.32382,-9.77448,0.72649,-1.93332,-5.58971,-5.11626,3.00501,1.09333,0.43227,93.0,23.16,36.18,3.6,309.357,85.348,-24.024,,52.8867,,,,NaN,,,,0 / 0,2955,2014-12-14 13:27:03:909
1.17974,-16.87972,-5.89572,-0.06644,-9.63337,1.83411,1.24618,-7.24635,-7.72983,2.38929,-0.23612,1.05012,93.0,22.44,35.04,3.3,309.357,85.348,-24.024,,52.8867,,,,NaN,,,,0 / 0,3005,2014-12-14 13:27:03:959
0.44712,-14.96436,0.53989,-0.32217,-9.37749,2.8512,0.76929,-5.58687,-2.3113,2.99649,-1.24812,0.78061,113.0,21.3,33.6,1.44,292.392,72.987,6.447,,52.8867,,,,NaN,,,,0 / 0,3056,2014-12-14 13:27:04:010
1.75914,-12.08174,-3.67869,-0.48931,-9.02524,3.80469,2.24845,-3.0565,-7.48338,3.03697,-0.68886,0.9649,113.0,20.4,31.98,-0.12,292.392,72.987,6.447,,52.8867,,,,NaN,,,,0 / 0,3105,2014-12-14 13:27:04:059
0.34656,-3.85766,-4.6244,-0.31289,-8.15181,5.44262,0.65945,4.29415,-10.06702,2.28276,-2.57438,0.48127,113.0,19.44,27.96,-5.22,298.553,60.091,6.173,,49.7583,,,,NaN,,,,0 / 0,3156,2014-12-14 13:27:04:110
1.85251,-3.0149,-5.02184,0.27877,-7.64424,6.13664,1.57374,4.62934,-11.15848,0.56875,-1.31843,0.27034,113.0,18.72,25.56,-12.36,294.631,51.81,-1.691,,49.7583,,,,NaN,,,,0 / 0,3205,2014-12-14 13:27:04:159
1.88124,-4.15693,-0.51116,0.62444,-7.69571,6.04626,1.25681,3.53878,-6.55742,-0.07786,-0.71869,0.42907,189.0,17.1,23.82,-14.64,282.62,51.214,-2.601,,49.7583,,,,NaN,,,,0 / 0,3256,2014-12-14 13:27:04:210
1.46705,-5.09067,2.17274,0.66155,-7.80525,5.90006,0.8055,2.71458,-3.72732,-0.58387,-0.18392,0.34491,189.0,15.24,22.2,-16.86,282.62,51.214,-2.601,,49.7583,,,,NaN,,,,0 / 0,3305,2014-12-14 13:27:04:259
-0.33339,-14.44721,16.52119,0.75178,-8.05843,5.53779,-1.08517,-6.38878,10.9834,-0.29944,-1.37382,0.21495,189.0,12.24,21.06,-19.86,265.096,54.896,-6.786,,49.7583,,,,NaN,,,,0 / 0,3356,2014-12-14 13:27:04:310
1.18453,-10.43932,8.71609,0.92745,-7.94157,5.6783,0.25708,-2.49775,3.03779,0.64971,-1.04679,0.24052,313.0,11.88,20.94,-20.16,262.075,54.077,-9.276,,49.7583,,,,NaN,,,,0 / 0,3406,2014-12-14 13:27:04:360
3.73914,-2.1482,-17.52196,1.11869,-7.73522,5.92341,2.62045,5.58702,-23.44537,-0.70744,-1.41217,0.15956,313.0,11.04,21.66,-18.72,269.049,52.801,-9.235,,49.7583,,,,NaN,,,,0 / 0,3455,2014-12-14 13:27:04:409
5.09187,-19.51813,19.82459,1.03355,-8.17351,5.31932,4.05832,-11.34462,14.50527,-0.42088,1.31384,0.64638,313.0,9.72,21.6,-18.54,269.049,52.801,-9.235,,50.1485,,,,NaN,,,,0 / 0,3507,2014-12-14 13:27:04:461
-2.82576,-1.47064,-16.95693,1.1769,-8.16438,5.30376,-4.00266,6.69374,-22.26069,-1.75779,0.81636,-0.1792,397.0,7.8,21.42,-19.32,262.248,55.636,-12.92,,50.1485,,,,NaN,,,,0 / 0,3557,2014-12-14 13:27:04:511
-1.83216,-19.51813,6.13754,0.79039,-8.71594,4.42463,-2.62255,-10.80219,1.7129,-2.06778,1.8454,0.09458,397.0,6.42,22.62,-18.84,240.913,62.721,-10.128,,50.1485,,,,NaN,,,,0 / 0,3606,2014-12-14 13:27:04:560
0.9906,-8.70831,-3.35787,0.71228,-9.13538,3.49404,0.27833,0.42707,-6.85191,-1.89627,0.23366,0.16701,397.0,6.84,23.16,-18.9,240.913,62.721,-10.128,,50.1485,,,,NaN,,,,0 / 0,3656,2014-12-14 13:27:04:610
1.09595,-8.66521,0.14485,0.53466,-9.45425,2.54982,0.56129,0.78904,-2.40498,-2.31172,1.44167,0.17341,397.0,7.2,23.94,-17.46,241.846,68.677,-11.522,,50.1485,,,,NaN,,,,0 / 0,3706,2014-12-14 13:27:04:660
-0.50817,-8.61733,1.12168,0.27937,-9.72315,1.24693,-0.78754,1.10582,-0.12525,-1.88668,1.64513,-0.03645,403.0,7.02,25.26,-13.38,231.109,82.513,-12.629,,50.1485,,,,NaN,,,,0 / 0,3756,2014-12-14 13:27:04:710
-0.98462,-10.25018,2.89818,0.23014,-9.80111,0.23807,-1.21476,-0.44906,2.66011,-1.50958,1.35751,-0.18452,403.0,6.72,25.86,-11.4,231.109,82.513,-12.629,,50.1485,,,,NaN,,,,0 / 0,3806,2014-12-14 13:27:04:760
-0.39804,-9.68754,1.87107,0.24675,-9.80336,-0.06644,-0.64479,0.11582,1.93751,-1.14313,0.60118,-0.2005,403.0,7.2,26.7,-8.46,328.243,88.507,-105.07,,53.5506,,,,NaN,,,,0 / 0,3856,2014-12-14 13:27:04:810
0.31544,-10.39383,-0.77452,0.33324,-9.77343,-0.73502,0.6617,-1.21042,0.98252,-1.38175,0.91436,-0.2282,169.0,6.84,27.42,-4.98,24.091,85.28,-155.611,,53.5506,,,,NaN,,,,0 / 0,3906,2014-12-14 13:27:04:860
-1.61668,-12.50551,2.53905,0.53002,-9.70924,-1.27357,-3.28918,-2.41545,3.32151,-1.00891,0.93141,-0.3539,169.0,7.08,27.54,-2.76,24.091,85.28,-155.611,,53.5506,,,,NaN,,,,0 / 0,3956,2014-12-14 13:27:04:910
-2.71083,-11.26771,0.79368,0.54693,-9.70041,-1.32923,0.07661,-3.40665,7.20939,-0.50184,0.85577,-0.03752,169.0,6.48,27.18,0.24,39.496,81.914,-157.405,,53.5506,,,,NaN,,,,0 / 0,4006,2014-12-14 13:27:04:960
-4.38199,-16.66664,11.29944,0.59496,-9.73827,-0.9921,-4.97695,-6.92837,12.29153,0.78607,0.80358,-0.17281,133.0,5.52,27.18,1.32,46.359,83.226,-149.049,,53.5506,,,,NaN,,,,0 / 0,4056,2014-12-14 13:27:05:010
-1.92075,-14.2461,-5.56532,0.37769,-9.75113,0.9716,0.2897,-4.49496,-6.53692,2.59382,0.67042,0.17554,133.0,5.22,27.0,1.74,46.359,83.226,-149.049,,53.5506,,,,NaN,,,,0 / 0,4106,2014-12-14 13:27:05:060
1.3641,-14.46636,-7.20296,0.32082,-9.72181,1.24738,1.04327,-4.74456,-8.45033,2.63749,0.54365,0.89779,133.0,4.5,27.36,2.34,327.045,82.453,-14.424,,53.5506,,,,NaN,,,,0 / 0,4156,2014-12-14 13:27:05:110
-0.85533,-14.70818,1.01394,-0.23224,-9.35893,2.92033,-0.62309,-5.34924,-1.90638,2.79196,-1.39513,0.82748,153.0,3.66,25.86,-0.12,331.889,72.619,4.547,,53.5506,,,,NaN,,,,0 / 0,4206,2014-12-14 13:27:05:160
0.25558,-13.45122,-3.33632,-0.35434,-9.07178,3.70787,0.60992,-4.37944,-7.04419,3.0114,-0.99672,0.90844,153.0,3.66,24.6,-2.22,331.889,72.619,4.547,,49.9321,,,,NaN,,,,0 / 0,4256,2014-12-14 13:27:05:210
1.34255,-5.72035,-4.33231,-0.27877,-8.30159,5.21308,0.74026,3.31717,-10.00148,2.19967,-2.83217,0.61016,153.0,5.88,22.56,-7.14,319.87,67.678,5.459,,49.9321,,,,NaN,,,,0 / 0,4306,2014-12-14 13:27:05:260
2.16376,-4.01328,-4.44962,0.25603,-7.75123,6.00196,1.64856,3.48192,-10.70717,1.74906,-2.30487,0.6059,153.0,6.84,21.42,-7.86,309.203,54.418,-0.243,,49.9321,,,,NaN,,,,0 / 0,4356,2014-12-14 13:27:05:310
2.47261,-4.02765,-3.46561,0.46747,-7.65127,6.11629,1.63988,3.323,-8.39856,0.28219,-0.87954,0.5079,305.0,6.78,20.88,-8.88,309.203,54.418,-0.243,,49.9321,,,,NaN,,,,0 / 0,4405,2014-12-14 13:27:05:359
2.15418,-5.24869,0.71946,0.67232,-7.82889,5.86744,1.72532,3.25148,-5.77915,-0.26429,-0.33519,0.47594,305.0,6.78,20.64,-12.72,298.768,51.518,-5.925,,49.9321,,,,NaN,,,,0 / 0,4455,2014-12-14 13:27:05:409
-0.24481,-12.02428,14.63935,0.81672,-8.10437,5.46102,-1.06153,-3.91991,9.17832,-0.64991,-1.07449,-0.14298,305.0,6.42,20.88,-13.86,281.07,54.431,-6.872,,49.9321,,,,NaN,,,,0 / 0,4506,2014-12-14 13:27:05:460
0.47585,-13.50868,13.27465,0.94227,-8.04063,5.53465,-0.46642,-5.46806,7.74001,0.22467,-1.36743,0.2501,483.0,6.3,20.82,-13.86,281.07,54.431,-6.872,,49.9321,,,,NaN,,,,0 / 0,4556,2014-12-14 13:27:05:510
1.55084,-6.30214,3.36505,1.05165,-7.94172,5.65615,0.49919,1.63958,-2.2911,0.05849,-0.28086,0.25543,483.0,6.0,20.82,-12.12,287.541,54.616,-10.188,,50.7991,,,,NaN,,,,0 / 0,4605,2014-12-14 13:27:05:559
8.51318,-15.46475,2.65637,1.239,-7.96835,5.58044,7.27418,-7.49639,-2.92407,-0.25257,-1.01057,-0.25803,483.0,5.1,21.42,-11.16,301.177,54.345,-12.518,,50.7991,,,,NaN,,,,0 / 0,4655,2014-12-14 13:27:05:609
5.51564,-0.64703,-8.00022,1.16164,-8.28379,5.11865,4.35401,7.63676,-13.11888,-0.72874,1.09865,0.11801,597.0,5.22,23.94,-10.92,302.842,57.641,-12.786,,50.7991,,,,NaN,,,,0 / 0,4705,2014-12-14 13:27:05:659
-4.81534,-18.75198,1.69629,0.81657,-8.77639,4.29864,-5.63191,-9.97559,-2.60235,-2.47151,1.00171,-0.08758,597.0,5.28,24.96,-10.92,302.842,57.641,-12.786,,50.7991,,,,NaN,,,,0 / 0,4756,2014-12-14 13:27:05:710
-2.04525,-11.84711,-0.04669,0.65841,-9.03721,3.75037,-2.70365,-2.80989,-3.79705,-1.55965,-0.05077,0.09245,597.0,5.46,25.92,-10.98,291.647,63.501,-10.756,,50.7991,,,,NaN,,,,0 / 0,4805,2014-12-14 13:27:05:759
0.65541,-8.78492,-1.44011,0.58553,-9.49256,2.39136,-0.69387,-0.20934,-2.5817,-2.04328,0.68853,-0.14298,597.0,6.6,27.06,-10.92,291.647,63.501,-10.756,,50.7991,,,,NaN,,,,0 / 0,4855,2014-12-14 13:27:05:809
0.54049,-9.1656,2.02909,0.33743,-9.71806,1.27222,0.01706,0.20186,-0.80984,-2.21372,1.75379,0.1798,649.0,7.98,29.94,-7.68,267.006,75.46,-13.758,,50.7991,,,,NaN,,,,0 / 0,4906,2014-12-14 13:27:05:860
-1.10433,-9.0818,1.08816,0.32426,-9.79588,0.32696,-1.12647,0.98985,0.30376,-1.84407,1.7719,-0.30064,649.0,8.22,30.72,-5.82,272.754,82.287,-14.855,,50.221,,,,NaN,,,,0 / 0,4955,2014-12-14 13:27:05:909
-2.48817,-10.7338,2.10331,0.34776,-9.80022,0.07841,-2.83593,-0.93359,2.0249,-1.75246,1.44167,-0.25057,649.0,7.62,30.66,-2.58,330.452,87.917,-77.294,,50.221,,,,NaN,,,,0 / 0,5012,2014-12-14 13:27:05:966
-0.47465,-8.47847,-0.16161,0.26097,-9.79393,-0.42647,-0.73562,1.31546,0.26486,-1.02169,0.35297,-0.03539,317.0,7.38,30.24,1.92,330.452,87.917,-77.294,,50.221,,,,NaN,,,,0 / 0,5055,2014-12-14 13:27:06:009
1.99138,-10.16638,-0.40821,0.46448,-9.73004,-1.13201,1.5269,-0.43634,0.7238,-1.21237,1.04752,-0.2527,317.0,6.78,30.3,6.06,77.605,87.078,-148.536,,50.221,,,,NaN,,,,0 / 0,5106,2014-12-14 13:27:06:060
-0.2879,-10.68592,-0.43455,0.61127,-9.67512,-1.48022,-0.89917,-1.0108,1.04567,-1.10158,1.1615,-0.31875,317.0,6.78,30.6,7.44,89.505,82.832,-157.691,,50.221,,,,NaN,,,,0 / 0,5156,2014-12-14 13:27:06:110
-2.0644,-11.85908,0.27892,0.76734,-9.59521,-1.87451,-2.83174,-2.26387,2.15343,-0.74792,0.80464,-0.31662,213.0,6.3,30.12,11.16,99.004,78.08,-157.738,,50.221,,,,NaN,,,,0 / 0,5206,2014-12-14 13:27:06:160
-1.94948,-15.0721,7.43998,0.88436,-9.59716,-1.81256,-5.69162,-6.46255,10.65749,0.35676,0.99426,-0.22181,213.0,5.64,30.06,12.12,99.004,78.08,-157.738,,50.221,,,,NaN,,,,0 / 0,5255,2014-12-14 13:27:06:209
-4.32932,-14.83028,8.65863,0.77602,-9.69682,-1.24139,-2.579,-4.51621,7.59022,2.01751,0.54046,0.24691,213.0,4.74,30.54,13.44,105.947,78.132,-153.992,,51.139,,,,NaN,,,,0 / 0,5306,2014-12-14 13:27:06:260
1.91955,-13.40095,-3.75291,0.57985,-9.7881,0.17208,-0.11821,-4.13105,-6.7913,2.76639,0.81103,0.51323,213.0,3.9,31.2,15.66,102.49,85.046,-127.194,,51.139,,,,NaN,,,,0 / 0,5356,2014-12-14 13:27:06:310
0.13348,-14.0402,-5.56053,0.31214,-9.71866,1.27401,-0.17867,-4.32153,-6.83455,2.47771,-0.13279,0.75398,213.0,3.54,32.22,15.78,359.785,82.313,-13.767,,51.139,,,,NaN,,,,0 / 0,5406,2014-12-14 13:27:06:360
2.30981,-13.2549,-2.16077,-0.01362,-9.41475,2.74465,2.32342,-3.84015,-4.90542,2.88677,-1.41644,0.74758,213.0,5.22,36.0,10.38,345.576,78.811,-3.44,,51.139,,,,NaN,,,,0 / 0,5456,2014-12-14 13:27:06:410
3.41832,-11.22462,-2.92931,-0.08275,-9.21199,3.36206,3.50107,-2.01263,-6.29136,2.68863,-0.93813,0.76143,213.0,6.96,38.16,6.18,345.576,78.811,-3.44,,51.139,,,,NaN,,,,0 / 0,5505,2014-12-14 13:27:06:459
-0.04609,-7.31488,-3.07535,-0.13976,-8.5877,4.73304,0.09367,1.27282,-7.80839,2.18689,-2.04707,0.74226,385.0,11.7,37.44,-3.78,328.902,64.942,2.323,,51.139,,,,NaN,,,,0 / 0,5555,2014-12-14 13:27:06:509
1.58915,-5.76105,-2.78326,0.11522,-8.06188,5.58238,1.47393,2.30083,-8.36564,1.32189,-1.35572,0.63253,385.0,13.02,36.18,-8.1,313.735,57.739,0.228,,51.139,,,,NaN,,,,0 / 0,5606,2014-12-14 13:27:06:560
1.83575,-4.89435,-1.72981,0.27668,-7.93723,5.75267,1.55907,3.04288,-7.48248,0.61562,-0.72827,0.50896,385.0,13.62,33.96,-13.32,301.992,55.294,-1.182,,49.2731,,,,NaN,,,,0 / 0,5656,2014-12-14 13:27:06:610
1.37846,-6.50086,2.39779,0.32352,-7.96521,5.71167,1.05495,1.46435,-3.31387,-0.34418,-0.85611,0.24584,609.0,12.84,28.98,-22.74,265.449,54.313,-3.242,,49.2731,,,,NaN,,,,0 / 0,5705,2014-12-14 13:27:06:659
1.33058,-6.86717,2.67552,0.48019,-8.08223,5.5333,0.85039,1.21506,-2.85778,-0.51675,-0.82202,0.13186,609.0,12.12,26.64,-25.5,265.449,54.313,-3.242,,49.2731,,,,NaN,,,,0 / 0,5756,2014-12-14 13:27:06:710
1.42395,-10.37467,8.85256,0.67427,-8.23815,5.27712,0.74968,-2.13653,3.57544,0.01801,-1.03933,0.18512,609.0,11.34,25.32,-26.64,241.085,56.777,-6.449,,49.2731,,,,NaN,,,,0 / 0,5806,2014-12-14 13:27:06:760
1.77111,-8.14807,6.50146,0.99344,-8.12622,5.39893,0.77767,-0.02185,1.10253,0.24917,-1.00524,0.0999,871.0,9.72,23.34,-26.88,238.591,56.83,-8.616,,49.2731,,,,NaN,,,,0 / 0,5855,2014-12-14 13:27:06:809
1.50775,-6.85759,5.85502,1.08951,-8.05499,5.48646,0.41824,1.1974,0.36856,0.40683,-0.5344,0.13506,871.0,9.3,22.86,-26.88,238.591,56.83,-8.616,,49.2731,,,,NaN,,,,0 / 0,5906,2014-12-14 13:27:06:860
7.06948,-19.06563,12.52527,1.36305,-8.07534,5.39459,5.70643,-10.99028,7.13068,1.16104,-0.73573,-0.03965,871.0,6.6,21.3,-27.54,240.703,55.223,-11.232,,49.2731,,,,NaN,,,,0 / 0,5955,2014-12-14 13:27:06:909
-0.52014,-1.47543,-10.653,1.47199,-7.84954,5.69102,2.24801,6.37411,-16.34402,1.2633,-0.21801,0.06794,871.0,5.88,20.34,-27.54,234.39,54.244,-14.323,,45.1973,,,,NaN,,,,0 / 0,6005,2014-12-14 13:27:06:959
-4.0899,-6.28538,-8.03853,1.299,-7.85193,5.72977,-5.3889,1.56656,-13.76831,-1.47975,1.51411,-0.27507,945.0,5.4,18.78,-28.08,229.072,53.194,-12.774,,45.1973,,,,NaN,,,,0 / 0,6056,2014-12-14 13:27:07:010
-1.52331,-19.08957,4.90931,0.74549,-8.35232,5.08469,-2.72146,-7.6372,-1.82214,-0.67867,1.04965,0.02214,945.0,4.62,17.4,-28.56,229.072,53.194,-12.774,,45.1973,,,,NaN,,,,0 / 0,6105,2014-12-14 13:27:07:059
0.35135,-7.7195,0.58778,0.53421,-8.72597,4.44334,-0.18286,1.00646,-3.85556,-0.9599,0.37108,0.01468,945.0,4.14,16.14,-28.44,205.537,60.395,-7.345,,45.1973,,,,NaN,,,,0 / 0,6156,2014-12-14 13:27:07:110
0.36811,-9.71387,1.64841,0.48513,-8.86977,4.15484,-0.11702,-0.84411,-2.50643,-1.07389,0.7567,0.08712,973.0,6.84,17.4,-27.42,211.79,64.751,-6.66,,45.1973,,,,NaN,,,,0 / 0,6206,2014-12-14 13:27:07:160
-0.17298,-8.93336,3.2621,0.19812,-9.17368,3.46067,-0.3711,0.24032,-0.19857,-0.88107,0.88667,0.10097,973.0,7.62,17.7,-26.52,211.79,64.751,-6.66,,45.1973,,,,NaN,,,,0 / 0,6256,2014-12-14 13:27:07:210
-0.38128,-9.46009,4.07373,0.10909,-9.24626,3.26584,-0.65556,1.21072,-0.69327,-0.59984,0.533,-0.05989,973.0,8.76,18.72,-25.26,208.438,69.301,-3.277,,45.1973,,,,NaN,,,,0 / 0,6306,2014-12-14 13:27:07:260
0.04489,-10.36989,3.47997,0.05432,-9.33365,3.00831,-0.12989,-0.47585,0.01032,-0.3559,0.21768,-0.08332,973.0,9.72,19.32,-24.48,211.78,72.133,-1.034,,50.9437,,,,NaN,,,,0 / 0,6355,2014-12-14 13:27:07:309
1.16777,-9.09856,2.85509,-0.06105,-9.35175,2.95175,-0.55171,0.63701,-0.10609,-0.13645,0.6342,-0.02367,973.0,10.92,19.62,-23.4,211.78,72.133,-1.034,,50.9437,,,,NaN,,,,0 / 0,6405,2014-12-14 13:27:07:359
0.73203,-9.16321,1.57898,-0.07841,-9.35415,2.94367,-1.83486,-0.23329,-0.87568,-0.15776,0.04937,-0.13872,847.0,11.34,20.94,-22.14,215.337,72.479,1.185,,50.9437,,,,NaN,,,,0 / 0,6456,2014-12-14 13:27:07:410
-0.01018,-9.9916,3.07775,-0.16206,-9.34113,2.98123,0.39085,-0.19498,-0.90381,0.28219,-0.0284,-0.08865,847.0,11.52,21.12,-21.96,215.451,72.275,3.111,,50.9437,,,,NaN,,,,0 / 0,6505,2014-12-14 13:27:07:459
-1.13784,-9.20391,1.11929,-0.22146,-9.35669,2.92826,-0.94347,0.40866,-2.94322,-0.21528,-0.16049,0.1244,847.0,11.88,21.3,-21.6,215.522,72.068,3.19,,50.9437,,,,NaN,,,,0 / 0,6556,2014-12-14 13:27:07:510
0.69133,-10.16398,2.03627,-0.17298,-9.40008,2.78939,2.50209,-0.73457,-0.97055,-0.20463,-0.00496,-0.07906,819.0,11.88,21.42,-21.18,215.522,72.068,3.19,,50.9437,,,,NaN,,,,0 / 0,6605,2014-12-14 13:27:07:559
1.80702,-9.77373,2.393,-0.09936,-9.42014,2.72445,1.90638,-0.35359,-0.33145,-0.26961,-0.10723,-0.06734,819.0,12.24,21.12,-21.12,217.293,73.859,2.089,,50.9437,,,,NaN,,,,0 / 0,6656,2014-12-14 13:27:07:610
0.03771,-8.63409,4.47835,-0.06375,-9.41101,2.75677,0.10145,0.77692,1.72158,-0.03632,0.47334,-0.00449,819.0,11.82,21.3,-21.36,218.429,73.669,1.325,,50.9437,,,,NaN,,,,0 / 0,6705,2014-12-14 13:27:07:659
-2.08595,-9.59416,2.82875,-0.15293,-9.40787,2.76426,-1.93302,-0.1863,0.06449,-0.04697,0.41049,0.08286,819.0,12.0,21.54,-21.18,218.429,73.669,1.325,,45.3998,,,,NaN,,,,0 / 0,6756,2014-12-14 13:27:07:710
1.8166,-9.42896,1.5263,-0.21757,-9.38138,2.84865,2.03417,-0.04758,-1.32235,0.23426,-0.29045,0.00722,795.0,11.88,21.3,-21.12,213.628,73.602,3.167,,45.3998,,,,NaN,,,,0 / 0,6806,2014-12-14 13:27:07:760
1.22044,-8.67479,1.22463,-0.10235,-9.38527,2.84222,1.3228,0.71048,-1.61758,0.08086,-0.04437,-0.07587,795.0,12.6,21.9,-21.3,220.847,73.141,2.062,,45.3998,,,,NaN,,,,0 / 0,6856,2014-12-14 13:27:07:810
-0.97504,-9.24222,2.56299,-0.17373,-9.37779,2.86347,-0.80131,0.13557,-0.30047,0.09045,0.25283,0.08818,795.0,12.6,21.96,-21.18,221.003,73.185,1.907,,45.3998,,,,NaN,,,,0 / 0,6906,2014-12-14 13:27:07:860
-0.77871,-8.90224,1.78727,-0.21623,-9.38826,2.82576,-0.56249,0.48602,-1.03848,-0.08106,-0.0252,-0.03752,785.0,12.24,21.66,-20.94,221.003,73.185,1.907,,45.3998,,,,NaN,,,,0 / 0,6955,2014-12-14 13:27:07:909
0.21249,-9.26855,3.26449,-0.1435,-9.39141,2.82022,0.35599,0.12285,0.44427,0.02014,3.7E-4,-0.02473,785.0,11.94,21.3,-20.88,216.032,73.373,3.804,,45.3998,,,,NaN,,,,0 / 0,7006,2014-12-14 13:27:07:960
-0.8266,-8.58142,3.20703,-0.15817,-9.37973,2.85793,-0.66843,0.79832,0.3491,0.0521,0.03978,-0.00449,785.0,11.94,21.48,-21.18,216.747,73.265,2.913,,45.3998,,,,NaN,,,,0 / 0,7055,2014-12-14 13:27:08:009
-0.9894,-9.39066,2.77608,-0.19872,-9.3727,2.87813,-0.79069,-0.01796,-0.10205,0.04038,-0.05609,0.00509,785.0,12.24,21.48,-21.12,216.747,73.265,2.913,,45.1538,,,,NaN,,,,0 / 0,7106,2014-12-14 13:27:08:060
0.50697,-9.40263,2.67552,-0.14066,-9.37809,2.86421,0.64763,-0.02454,-0.18869,-0.01395,-0.07633,-0.02686,773.0,12.06,21.24,-21.96,216.268,72.878,3.965,,45.1538,,,,NaN,,,,0 / 0,7155,2014-12-14 13:27:08:109
0.10235,-9.03153,2.3523,-0.11268,-9.38138,2.85464,0.21503,0.34985,-0.50233,-0.01821,0.04191,-0.02793,773.0,12.12,21.12,-21.54,215.902,73.063,2.26,,45.1538,,,,NaN,,,,0 / 0,7205,2014-12-14 13:27:08:159
-0.23762,-9.21827,2.92212,-0.10175,-9.38916,2.8292,-0.13587,0.17089,0.09292,-0.0246,-0.01242,-0.0471,773.0,12.9,21.78,-21.54,215.902,73.063,2.26,,45.1538,,,,NaN,,,,0 / 0,7256,2014-12-14 13:27:08:210
-0.21368,-9.1656,2.91733,-0.09472,-9.38961,2.8277,-0.11896,0.22401,0.08963,-0.02567,-0.00603,-0.03539,781.0,12.6,22.08,-21.96,219.024,73.231,1.919,,45.1538,,,,NaN,,,,0 / 0,7306,2014-12-14 13:27:08:260
0.07362,-9.35953,2.74735,-0.06449,-9.39335,2.81663,0.13812,0.03382,-0.06928,-0.00756,-0.01561,-0.03112,781.0,11.46,21.42,-21.18,216.298,73.304,1.312,,45.1538,,,,NaN,,,,0 / 0,7356,2014-12-14 13:27:08:310
0.10714,-9.26377,2.5606,-0.04923,-9.39365,2.81558,0.15637,0.12989,-0.25498,0.00523,-0.01455,-0.03539,781.0,10.98,21.66,-20.94,216.298,73.304,1.312,,45.1538,,,,NaN,,,,0 / 0,7405,2014-12-14 13:27:08:359
-0.11073,-9.27574,2.46244,-0.02708,-9.40323,2.78401,-0.08365,0.12749,-0.32157,-0.05869,-0.01455,-0.04497,781.0,10.68,21.24,-20.88,217.096,73.507,0.557,,45.1538,,,,NaN,,,,0 / 0,7456,2014-12-14 13:27:08:410
0.0808,-9.14405,2.49117,0.01077,-9.41849,2.73193,0.07003,0.27444,-0.24077,-0.08958,-0.18925,-0.03752,781.0,11.46,21.66,-21.12,218.37,73.825,-0.226,,41.3962,,,,NaN,,,,0 / 0,7506,2014-12-14 13:27:08:460
0.03053,-9.27095,2.63961,0.08051,-9.43405,2.67657,0.01227,0.1655,-0.01781,-0.06615,-0.1509,-0.05136,781.0,11.16,21.42,-21.72,218.37,73.825,-0.226,,41.3962,,,,NaN,,,,0 / 0,7556,2014-12-14 13:27:08:510
0.15263,-9.39784,2.96522,0.09652,-9.43435,2.67492,0.01062,-0.14066,0.51775,0.05849,0.13672,-0.01302,805.0,11.16,22.26,-22.14,218.599,74.161,-2.066,,41.3962,,,,NaN,,,,0 / 0,7605,2014-12-14 13:27:08:559
-0.58,-9.17997,2.58933,0.03861,-9.41804,2.73328,0.67906,0.85578,-0.867,0.13732,0.35616,0.03066,805.0,11.34,22.08,-21.6,217.303,73.815,-0.809,,41.3962,,,,NaN,,,,0 / 0,7655,2014-12-14 13:27:08:609
0.2077,-9.46727,2.60848,0.04609,-9.42253,2.71727,0.01317,0.1013,-0.1447,-0.01927,-0.00176,-0.00875,805.0,10.68,21.66,-21.36,217.303,73.815,-0.809,,41.3962,,,,NaN,,,,0 / 0,7706,2014-12-14 13:27:08:660