ACCELEROMETER X (m/s²),ACCELEROMETER Y (m/s²),ACCELEROMETER Z (m/s²),GRAVITY X (m/s²),GRAVITY Y (m/s²),GRAVITY Z (m/s²),LINEAR ACCELERATION X (m/s²),LINEAR ACCELERATION Y (m/s²),LINEAR ACCELERATION Z (m/s²),GYROSCOPE X (rad/s),GYROSCOPE Y (rad/s),GYROSCOPE Z (rad/s),LIGHT (lux),MAGNETIC FIELD X (μT),MAGNETIC FIELD Y (μT),MAGNETIC FIELD Z (μT),ORIENTATION X (°),ORIENTATION Y (°),ORIENTATION Z (°),PROXIMITY (i),SOUND LEVEL (dB),LOCATION Latitude : ,LOCATION Longitude : ,LOCATION Altitude ( m),LOCATION Altitude-google ( m),LOCATION Speed ( Kmh),LOCATION Accuracy ( m),LOCATION ORIENTATION (°),Satellites in range,Time since start in ms ,YYYY-MO-DD HH-MI-SS_SSS
0.32501,-8.83281,3.46561,0.29164,-9.2705,3.18504,0.06404,0.39594,0.40357,-0.10105,-0.01175,0.0406,121.0,23.64,27.96,-18.3,257.41,70.936,-5.28,1.97,52.4345,,,,NaN,,,,0 / 0,4,2014-12-14 13:28:45:676
0.12151,-8.73704,3.68109,0.28012,-9.27753,3.16558,-0.15862,0.54049,0.5155,-0.12875,-0.06821,0.04699,121.0,23.58,28.14,-17.76,256.996,71.091,-5.057,1.97,52.4345,,,,NaN,,,,0 / 0,54,2014-12-14 13:28:45:726
-0.24002,-8.33721,3.72897,0.21742,-9.28412,3.15092,-0.45744,0.94691,0.57805,-0.23208,-0.23759,0.11517,121.0,23.04,27.84,-17.04,256.996,71.091,-5.057,1.97,52.4345,,,,NaN,,,,0 / 0,104,2014-12-14 13:28:45:776
0.24361,-8.88548,3.41054,0.19228,-9.33634,2.9944,0.05133,0.45086,0.41614,-0.43128,-0.41549,0.11943,121.0,22.62,27.84,-16.62,256.588,71.447,-3.77,1.97,52.4345,,,,NaN,,,,0 / 0,154,2014-12-14 13:28:45:826
1.79266,-8.93815,3.13521,0.22131,-9.36926,2.88756,1.72383,0.46477,1.02711,-0.5964,-0.06821,0.06829,121.0,23.04,27.48,-17.28,254.893,72.824,-4.383,1.97,20.3347,,,,NaN,,,,0 / 0,204,2014-12-14 13:28:45:876
-0.22805,-8.61494,3.03465,0.23942,-9.48194,2.49117,-0.46747,0.867,0.54348,-0.63049,0.18213,0.1141,121.0,23.04,27.24,-17.46,254.893,72.824,-4.383,1.97,20.3347,,,,NaN,,,,0 / 0,253,2014-12-14 13:28:45:925
-1.86329,-9.09856,1.30604,0.12465,-9.53311,2.29664,-1.98794,0.43455,-0.9906,-0.63901,0.13313,0.15991,143.0,23.16,28.5,-17.1,253.876,75.215,-5.49,1.97,20.3347,,,,NaN,,,,0 / 0,303,2014-12-14 13:28:45:975
-0.27833,-10.54945,0.19992,0.0012,-9.63187,1.84383,-0.27952,-0.91758,-1.64392,-0.92343,-0.37714,0.10025,143.0,22.8,28.8,-17.04,243.987,79.163,-0.037,1.97,20.3347,,,,NaN,,,,0 / 0,354,2014-12-14 13:28:46:026
1.57957,-9.14166,0.35793,0.1025,-9.73063,1.21506,1.47707,0.58897,-0.85712,-1.18336,0.02447,-0.01373,143.0,22.92,28.32,-16.2,243.987,79.163,-0.037,1.97,20.3347,,,,NaN,,,,0 / 0,404,2014-12-14 13:28:46:076
0.36093,-8.91182,2.92212,0.18765,-9.79618,0.41405,0.17328,0.88436,2.50808,-1.44435,0.64765,-0.07232,161.0,22.92,28.62,-14.28,252.652,85.443,-11.265,1.97,20.3347,,,,NaN,,,,0 / 0,454,2014-12-14 13:28:46:126
-0.82181,-8.68437,2.58215,0.19273,-9.80381,0.14305,-1.01454,1.11944,2.43909,-1.49868,0.71369,-0.0606,161.0,22.92,28.62,-14.28,252.652,85.443,-11.265,1.97,20.3347,,,,NaN,,,,0 / 0,504,2014-12-14 13:28:46:176
-1.10911,-9.33559,0.8655,0.07751,-9.78765,-0.60633,-0.27623,0.84381,0.99015,-1.34954,0.84579,0.06297,161.0,21.84,30.24,-11.76,28.912,88.269,-152.334,1.97,48.8281,,,,NaN,,,,0 / 0,554,2014-12-14 13:28:46:226
2.02011,-8.92379,-3.20464,0.1878,-9.70624,-1.38714,1.83231,0.78246,-1.8175,-1.28669,0.93527,0.00651,95.0,21.6,30.72,-9.9,54.006,84.286,-174.265,1.97,48.8281,,,,NaN,,,,0 / 0,603,2014-12-14 13:28:46:275
-0.2879,-11.3539,-3.53025,0.36272,-9.57366,-2.09448,-0.65062,-1.78024,-1.43577,-1.88963,1.4221,-0.20441,95.0,21.36,30.36,-6.3,51.273,77.482,-170.175,1.97,48.8281,,,,NaN,,,,0 / 0,653,2014-12-14 13:28:46:325
-1.91835,-13.2525,0.53032,0.56892,-9.38377,-2.79149,-2.48728,-3.86873,3.32181,-1.64036,0.80424,-0.34183,95.0,21.48,30.48,-4.14,51.273,77.482,-170.175,1.97,48.8281,,,,NaN,,,,0 / 0,704,2014-12-14 13:28:46:376
1.29227,-14.13596,1.488,0.71093,-9.29968,-3.03016,0.58134,-4.83629,4.51816,-1.28669,0.89479,-0.24702,95.0,21.06,30.84,-1.56,50.917,71.495,-166.796,1.97,48.8281,,,,NaN,,,,0 / 0,754,2014-12-14 13:28:46:426
-4.92547,-12.90774,6.87256,0.84904,-9.37899,-2.73582,-5.77451,-3.52875,9.60838,0.21427,1.49453,0.09706,53.0,20.4,30.54,2.34,56.118,71.178,-164.324,1.97,48.8281,,,,NaN,,,,0 / 0,804,2014-12-14 13:28:46:476
-2.1051,-14.29159,-0.10654,0.52762,-9.72031,-1.18737,-1.51987,-5.48751,8.62212,1.40949,0.67961,0.38042,53.0,19.5,30.24,5.16,56.118,71.178,-164.324,1.97,48.8281,,,,NaN,,,,0 / 0,854,2014-12-14 13:28:46:526
1.57479,-13.39855,-1.90459,0.34985,-9.79184,-0.41285,-2.05722,-4.17998,0.60962,2.41404,0.08519,0.54873,53.0,18.48,30.42,6.36,72.969,82.386,-156.042,1.97,48.8281,,,,NaN,,,,0 / 0,904,2014-12-14 13:28:46:576
2.08475,-15.72572,-0.662,0.27982,-9.75652,0.9502,1.80493,-5.96919,-1.6122,3.30034,-1.84614,0.07895,53.0,16.8,29.16,7.62,326.671,86.777,-28.777,1.97,55.1583,,,,NaN,,,,0 / 0,953,2014-12-14 13:28:46:625
1.84533,-10.20469,-3.8008,0.2463,-9.28621,3.14284,1.59903,-0.91848,-6.94363,3.78503,0.60184,0.2952,53.0,16.92,28.02,2.7,308.069,71.249,-4.481,1.97,55.1583,,,,NaN,,,,0 / 0,1003,2014-12-14 13:28:46:675
0.36571,-7.52079,-5.14155,0.07676,-8.92768,4.05727,0.28895,1.40689,-9.19882,3.35041,0.01062,0.61264,65.0,17.4,27.24,-0.18,308.069,71.249,-4.481,1.97,55.1583,,,,NaN,,,,0 / 0,1054,2014-12-14 13:28:46:726
-1.59274,-4.0037,-5.63954,-0.02664,-8.21017,5.36301,-1.56611,4.20646,-11.00255,2.20099,-1.07275,0.38574,65.0,17.7,26.58,-3.6,298.045,60.771,0.442,1.97,55.1583,,,,NaN,,,,0 / 0,1104,2014-12-14 13:28:46:776
0.90202,-1.21925,-3.37942,0.16131,-7.91538,5.78708,0.74071,6.69613,-9.1665,1.20496,-1.16224,0.48375,65.0,18.48,25.26,-9.3,293.419,53.818,-1.597,1.97,55.1583,,,,NaN,,,,0 / 0,1153,2014-12-14 13:28:46:825
0.77273,-1.46585,-0.32681,0.29718,-7.89578,5.80848,0.36063,5.32141,-2.34766,-0.56551,-1.02588,0.28454,77.0,18.9,24.0,-11.34,293.419,53.818,-1.597,1.97,55.1583,,,,NaN,,,,0 / 0,1204,2014-12-14 13:28:46:876
3.12383,-15.54854,15.63773,0.85563,-7.99229,5.61784,2.26821,-7.55625,10.01988,-0.66458,-2.09434,-0.00734,77.0,18.3,22.62,-14.4,282.071,53.81,-3.575,1.97,55.1583,,,,NaN,,,,0 / 0,1254,2014-12-14 13:28:46:926
5.53958,-11.6867,9.01297,1.2372,-7.90969,5.66363,4.30238,-3.777,3.34934,0.667,-0.76489,0.11304,77.0,17.52,21.9,-16.08,275.839,54.587,-8.66,1.97,49.7863,,,,NaN,,,,0 / 0,1304,2014-12-14 13:28:46:976
-6.7714,-17.7536,-5.35942,1.69899,-7.47096,6.12123,-8.47039,-10.28265,-11.48065,0.46141,1.05032,-0.04888,121.0,17.1,21.12,-16.8,275.839,54.587,-8.66,1.97,49.7863,,,,NaN,,,,0 / 0,1354,2014-12-14 13:28:47:026
3.12862,1.14144,-13.44703,1.52122,-7.42128,6.22732,1.60741,8.56271,-19.67435,-1.12157,0.8884,-0.07552,121.0,16.02,20.76,-17.4,282.386,49.625,-15.512,1.97,49.7863,,,,NaN,,,,0 / 0,1403,2014-12-14 13:28:47:075
-0.38128,-19.51813,3.30759,1.01993,-8.28304,5.14978,-1.40121,-11.23509,-1.84219,-2.05901,0.73393,0.12582,121.0,14.4,20.7,-19.08,262.794,57.633,-11.203,1.97,49.7863,,,,NaN,,,,0 / 0,1454,2014-12-14 13:28:47:126
-2.48099,-7.97568,-3.6763,1.06093,-8.67524,4.44813,-3.54192,0.69956,-8.12442,-2.02598,-0.90018,0.14499,121.0,14.52,20.52,-19.14,262.794,57.633,-11.203,1.97,49.7863,,,,NaN,,,,0 / 0,1504,2014-12-14 13:28:47:176
2.62105,-10.19272,1.93092,0.86565,-9.41699,2.59681,1.7554,-0.77572,-0.66589,-2.90909,1.53927,0.26324,157.0,15.42,22.26,-15.78,257.046,68.559,-16.333,1.97,49.7863,,,,NaN,,,,0 / 0,1554,2014-12-14 13:28:47:226
3.27706,-9.77134,2.642,0.71976,-9.61033,1.81525,2.55731,-0.16101,0.82675,-2.42226,1.88442,0.0406,157.0,15.18,22.86,-13.44,264.377,78.514,-21.629,1.97,49.7863,,,,NaN,,,,0 / 0,1604,2014-12-14 13:28:47:276
0.26516,-7.30052,0.18555,0.61277,-9.76894,0.60289,-0.34761,2.46842,-0.41734,-1.98337,1.69374,-0.25874,157.0,15.72,24.18,-9.48,292.144,84.971,-45.465,1.97,55.9094,,,,NaN,,,,0 / 0,1654,2014-12-14 13:28:47:326
-0.66858,-9.29728,-0.26456,0.71751,-9.77059,-0.43964,-1.38609,0.4733,0.17508,-1.72238,1.10784,-0.32585,157.0,16.14,25.14,-6.48,292.144,84.971,-45.465,1.97,55.9094,,,,NaN,,,,0 / 0,1703,2014-12-14 13:28:47:375
-0.54408,-10.1161,0.05387,0.78979,-9.73512,-0.88122,-1.33387,-0.38098,0.93509,-1.78204,0.6828,-0.31201,157.0,16.32,25.62,-3.42,18.453,85.078,-121.497,1.97,55.9094,,,,NaN,,,,0 / 0,1754,2014-12-14 13:28:47:426
1.11031,-12.55819,4.49272,1.04447,-9.59027,-1.76318,-0.23822,-2.9296,6.22478,-1.67551,1.01197,-0.19483,67.0,14.82,24.6,3.3,54.816,77.938,-149.358,1.97,55.9094,,,,NaN,,,,0 / 0,1804,2014-12-14 13:28:47:476
-4.03004,-13.28124,7.93319,1.12378,-9.57711,-1.78563,-5.29508,-3.345,6.23046,-0.29493,1.07588,-0.0116,67.0,14.04,24.6,5.52,54.816,77.938,-149.358,1.97,55.9094,,,,NaN,,,,0 / 0,1854,2014-12-14 13:28:47:526
-2.30621,-16.18301,14.02404,1.06347,-9.68918,-1.07724,-7.04718,-6.35975,10.43498,2.06037,1.16004,-0.02864,67.0,12.78,24.72,7.8,62.832,79.586,-144.756,1.97,55.9094,,,,NaN,,,,0 / 0,1904,2014-12-14 13:28:47:576
-0.85054,-16.08485,-5.55096,0.68295,-9.76385,0.60962,-6.27595,-6.15085,-1.1769,3.21192,0.79146,0.58388,67.0,11.7,24.36,10.14,51.393,84.058,-108.601,1.97,55.9094,,,,NaN,,,,0 / 0,1953,2014-12-14 13:28:47:625
3.81336,-18.35694,-3.61644,0.40941,-9.69786,1.39866,3.53668,-8.71115,-5.36361,2.62283,-0.59125,1.1048,67.0,11.28,24.18,11.76,51.393,84.058,-108.601,1.97,52.385,,,,NaN,,,,0 / 0,2004,2014-12-14 13:28:47:676
-0.60633,-14.49031,-2.92691,-0.11911,-9.31344,3.06892,1.16134,-6.977,-4.30627,3.13842,-0.85438,1.05579,67.0,11.04,27.24,10.38,330.384,76.801,-3.099,1.97,52.385,,,,NaN,,,,0 / 0,2055,2014-12-14 13:28:47:727
-0.35973,-12.45284,-3.81755,-0.61336,-8.65609,4.56799,0.9707,-2.2314,-7.74554,3.11605,-2.47145,1.45633,83.0,10.86,28.92,7.62,326.194,66.376,6.742,1.97,52.385,,,,NaN,,,,0 / 0,2103,2014-12-14 13:28:47:775
0.30586,-4.32453,-6.06092,-0.39175,-8.12532,5.47674,1.50251,1.92943,-9.84556,2.98289,-3.58039,0.87363,83.0,13.08,31.2,3.72,326.194,66.376,6.742,1.97,52.385,,,,NaN,,,,0 / 0,2153,2014-12-14 13:28:47:825
2.1901,-1.64541,-6.96114,0.48902,-7.31399,6.51432,1.50476,5.64224,-13.67179,2.31177,-3.21287,0.70958,83.0,19.14,32.52,-4.56,316.76,55.951,4.091,1.97,52.385,,,,NaN,,,,0 / 0,2204,2014-12-14 13:28:47:876
1.95786,-2.29664,-5.43843,0.81971,-7.13263,6.68012,1.13814,4.83599,-12.11855,-0.0904,-1.28794,0.70852,123.0,21.06,31.38,-11.1,304.409,46.663,-6.996,1.97,52.385,,,,NaN,,,,0 / 0,2254,2014-12-14 13:28:47:926
1.2372,-6.42185,4.3347,0.97968,-7.50358,6.23764,0.25753,1.08173,-1.90294,-0.69227,-0.5561,0.69254,123.0,20.64,29.58,-17.52,304.409,46.663,-6.996,1.97,52.385,,,,NaN,,,,0 / 0,2303,2014-12-14 13:28:47:975
-0.17538,-14.73212,15.41267,0.87433,-7.69945,6.01034,2.30936,-5.80684,13.81424,-0.29067,-2.2765,0.22915,123.0,19.14,27.6,-24.6,280.792,49.92,-8.926,1.97,51.9066,,,,NaN,,,,0 / 0,2353,2014-12-14 13:28:48:025
2.07757,-10.84633,9.52773,1.38535,-7.7026,5.90934,1.35781,-0.65377,1.64556,0.41028,-0.69352,0.21317,123.0,18.96,27.6,-26.64,268.27,52.381,-11.907,1.97,51.9066,,,,NaN,,,,0 / 0,2404,2014-12-14 13:28:48:076
5.3696,-9.33798,-19.40141,1.70632,-7.68479,5.84829,4.53716,2.16361,-23.53964,-2.37539,-0.63493,0.12475,223.0,19.26,28.26,-26.88,268.27,52.381,-11.907,1.97,51.9066,,,,NaN,,,,0 / 0,2454,2014-12-14 13:28:48:126
5.76464,0.92596,-8.22767,1.58347,-7.64094,5.93972,4.18117,8.5669,-14.16739,0.88965,-0.55397,-0.04356,223.0,18.48,28.74,-28.44,273.812,51.594,-16.265,1.97,51.9066,,,,NaN,,,,0 / 0,2504,2014-12-14 13:28:48:176
-5.47853,0.59316,-19.40141,1.52271,-7.69945,5.87956,-7.00124,8.29262,-25.28097,-1.73091,0.89692,0.0406,223.0,17.28,27.66,-30.18,264.962,51.733,-14.52,1.97,51.9066,,,,NaN,,,,0 / 0,2554,2014-12-14 13:28:48:226
-2.56958,-19.51813,5.60124,1.02861,-8.35202,5.03561,-3.59819,-11.16611,0.56563,-3.14558,2.4032,0.45712,275.0,16.62,27.42,-30.96,264.962,51.733,-14.52,1.97,51.9066,,,,NaN,,,,0 / 0,2604,2014-12-14 13:28:48:276
0.33938,-8.84238,-0.4537,0.87433,-9.21588,3.23636,-0.53495,0.3735,-3.69006,-2.73865,1.09612,0.13328,275.0,17.04,26.82,-31.14,247.284,58.393,-11.545,1.97,51.9066,,,,NaN,,,,0 / 0,2654,2014-12-14 13:28:48:326
1.0313,-8.95491,0.72664,0.61606,-9.50348,2.33988,0.41524,0.54857,-1.61324,-2.85689,1.99521,0.45072,275.0,18.54,28.98,-28.92,239.234,75.716,-14.75,1.97,54.6037,,,,NaN,,,,0 / 0,2704,2014-12-14 13:28:48:376
-0.31663,-8.85196,1.816,0.32471,-9.70714,1.35602,-0.64135,0.85518,0.45999,-2.36793,2.48203,0.15352,279.0,19.68,31.08,-26.88,239.234,75.716,-14.75,1.97,54.6037,,,,NaN,,,,0 / 0,2754,2014-12-14 13:28:48:426
-1.38924,-9.92456,1.05704,0.18271,-9.805,0.00718,-1.57194,-0.11956,1.04986,-1.72345,1.35285,-0.09043,279.0,20.88,34.08,-20.28,241.138,81.826,-13.467,1.97,54.6037,,,,NaN,,,,0 / 0,2804,2014-12-14 13:28:48:476
-1.56162,-9.92217,-1.25336,0.16535,-9.79498,-0.45161,-1.72697,-0.12719,-0.80176,-1.51466,0.61569,-0.16713,279.0,22.26,35.28,-16.2,31.978,87.189,-159.89,1.97,54.6037,,,,NaN,,,,0 / 0,2854,2014-12-14 13:28:48:526
-1.54007,-12.08413,3.63081,0.41629,-9.68245,-1.49937,-1.95636,-2.40168,5.13018,-1.25473,1.35072,-0.4963,279.0,25.38,36.78,-7.14,49.263,80.87,-164.483,1.97,54.6037,,,,NaN,,,,0 / 0,2903,2014-12-14 13:28:48:575
-3.89118,-11.92612,2.22302,0.44098,-9.66045,-1.62881,-5.93867,-3.01265,2.69782,-0.71358,1.08547,-0.37059,103.0,25.26,36.48,-4.56,49.263,80.87,-164.483,1.97,54.6037,,,,NaN,,,,0 / 0,2953,2014-12-14 13:28:48:625
1.03848,-15.02421,13.07114,0.38397,-9.70924,-1.32489,1.93062,-5.31498,14.39604,0.39323,1.26231,0.08534,103.0,24.78,35.82,-0.18,56.449,80.092,-164.851,1.97,54.6037,,,,NaN,,,,0 / 0,3004,2014-12-14 13:28:48:676
-2.44987,-14.70818,3.7577,0.42482,-9.79109,-0.35674,-2.87469,-4.91709,4.11444,3.07237,1.74061,0.12156,103.0,24.36,35.52,1.68,41.609,86.757,-130.021,1.97,54.6037,,,,NaN,,,,0 / 0,3054,2014-12-14 13:28:48:726
-2.83533,-15.64671,-7.2676,0.25932,-9.77268,0.77303,-3.09466,-5.87402,-8.04063,3.40687,0.69452,0.59453,97.0,24.12,35.52,2.16,41.609,86.757,-130.021,1.97,53.9878,,,,NaN,,,,0 / 0,3104,2014-12-14 13:28:48:776
1.08158,-17.65544,1.04267,-0.31095,-9.48672,2.46543,1.39253,-8.16872,-1.42275,2.91791,-1.45092,0.85446,97.0,23.16,32.64,0.84,288.579,80.198,1.977,1.97,53.9878,,,,NaN,,,,0 / 0,3154,2014-12-14 13:28:48:826
0.81104,-13.24772,-2.891,-0.52209,-9.09243,3.63664,1.33312,-4.15529,-6.52764,3.28116,-0.76276,1.16232,97.0,23.4,30.72,-1.14,280.268,75.322,7.188,1.97,53.9878,,,,NaN,,,,0 / 0,3204,2014-12-14 13:28:48:876
2.147,-5.99568,-3.90614,-0.56398,-8.30159,5.19003,2.02684,2.6411,-10.00657,2.76451,-2.90714,0.46138,127.0,22.26,26.82,-3.84,280.268,75.322,7.188,1.97,53.9878,,,,NaN,,,,0 / 0,3253,2014-12-14 13:28:48:925
0.50218,-3.14179,-5.9867,-0.20635,-7.87034,5.84679,0.70853,4.72855,-11.83349,2.2649,-2.66426,0.43261,127.0,21.18,22.02,-8.64,287.399,57.836,6.202,1.97,53.9878,,,,NaN,,,,0 / 0,3304,2014-12-14 13:28:48:976
1.20368,-1.33896,-6.99945,0.32486,-7.3686,6.46285,0.87882,6.02965,-13.4623,1.78766,-2.32018,0.35165,127.0,20.46,20.64,-11.58,285.24,48.711,-2.878,1.97,53.9878,,,,NaN,,,,0 / 0,3354,2014-12-14 13:28:49:026
2.00335,-3.11545,-4.88297,0.77722,-7.25683,6.55024,1.22613,4.14137,-11.43321,0.02572,-1.35185,0.44007,127.0,19.68,19.8,-12.3,285.24,48.711,-2.878,1.97,53.9878,,,,NaN,,,,0 / 0,3404,2014-12-14 13:28:49:076
4.44065,-15.97471,19.82459,0.8655,-7.90101,5.74414,3.57514,-8.0737,14.08045,-1.20893,-0.3537,0.08214,259.0,13.98,16.44,-18.96,270.653,50.868,-8.319,1.97,51.7781,,,,NaN,,,,0 / 0,3454,2014-12-14 13:28:49:126
1.24439,-13.07533,15.4414,1.14757,-7.8847,5.71705,0.09682,-5.19063,9.72435,0.25581,-1.80672,0.21424,259.0,13.08,15.96,-19.92,252.82,53.676,-8.569,1.97,51.7781,,,,NaN,,,,0 / 0,3504,2014-12-14 13:28:49:176
4.376,-2.67492,1.81361,1.28868,-7.56732,6.10282,3.08732,4.8924,-4.28921,0.85556,-0.34411,0.18121,259.0,11.46,16.92,-18.84,263.095,50.503,-11.923,1.97,51.7781,,,,NaN,,,,0 / 0,3554,2014-12-14 13:28:49:226
-4.55198,-19.51813,-4.36822,1.5278,-7.70993,5.86445,-6.07978,-11.8082,-10.23267,-2.26886,-0.79579,-0.04995,379.0,10.32,16.74,-18.54,263.095,50.503,-11.923,1.97,51.7781,,,,NaN,,,,0 / 0,3603,2014-12-14 13:28:49:275
-3.3046,0.84695,-18.03193,1.36215,-7.77412,5.82045,-4.66675,8.62107,-23.85238,-1.50826,0.34511,0.15458,379.0,8.4,17.58,-19.5,259.664,51.814,-13.308,1.97,51.7781,,,,NaN,,,,0 / 0,3654,2014-12-14 13:28:49:326
2.56838,-19.51813,6.15908,0.89992,-8.51184,4.78646,1.66846,-11.00629,1.37263,-2.09416,1.15578,-0.1863,379.0,6.9,18.42,-19.26,239.398,60.223,-10.648,1.97,51.7781,,,,NaN,,,,0 / 0,3704,2014-12-14 13:28:49:376
-1.50655,-7.78894,-3.53504,0.86326,-9.05128,3.6742,-2.36981,1.26234,-7.20924,-2.50429,0.60291,0.14606,463.0,6.42,18.36,-18.72,239.398,60.223,-10.648,1.97,51.7781,,,,NaN,,,,0 / 0,3753,2014-12-14 13:28:49:425
-0.26635,-8.20074,1.02831,0.65257,-9.37988,2.7864,-0.91892,1.17914,-1.75809,-2.78765,1.48282,0.26643,463.0,6.18,18.78,-17.46,227.266,73.033,-13.181,1.97,52.9222,,,,NaN,,,,0 / 0,3804,2014-12-14 13:28:49:476
1.14383,-8.55029,2.5606,0.40163,-9.61332,1.89591,0.7422,1.06303,0.66469,-2.68112,2.19974,0.10558,463.0,5.52,19.56,-16.32,227.266,83.978,-13.02,1.97,52.9222,,,,NaN,,,,0 / 0,3853,2014-12-14 13:28:49:525
0.01377,-9.82161,3.468,0.16879,-9.79528,0.44233,-0.15502,-0.02634,3.02567,-1.4273,1.38801,-0.10002,249.0,7.26,21.9,-11.82,220.02,83.978,-13.02,1.97,52.9222,,,,NaN,,,,0 / 0,3904,2014-12-14 13:28:49:576
-0.82181,-8.74662,-3.11127,0.20815,-9.80321,-0.15966,-1.02996,1.05659,-2.9516,-1.32504,0.63913,-0.23531,249.0,7.86,22.38,-9.84,346.75,88.467,-127.491,1.97,52.9222,,,,NaN,,,,0 / 0,3953,2014-12-14 13:28:49:625
1.09834,-12.12484,1.23182,0.30751,-9.73842,-1.1136,2.09567,-2.3122,4.80187,-1.79056,0.87668,-0.09469,249.0,8.4,23.52,-6.3,346.75,88.467,-127.491,1.97,52.9222,,,,NaN,,,,0 / 0,4004,2014-12-14 13:28:49:676
-4.55916,-13.10646,1.59334,0.45071,-9.68155,-1.49593,-5.00987,-3.42491,3.08927,-0.77004,1.24952,-0.35249,249.0,6.66,23.04,-2.58,31.355,82.113,-162.641,1.97,52.9222,,,,NaN,,,,0 / 0,4054,2014-12-14 13:28:49:726
-0.46986,-12.26609,5.3666,0.41854,-9.68799,-1.46316,-0.8884,-2.57811,6.82976,-0.43661,1.11423,0.04486,139.0,6.66,23.04,-2.58,31.355,82.113,-162.641,1.97,52.9222,,,,NaN,,,,0 / 0,4103,2014-12-14 13:28:49:775
0.00658,-14.73452,3.98036,0.3494,-9.79992,-0.10086,0.48587,-5.08439,2.2516,3.32377,1.12808,0.40811,139.0,7.08,23.82,-1.56,38.492,82.629,-159.52,1.97,53.0481,,,,NaN,,,,0 / 0,4154,2014-12-14 13:28:49:826
0.89723,-16.41524,-7.99544,-0.02978,-9.65926,1.69405,0.95184,-6.50998,-9.34966,3.41006,0.9587,0.58708,139.0,6.24,22.38,0.42,300.486,84.657,-13.426,1.97,53.0481,,,,NaN,,,,0 / 0,4204,2014-12-14 13:28:49:876
0.22685,-18.4551,-0.4944,-0.31633,-9.52593,2.30816,-0.14904,-8.30698,-1.15311,2.38315,0.57414,0.99614,139.0,5.64,22.08,0.3,300.486,84.657,-13.426,1.97,53.0481,,,,NaN,,,,0 / 0,4254,2014-12-14 13:28:49:926
-1.31502,-12.0578,-3.89417,-0.70584,-8.94489,3.95762,0.91264,-5.15936,-5.54781,3.21831,-0.95451,1.14847,139.0,6.3,19.08,-1.98,299.116,76.257,7.804,1.97,53.0481,,,,NaN,,,,0 / 0,4304,2014-12-14 13:28:49:976
1.33058,-4.91589,-4.68904,-0.79383,-8.54655,4.74306,2.42293,2.74151,-9.44228,2.99993,-2.49275,1.2795,169.0,6.42,18.0,-2.94,314.802,60.634,9.501,1.97,53.0481,,,,NaN,,,,0 / 0,4354,2014-12-14 13:28:50:026
0.63147,-2.12665,-5.91009,-0.04624,-7.57271,6.23076,0.95978,5.71017,-11.79638,2.0902,-2.75374,0.48162,169.0,7.02,17.4,-2.94,314.802,60.634,9.501,1.97,53.0481,,,,NaN,,,,0 / 0,4404,2014-12-14 13:28:50:076
2.17812,-2.53606,-6.27161,0.38951,-7.27224,6.56759,1.63704,4.41491,-12.4265,0.82466,-2.02084,0.2675,169.0,7.8,18.66,-3.18,320.594,50.552,0.425,1.97,53.0481,,,,NaN,,,,0 / 0,4454,2014-12-14 13:28:50:126
1.28748,-4.6262,-0.53989,0.89184,-7.28855,6.50011,1.11151,4.05578,-10.03754,-0.29706,-1.03334,0.51571,367.0,8.34,21.12,-7.86,314.854,48.007,-7.812,1.97,52.1245,,,,NaN,,,,0 / 0,4503,2014-12-14 13:28:50:175
2.73358,-15.25645,18.90342,0.74669,-7.83817,5.84604,2.09148,-7.54263,14.06339,-0.91491,-0.21309,0.00225,367.0,7.98,22.08,-10.14,314.854,48.007,-7.812,1.97,52.1245,,,,NaN,,,,0 / 0,4554,2014-12-14 13:28:50:226
0.94272,-13.7074,14.1653,1.13395,-7.85582,5.7594,0.74011,-5.18838,5.76988,0.28138,-1.97716,0.31544,367.0,7.62,23.04,-11.1,301.464,53.715,-9.744,1.97,52.1245,,,,NaN,,,,0 / 0,4603,2014-12-14 13:28:50:275
3.66732,-6.72831,4.69383,1.20144,-7.73941,5.90156,2.46588,1.0111,-1.20773,0.61374,-0.20669,0.06829,591.0,7.92,24.36,-8.52,313.172,52.111,-11.507,1.97,52.1245,,,,NaN,,,,0 / 0,4654,2014-12-14 13:28:50:326
-4.84646,-15.76402,0.38427,1.55982,-7.81378,5.71676,-6.40628,-7.95025,-5.33249,-0.57935,-1.36783,-0.29496,591.0,7.44,24.78,-8.04,313.172,52.111,-11.507,1.97,52.1245,,,,NaN,,,,0 / 0,4703,2014-12-14 13:28:50:375
5.09905,2.11588,-10.37048,1.36589,-7.83727,5.73426,3.73316,9.95315,-16.10475,-1.8353,0.59971,-0.13517,591.0,8.16,27.84,-10.32,316.069,52.824,-15.262,1.97,52.1245,,,,NaN,,,,0 / 0,4753,2014-12-14 13:28:50:425
-1.0325,-19.51813,5.66348,0.92102,-8.65429,4.5195,-1.95352,-10.86384,1.14398,-1.48483,-0.64132,-0.04036,675.0,8.7,29.4,-12.3,304.46,56.665,-13.218,1.97,52.1245,,,,NaN,,,,0 / 0,4805,2014-12-14 13:28:50:477
-1.64063,-7.64768,-3.76009,0.88496,-8.9395,3.93367,-2.52558,1.29182,-7.69377,-2.22945,-0.00429,0.20145,675.0,9.3,30.6,-13.86,280.025,65.723,-12.679,1.97,51.064,,,,NaN,,,,0 / 0,4854,2014-12-14 13:28:50:526
1.92434,-8.66521,0.76016,0.67472,-9.48254,2.40782,1.24962,0.81732,-1.64766,-2.87287,2.16458,0.40172,675.0,10.32,31.62,-12.72,280.025,65.723,-12.679,1.97,51.064,,,,NaN,,,,0 / 0,4903,2014-12-14 13:28:50:575
-1.28628,-8.51917,2.0219,0.3307,-9.75592,0.94047,-1.61698,1.23675,1.08143,-2.41374,2.26259,0.02994,675.0,11.34,34.02,-7.92,278.447,75.227,-15.654,1.97,51.064,,,,NaN,,,,0 / 0,4954,2014-12-14 13:28:50:626
-1.33656,-10.18553,4.59806,0.2668,-9.79932,0.27339,-1.60337,-0.38621,4.32468,-1.28669,0.84472,-0.03823,481.0,11.64,34.68,-5.4,297.028,87.768,-44.302,1.97,51.064,,,,NaN,,,,0 / 0,5004,2014-12-14 13:28:50:676
-0.40761,-8.25341,-2.15119,0.15742,-9.79453,-0.46193,-0.56503,1.54112,-1.68926,-1.04061,0.14697,-0.04569,481.0,11.34,35.34,-1.32,297.028,87.768,-44.302,1.97,51.064,,,,NaN,,,,0 / 0,5053,2014-12-14 13:28:50:725
3.84688,-10.28369,-0.80086,0.24107,-9.75907,-0.93523,3.60582,-0.52463,0.13437,-1.65634,0.98427,-0.14902,481.0,12.24,35.34,5.4,72.932,87.148,-161.182,1.97,51.064,,,,NaN,,,,0 / 0,5104,2014-12-14 13:28:50:776
1.5293,-12.27806,1.49518,0.49665,-9.69382,-1.39776,1.03265,-2.58424,2.89294,-1.51253,1.24526,-0.36846,265.0,12.48,35.52,7.02,90.94,84.348,-165.546,1.97,51.064,,,,NaN,,,,0 / 0,5154,2014-12-14 13:28:50:826
-2.29185,-12.03146,-0.1257,0.55321,-9.61841,-1.83067,-2.84506,-2.41306,1.70497,-0.69227,0.87774,-0.19589,265.0,12.06,35.28,10.68,90.381,78.755,-163.186,1.97,51.064,,,,NaN,,,,0 / 0,5204,2014-12-14 13:28:50:876
-2.83533,-15.99865,12.25712,0.68175,-9.64579,-1.6327,-3.51708,-6.35286,13.88981,-0.43554,1.23035,-0.07978,265.0,11.16,34.14,13.02,90.381,78.755,-163.186,1.97,52.8916,,,,NaN,,,,0 / 0,5254,2014-12-14 13:28:50:926
-3.11785,-14.95957,6.65468,0.70165,-9.73497,-0.95454,-3.8195,-5.2246,7.60922,3.24601,1.02262,0.341,213.0,10.68,34.32,14.58,94.584,83.062,-143.682,1.97,52.8916,,,,NaN,,,,0 / 0,5303,2014-12-14 13:28:50:975
0.69611,-15.47672,-8.53892,0.31199,-9.73123,1.17361,0.04175,-6.24348,-8.75245,3.37491,0.96829,0.62756,213.0,11.16,35.82,15.48,342.616,82.887,-14.887,1.97,52.8916,,,,NaN,,,,0 / 0,5353,2014-12-14 13:28:51:025
0.68175,-15.39292,0.14485,-0.063,-9.58444,2.07547,-0.1866,-6.40943,-3.40785,2.58768,-1.03227,1.07603,213.0,12.12,37.62,11.34,342.616,82.887,-14.887,1.97,52.8916,,,,NaN,,,,0 / 0,5404,2014-12-14 13:28:51:076
1.79505,-11.61008,-3.1376,-0.47555,-9.02075,3.81726,2.2706,-2.58933,-6.95486,3.18742,-0.71269,0.96418,213.0,14.22,38.58,7.26,318.482,73.809,4.878,1.97,52.8916,,,,NaN,,,,0 / 0,5454,2014-12-14 13:28:51:126
2.03208,-8.45452,-3.66193,-0.56593,-8.72238,4.44648,2.88112,1.4458,-9.03811,2.93389,-1.57662,1.16445,327.0,16.98,37.74,1.56,318.482,73.809,4.878,1.97,52.8916,,,,NaN,,,,0 / 0,5503,2014-12-14 13:28:51:175
0.54528,-4.39635,-5.6156,-0.23837,-7.97538,5.70149,1.52645,3.81187,-11.56714,2.30112,-2.67598,0.63715,327.0,19.32,35.28,-5.82,301.544,59.036,5.857,1.97,52.8916,,,,NaN,,,,0 / 0,5554,2014-12-14 13:28:51:226
2.66894,-3.23038,-4.34907,0.49156,-7.48981,6.31127,2.229,4.39575,-11.17449,1.26781,-2.06984,0.39959,327.0,20.58,31.86,-13.86,301.544,59.036,5.857,1.97,49.6623,,,,NaN,,,,0 / 0,5603,2014-12-14 13:28:51:275
1.08637,-4.96138,-0.3699,0.58808,-7.50911,6.27999,0.33474,1.84668,-4.70925,-0.00944,-0.54332,0.4944,653.0,17.94,26.22,-21.18,286.203,49.796,-4.454,1.97,49.6623,,,,NaN,,,,0 / 0,5654,2014-12-14 13:28:51:326
1.85251,-7.73387,3.42969,0.6204,-7.71846,6.01768,1.23212,-0.01541,-2.58798,-0.75299,-0.79579,0.04592,653.0,16.56,24.3,-23.34,266.414,50.619,-5.537,1.97,49.6623,,,,NaN,,,,0 / 0,5704,2014-12-14 13:28:51:376
1.65619,-11.45446,12.54203,0.95559,-7.9278,5.69266,0.7006,-3.52666,6.84936,-0.44939,-1.68635,0.25259,653.0,13.02,20.64,-27.3,244.92,53.385,-7.311,1.97,49.6623,,,,NaN,,,,0 / 0,5754,2014-12-14 13:28:51:426
3.16932,-10.61888,9.00818,1.15326,-7.87303,5.73217,2.01607,-2.74585,3.27602,0.46247,-0.34411,0.08108,951.0,12.9,19.2,-27.84,244.92,53.385,-7.311,1.97,49.6623,,,,NaN,,,,0 / 0,5804,2014-12-14 13:28:51:476
2.77189,-6.79534,5.59405,1.28599,-7.76604,5.84844,1.4859,0.9707,-0.25438,0.34743,-0.00323,0.18334,951.0,12.3,18.66,-27.72,242.998,53.4,-11.375,1.97,49.6623,,,,NaN,,,,0 / 0,5854,2014-12-14 13:28:51:526
3.02328,-6.61338,8.59399,1.31098,-7.65426,5.98865,1.7123,1.04088,2.60534,0.55409,-0.02347,0.27815,951.0,11.52,18.06,-27.48,242.998,53.4,-11.375,1.97,49.6623,,,,NaN,,,,0 / 0,5904,2014-12-14 13:28:51:576
0.77991,1.10792,-15.83166,2.0219,-6.79774,6.7729,-1.24199,7.90565,-22.60455,1.81323,-0.14065,-0.2172,951.0,7.74,16.62,-27.9,246.647,48.131,-15.45,1.97,49.6623,,,,NaN,,,,0 / 0,5954,2014-12-14 13:28:51:626
-4.68605,-4.35326,-10.99058,1.89232,-6.69179,6.91445,-6.57837,2.33854,-17.90504,-1.41239,0.71156,-0.2108,961.0,7.38,15.54,-27.42,250.872,43.029,-15.306,1.97,49.2961,,,,NaN,,,,0 / 0,6004,2014-12-14 13:28:51:676
-2.91434,-9.17518,-1.25097,1.06078,-7.35768,6.39611,-3.97512,-1.8175,-7.64708,-0.30665,0.10543,0.15032,961.0,5.46,13.8,-28.98,219.849,48.614,-9.417,1.97,49.2961,,,,NaN,,,,0 / 0,6054,2014-12-14 13:28:51:726
-0.77632,-8.62691,0.1233,0.89064,-7.62733,6.09938,-1.66696,-0.99958,-5.97608,-0.91704,0.32381,-0.13091,961.0,5.52,13.92,-29.52,219.849,48.614,-9.417,1.97,49.2961,,,,NaN,,,,0 / 0,6103,2014-12-14 13:28:51:775
-0.30706,-9.07223,4.7058,0.82286,-8.09644,5.4718,-1.12991,-0.97579,-0.76599,-0.85526,0.56136,-0.06167,955.0,8.16,14.58,-27.72,219.978,53.576,-8.422,1.97,49.2961,,,,NaN,,,,0 / 0,6154,2014-12-14 13:28:51:826
0.79188,-7.40347,5.79517,0.52837,-8.35606,5.10564,-1.99736,1.27925,-0.25334,-0.71997,0.7318,0.00331,955.0,9.3,15.36,-26.82,222.292,57.37,-7.179,1.97,49.2961,,,,NaN,,,,0 / 0,6204,2014-12-14 13:28:51:876
0.79667,-8.65803,6.13993,0.435,-8.46111,4.93879,0.36167,-0.19692,1.20114,-0.50692,0.79572,-0.23744,955.0,9.3,16.44,-26.28,222.292,57.37,-7.179,1.97,49.2961,,,,NaN,,,,0 / 0,6253,2014-12-14 13:28:51:925
1.88603,-7.07786,1.33237,0.36003,-8.53862,4.8098,1.526,1.46076,-3.47743,-0.37482,1.2378,-0.04143,951.0,9.6,17.28,-25.98,223.294,59.631,-5.033,1.97,49.2961,,,,NaN,,,,0 / 0,6303,2014-12-14 13:28:51:975
-1.39881,-9.47206,4.59806,0.10804,-8.61344,4.6871,-1.50685,-0.85862,-0.08903,0.2377,-3.0E-5,-0.26087,951.0,9.96,18.72,-24.66,219.854,61.44,-1.32,1.97,52.9405,,,,NaN,,,,0 / 0,6354,2014-12-14 13:28:52:026
0.35853,-7.41544,1.6532,0.14365,-8.63663,4.64325,0.21488,1.22119,-2.99006,-0.16071,0.31102,-0.07658,951.0,10.68,19.14,-23.94,219.854,61.44,-1.32,1.97,52.9405,,,,NaN,,,,0 / 0,6404,2014-12-14 13:28:52:076
-0.22326,-9.71387,1.6532,0.00928,-8.7321,4.46324,-0.23254,-0.98177,-2.81004,0.00121,-0.08738,0.0619,875.0,12.6,19.92,-23.04,228.356,61.725,-1.772,1.97,52.9405,,,,NaN,,,,0 / 0,6454,2014-12-14 13:28:52:126
3.73675,-8.23426,4.23654,0.26037,-8.77744,4.36583,2.93843,0.16355,-0.52164,-0.06696,-0.21522,-0.05102,875.0,12.78,19.74,-22.44,231.284,63.365,-0.544,1.97,52.9405,,,,NaN,,,,0 / 0,6504,2014-12-14 13:28:52:176
-1.66457,-8.89985,3.88938,0.32112,-8.80079,4.3142,-0.10669,0.11148,-0.38128,-0.08614,0.49851,-0.15648,875.0,12.78,19.74,-22.56,231.284,63.365,-0.544,1.97,52.9405,,,,NaN,,,,0 / 0,6554,2014-12-14 13:28:52:226
-2.55282,-9.17997,4.03543,0.2291,-8.81635,4.28846,-2.78191,-0.36362,-0.25304,-0.16284,0.63913,0.02675,875.0,11.76,19.74,-21.96,233.491,63.823,-4.257,1.97,52.9405,,,,NaN,,,,0 / 0,6604,2014-12-14 13:28:52:276
-0.8673,-9.02195,3.81755,0.09517,-8.83101,4.26318,-0.96247,-0.19094,-0.44562,0.06513,-0.20882,-0.13091,817.0,10.74,19.62,-22.02,229.282,64.029,-3.058,1.97,52.9405,,,,NaN,,,,0 / 0,6654,2014-12-14 13:28:52:326
1.10073,-8.99801,3.38181,0.26366,-8.85989,4.19584,0.83707,-0.13812,-0.81403,-0.00731,0.01808,-0.0116,817.0,12.66,20.16,-23.34,230.591,64.355,-2.595,1.97,48.2497,,,,NaN,,,,0 / 0,6704,2014-12-14 13:28:52:376
0.58838,-8.82802,3.6763,0.27189,-8.86827,4.17743,0.31648,0.04025,-0.50114,-0.01796,0.1278,-0.00734,817.0,13.44,20.7,-22.62,230.591,64.355,-2.595,1.97,48.2497,,,,NaN,,,,0 / 0,6753,2014-12-14 13:28:52:425
0.27713,-8.7131,3.25731,0.2873,-8.89326,4.12297,-0.01018,0.18016,-0.86565,-0.07122,-0.00642,-0.04995,845.0,12.42,20.64,-22.5,234.728,64.852,-3.72,1.97,48.2497,,,,NaN,,,,0 / 0,6803,2014-12-14 13:28:52:475
0.68654,-9.60374,3.53983,0.28446,-8.9205,4.06386,0.40208,-0.68325,-0.52403,-0.07655,0.06814,1.2E-4,845.0,11.82,20.46,-22.74,229.005,65.455,-4.004,1.97,48.2497,,,,NaN,,,,0 / 0,6854,2014-12-14 13:28:52:526
0.72484,-8.94773,3.45124,0.35285,-8.9603,3.96989,0.372,0.01257,-0.51864,-0.08507,-0.01495,-0.07658,845.0,12.06,20.64,-22.98,230.756,66.021,-5.079,1.97,48.2497,,,,NaN,,,,0 / 0,6903,2014-12-14 13:28:52:575
0.38008,-8.80408,3.3866,0.37813,-8.97646,3.93068,0.00195,0.17238,-0.54408,-0.09785,0.02127,-0.05741,845.0,12.12,20.64,-22.74,230.756,66.021,-5.079,1.97,48.2497,,,,NaN,,,,0 / 0,6953,2014-12-14 13:28:52:625
0.2053,-8.99801,3.57813,0.3937,-9.0019,3.87068,-0.18839,0.00389,-0.29254,-0.02435,-0.03199,-0.02971,845.0,11.34,21.0,-22.98,231.019,66.255,-5.495,1.97,48.2497,,,,NaN,,,,0 / 0,7004,2014-12-14 13:28:52:676
0.51655,-9.05068,3.31717,0.40806,-9.01701,3.83387,0.10849,-0.03367,-0.5167,-0.00944,-0.04584,-0.00521,851.0,11.16,20.82,-22.92,228.731,66.731,-5.911,1.97,48.0497,,,,NaN,,,,0 / 0,7054,2014-12-14 13:28:52:726
0.73203,-9.02195,3.3459,0.42766,-9.0239,3.81561,0.30436,0.00195,-0.46971,-0.0137,-0.05117,-0.02332,851.0,10.98,20.46,-22.32,228.731,66.731,-5.911,1.97,48.0497,,,,NaN,,,,0 / 0,7104,2014-12-14 13:28:52:776
0.56204,-8.96688,3.32435,0.45954,-9.03198,3.79271,0.1025,0.06509,-0.46837,-0.00624,0.00636,-0.01693,851.0,11.52,21.42,-22.2,231.176,66.951,-6.395,1.97,48.0497,,,,NaN,,,,0 / 0,7153,2014-12-14 13:28:52:825
0.32022,-9.18715,3.45603,0.45984,-9.03841,3.77715,-0.13961,-0.14874,-0.32112,-0.0627,-0.18006,-0.00308,851.0,10.92,21.06,-22.38,231.619,67.17,-6.941,1.97,48.0497,,,,NaN,,,,0 / 0,7204,2014-12-14 13:28:52:876
0.65062,-9.09856,2.75692,0.51221,-9.07986,3.66956,0.13841,-0.0187,-0.91264,-0.14579,-0.58806,-0.02971,851.0,11.04,21.42,-22.2,231.619,67.17,-6.941,1.97,48.0497,,,,NaN,,,,0 / 0,7254,2014-12-14 13:28:52:926
0.44951,-9.74979,3.51589,0.5969,-9.09737,3.61285,0.23568,-0.13048,-0.38906,-0.03074,-0.48579,1.2E-4,887.0,11.34,21.78,-21.72,233.125,67.802,-7.946,1.97,48.0497,,,,NaN,,,,0 / 0,7303,2014-12-14 13:28:52:975
0.23882,-9.36911,4.19105,0.70614,-9.12236,3.5292,-0.46732,-0.24675,0.66185,-0.0872,-0.1023,-0.00734,887.0,11.28,21.12,-21.9,235.571,68.469,-11.315,1.97,48.0497,,,,NaN,,,,0 / 0,7354,2014-12-14 13:28:53:026
0.15981,-9.4146,4.45202,0.66484,-9.11143,3.56527,-0.50503,-0.30317,0.88675,0.09709,0.36535,0.03314,887.0,10.68,21.24,-21.9,235.571,68.469,-11.315,1.97,48.0497,,,,NaN,,,,0 / 0,7403,2014-12-14 13:28:53:075
1.09595,-8.14567,2.53426,0.49156,-9.07986,3.67226,0.29553,0.75462,-0.91054,0.16953,0.67748,0.07469,907.0,9.72,21.42,-22.14,229.825,67.855,-8.053,1.97,40.8963,,,,NaN,,,,0 / 0,7453,2014-12-14 13:28:53:125
0.74639,-9.49361,3.10169,0.47375,-9.08719,3.65625,0.27264,-0.40642,-0.55456,0.0353,-0.01282,0.02568,907.0,9.78,21.48,-22.8,226.89,67.917,-7.383,1.97,40.8963,,,,NaN,,,,0 / 0,7504,2014-12-14 13:28:53:176