ACCELEROMETER X (m/s²),ACCELEROMETER Y (m/s²),ACCELEROMETER Z (m/s²),GRAVITY X (m/s²),GRAVITY Y (m/s²),GRAVITY Z (m/s²),LINEAR ACCELERATION X (m/s²),LINEAR ACCELERATION Y (m/s²),LINEAR ACCELERATION Z (m/s²),GYROSCOPE X (rad/s),GYROSCOPE Y (rad/s),GYROSCOPE Z (rad/s),LIGHT (lux),MAGNETIC FIELD X (μT),MAGNETIC FIELD Y (μT),MAGNETIC FIELD Z (μT),ORIENTATION X (°),ORIENTATION Y (°),ORIENTATION Z (°),PROXIMITY (i),SOUND LEVEL (dB),LOCATION Latitude : ,LOCATION Longitude : ,LOCATION Altitude ( m),LOCATION Altitude-google ( m),LOCATION Speed ( Kmh),LOCATION Accuracy ( m),LOCATION ORIENTATION (°),Satellites in range,Time since start in ms ,YYYY-MO-DD HH-MI-SS_SSS
0.17657,-9.31165,3.06817,0.03217,-9.57591,2.11483,0.1444,0.26426,0.95334,-0.21051,-0.14091,0.08474,125.0,21.9,28.5,-15.66,247.88,77.545,-0.872,1.97,9.1451,,,,NaN,,,,0 / 0,4,2014-12-14 13:26:02:426
-0.14425,-9.24222,2.52469,-0.01571,-9.60658,1.97118,-0.12854,0.36437,0.55351,-0.49068,-0.11534,0.11989,125.0,22.2,27.84,-15.66,247.125,77.718,-0.801,1.97,9.1451,,,,NaN,,,,0 / 0,53,2014-12-14 13:26:02:475
0.27713,-9.29728,2.22541,-0.03771,-9.63771,1.81256,0.31484,0.34043,0.41285,-0.5482,-0.11854,0.10391,125.0,22.02,27.78,-15.36,247.125,77.718,-0.801,1.97,9.1451,,,,NaN,,,,0 / 0,104,2014-12-14 13:26:02:526
0.65781,-8.76098,2.00036,-0.0621,-9.68499,1.53872,0.71991,0.92401,0.46163,-0.47789,-0.05143,0.16357,139.0,21.24,28.02,-15.6,243.108,80.143,1.348,1.97,13.8184,,,,NaN,,,,0 / 0,154,2014-12-14 13:26:02:576
-0.6183,-10.28369,1.08098,-0.09771,-9.70594,1.39896,-0.52059,-0.57775,-0.31798,-0.42676,0.10836,0.13587,139.0,21.78,27.96,-14.4,241.607,81.778,3.995,1.97,13.8184,,,,NaN,,,,0 / 0,203,2014-12-14 13:26:02:625
-0.97983,-8.90942,-0.20231,-0.21907,-9.73916,1.12767,-0.76076,0.82974,-1.32998,-0.67816,0.06469,0.10178,139.0,22.02,28.2,-14.16,241.607,81.778,3.995,1.97,13.8184,,,,NaN,,,,0 / 0,254,2014-12-14 13:26:02:676
0.34177,-9.1249,2.065,-0.23014,-9.79064,0.51236,0.57191,0.66574,1.55264,-0.92211,0.32461,-0.00474,149.0,20.82,28.02,-13.56,226.598,84.702,15.194,1.97,13.8184,,,,NaN,,,,0 / 0,304,2014-12-14 13:26:02:726
-0.81702,-8.74422,2.2278,-0.19558,-9.80126,0.26037,0.14231,1.07619,2.11109,-0.86884,0.57388,-0.06759,149.0,20.64,28.2,-12.24,204.26,88.097,36.912,1.97,13.8184,,,,NaN,,,,0 / 0,353,2014-12-14 13:26:02:775
-1.21925,-8.77774,1.67953,-0.24915,-9.80306,-0.09577,-0.98925,1.06602,1.66996,-0.82943,0.73367,0.05385,149.0,21.06,29.1,-11.16,129.853,88.44,111.026,1.97,13.8184,,,,NaN,,,,0 / 0,404,2014-12-14 13:26:02:826
-0.05088,-8.12891,-0.35075,-0.27429,-9.78435,-0.60364,2.17947,0.76959,0.08529,-0.89441,1.04047,0.12096,149.0,21.18,29.28,-10.8,129.853,88.44,111.026,1.97,13.8184,,,,NaN,,,,0 / 0,453,2014-12-14 13:26:02:875
2.04644,-9.36672,-1.41617,-0.2059,-9.77388,-0.77452,1.61235,-0.03995,-1.74208,-1.09468,1.32489,-0.13151,149.0,20.82,29.34,-9.54,84.165,86.123,155.564,1.97,13.8184,,,,NaN,,,,0 / 0,504,2014-12-14 13:26:02:926
-2.02609,-11.55501,-1.00676,0.09113,-9.64998,-1.74373,-2.11722,-1.90504,0.73697,-1.32904,1.02342,-0.36587,73.0,21.24,29.52,-6.6,57.162,79.744,-177.008,1.97,44.8105,,,,NaN,,,,0 / 0,553,2014-12-14 13:26:02:975
-0.33579,-13.34348,0.57341,0.21443,-9.60524,-1.96624,-0.55022,-3.73825,2.53965,-0.7538,0.47162,-0.41061,73.0,21.48,29.58,-4.68,57.162,79.744,-177.008,1.97,44.8105,,,,NaN,,,,0 / 0,604,2014-12-14 13:26:03:026
0.5381,-11.66275,0.15443,0.51969,-9.54867,-2.17349,-0.09203,-1.24154,2.75094,-0.63023,0.88707,-0.51074,73.0,19.98,29.34,-0.78,57.734,77.536,-169.943,1.97,44.8105,,,,NaN,,,,0 / 0,653,2014-12-14 13:26:03:075
-3.75471,-14.22694,5.45998,0.87927,-9.54688,-2.0629,-5.41179,-3.49972,7.0177,-0.50559,0.95525,-0.60555,57.0,19.98,29.7,0.3,54.009,76.146,-160.431,1.97,44.8105,,,,NaN,,,,0 / 0,703,2014-12-14 13:26:03:125
-3.65894,-11.86147,4.63877,0.84336,-9.61332,-1.74462,-4.5023,-2.24816,6.38339,0.65874,0.41942,-0.20501,57.0,19.08,29.88,1.5,54.009,76.146,-160.431,1.97,44.8105,,,,NaN,,,,0 / 0,754,2014-12-14 13:26:03:176
-0.39564,-11.98837,-1.567,0.56683,-9.77717,-0.50757,-0.96247,-2.21119,-1.05943,2.02122,-0.5521,0.33934,57.0,17.1,29.52,3.9,57.655,82.134,-148.979,1.97,44.8105,,,,NaN,,,,0 / 0,804,2014-12-14 13:26:03:226
0.84934,-12.70184,-0.23343,0.41569,-9.79737,0.10265,0.43365,-2.90447,-0.33609,2.22894,-0.8067,0.60459,57.0,16.14,29.46,4.32,0.153,87.498,-76.129,1.97,55.9568,,,,NaN,,,,0 / 0,854,2014-12-14 13:26:03:276
2.39839,-12.60128,-1.14802,-0.00733,-9.61377,1.93601,2.40572,-2.98751,-3.08403,2.91178,-0.54038,0.64826,57.0,15.96,28.98,1.02,292.552,78.614,0.217,1.97,55.9568,,,,NaN,,,,0 / 0,903,2014-12-14 13:26:03:325
0.69133,-9.54867,-1.62207,-0.11537,-9.36357,2.91225,0.8067,-0.1851,-4.53432,3.10885,-0.50843,0.39686,57.0,15.84,28.62,-1.5,292.552,78.614,0.217,1.97,55.9568,,,,NaN,,,,0 / 0,954,2014-12-14 13:26:03:376
0.81104,-5.58148,-3.52307,0.03262,-8.75724,4.41371,0.77841,3.17576,-7.93678,2.26516,-1.53108,0.22003,57.0,16.74,28.02,-5.04,287.986,72.711,2.269,1.97,55.9568,,,,NaN,,,,0 / 0,1003,2014-12-14 13:26:03:425
0.77512,-4.92308,-3.86544,0.21982,-8.52291,4.84586,0.55531,3.59983,-8.7113,1.54504,-0.98247,0.09113,87.0,16.38,26.52,-7.44,295.88,60.353,-2.597,1.97,55.9568,,,,NaN,,,,0 / 0,1054,2014-12-14 13:26:03:476
-0.72125,-4.0037,-1.61728,0.2701,-8.43028,5.00283,-0.92237,4.48703,-4.63577,-0.04433,-0.08658,0.55985,87.0,16.92,25.08,-10.8,295.88,60.353,-2.597,1.97,55.9568,,,,NaN,,,,0 / 0,1104,2014-12-14 13:26:03:526
1.30185,-7.59261,9.61152,0.08844,-8.52231,4.85125,0.38502,2.54339,-1.97701,-0.78895,-0.3284,0.5982,87.0,16.5,23.4,-15.84,270.558,59.277,-3.09,1.97,55.9568,,,,NaN,,,,0 / 0,1154,2014-12-14 13:26:03:576
0.71287,-15.05294,16.23149,0.18301,-8.47338,4.93355,0.52987,-6.57957,11.29794,0.7397,-1.6163,0.08367,113.0,16.02,22.08,-17.04,259.465,59.773,-2.124,1.97,48.2367,,,,NaN,,,,0 / 0,1204,2014-12-14 13:26:03:626
2.71203,-6.12736,3.48237,0.57685,-8.25206,5.26694,2.13518,2.1247,-1.78458,0.70242,-0.82055,0.18807,113.0,15.84,21.42,-17.46,259.465,59.773,-2.124,1.97,48.2367,,,,NaN,,,,0 / 0,1254,2014-12-14 13:26:03:676
2.8916,-10.10173,2.94367,0.79039,-8.18338,5.34595,2.10121,-1.91835,-2.40228,-0.00172,-1.69726,0.29779,113.0,16.2,21.12,-17.7,262.839,57.297,-6.25,1.97,48.2367,,,,NaN,,,,0 / 0,1304,2014-12-14 13:26:03:726
9.71986,1.19171,-12.72638,1.08218,-8.1976,5.27248,8.63768,9.38931,-17.99886,0.98258,0.58667,-0.22312,151.0,14.04,21.96,-18.96,267.911,57.387,-10.829,1.97,48.2367,,,,NaN,,,,0 / 0,1354,2014-12-14 13:26:03:776
-9.09138,0.96187,-12.39358,1.12108,-8.39392,4.94522,-15.80816,-0.12016,-11.87838,-0.29786,-0.67993,-0.35841,151.0,13.08,21.84,-19.5,263.159,58.864,-12.773,1.97,48.2367,,,,NaN,,,,0 / 0,1403,2014-12-14 13:26:03:825
-2.41395,-9.82401,0.61172,0.51206,-9.00579,3.84778,-2.92601,-0.81822,-3.23606,-1.51759,-0.30816,-0.02072,151.0,12.66,20.94,-20.4,241.815,66.683,-7.58,1.97,48.2367,,,,NaN,,,,0 / 0,1454,2014-12-14 13:26:03:876
0.37529,-7.50163,-2.45765,0.46477,-9.27155,3.16124,2.51855,0.86865,-2.10271,-2.18977,0.53447,0.11563,151.0,13.2,22.56,-20.1,235.606,74.872,-9.358,1.97,48.2367,,,,NaN,,,,0 / 0,1504,2014-12-14 13:26:03:926
1.75196,-8.82563,1.16957,0.36272,-9.63696,1.77979,1.38924,0.81134,-0.61022,-2.22812,1.26311,-0.01539,197.0,13.62,23.76,-18.06,235.606,74.872,-9.358,1.97,51.0885,,,,NaN,,,,0 / 0,1553,2014-12-14 13:26:03:975
0.8685,-8.97407,1.66517,0.28865,-9.74111,1.09505,0.57985,0.76704,0.57012,-1.93944,1.73076,-0.01113,197.0,13.44,24.6,-16.26,241.103,83.369,-14.767,1.97,51.0885,,,,NaN,,,,0 / 0,1603,2014-12-14 13:26:04:025
-1.28389,-10.18553,2.04585,0.29209,-9.80231,0.00628,-1.57598,-0.38322,2.03956,-1.65075,1.49853,-0.15601,197.0,13.08,26.04,-12.6,315.449,88.293,-88.767,1.97,51.0885,,,,NaN,,,,0 / 0,1654,2014-12-14 13:26:04:076
-0.75477,-9.52234,-0.02035,0.29868,-9.79468,-0.38262,-1.05345,0.27234,0.36227,-1.1586,0.55897,-0.16347,197.0,13.8,27.0,-9.9,315.449,88.293,-88.767,1.97,51.0885,,,,NaN,,,,0 / 0,1704,2014-12-14 13:26:04:126
3.14059,-10.59255,0.53989,0.46552,-9.7022,-1.34988,2.67507,-0.89034,1.88977,-1.57298,0.79226,-0.16027,197.0,14.4,27.96,-4.26,36.356,84.647,-158.487,1.97,51.0885,,,,NaN,,,,0 / 0,1754,2014-12-14 13:26:04:176
-4.1689,-11.61966,0.28132,0.68175,-9.63995,-1.66711,-0.9505,-2.06111,3.47593,-1.17138,1.07349,-0.466,83.0,13.68,27.84,-1.2,48.165,79.417,-157.758,1.97,51.0885,,,,NaN,,,,0 / 0,1803,2014-12-14 13:26:04:225
-1.05165,-11.61487,2.314,0.77093,-9.60374,-1.82902,-1.41557,-2.35829,4.53327,-0.49174,0.69852,-0.22525,83.0,12.84,28.38,1.56,55.378,78.323,-157.145,1.97,51.0885,,,,NaN,,,,0 / 0,1854,2014-12-14 13:26:04:276
-3.94864,-15.32109,7.04254,0.76031,-9.64444,-1.60591,-7.11991,-6.55532,8.89506,0.11759,0.82635,-0.35948,83.0,12.3,28.5,3.42,55.378,78.323,-157.145,1.97,53.2691,,,,NaN,,,,0 / 0,1903,2014-12-14 13:26:04:325
-0.87448,-14.94281,5.45998,0.58927,-9.75173,-0.85323,-1.46375,-5.19108,6.31321,1.85184,0.02421,0.19872,67.0,11.94,28.62,4.8,65.643,83.93,-145.37,1.97,53.2691,,,,NaN,,,,0 / 0,1954,2014-12-14 13:26:04:376
2.38881,-14.08329,-6.09923,0.23598,-9.75877,0.93883,2.15284,-4.32453,-7.03805,2.36743,-0.3039,0.81125,67.0,10.08,29.7,7.86,329.412,84.335,-14.109,1.97,53.2691,,,,NaN,,,,0 / 0,2003,2014-12-14 13:26:04:425
-0.25917,-13.03703,-0.56144,-0.14305,-9.54329,2.25339,1.12976,-3.16109,-4.13957,2.48461,-1.4139,0.87517,67.0,10.14,30.3,7.44,329.412,84.335,-14.109,1.97,53.2691,,,,NaN,,,,0 / 0,2054,2014-12-14 13:26:04:476
1.48141,-12.1823,-2.60369,-0.27698,-9.36447,2.89833,2.42428,-0.71048,-6.46629,2.92456,-0.93986,0.6994,91.0,10.56,33.96,3.3,321.033,76.689,3.632,1.97,53.2691,,,,NaN,,,,0 / 0,2104,2014-12-14 13:26:04:526
0.64344,-7.05631,-3.03465,-0.28536,-8.67973,4.55527,0.9288,1.62342,-7.58992,2.34399,-2.16811,0.56411,91.0,12.6,35.52,-0.54,312.818,67.138,5.615,1.97,53.2691,,,,NaN,,,,0 / 0,2154,2014-12-14 13:26:04:576
0.1646,-4.95899,-4.82791,-0.11866,-8.37492,5.1007,0.28326,3.41593,-9.9286,1.75171,-1.8219,0.54706,91.0,14.16,36.12,-3.42,312.818,67.138,5.615,1.97,53.2691,,,,NaN,,,,0 / 0,2204,2014-12-14 13:26:04:626
1.07919,-4.4586,-2.67073,0.30451,-8.15106,5.44412,0.77467,3.69246,-8.11485,0.36047,-0.91642,0.4171,171.0,16.92,35.52,-14.04,308.147,58.65,1.333,1.97,53.2691,,,,NaN,,,,0 / 0,2254,2014-12-14 13:26:04:676
0.76794,-4.92547,2.42174,0.28446,-8.29905,5.21682,0.46852,2.75992,-2.04555,-0.22756,-0.53293,0.54493,171.0,17.22,34.98,-16.98,288.072,56.737,-3.496,1.97,50.1773,,,,NaN,,,,0 / 0,2304,2014-12-14 13:26:04:726
1.46465,-11.28208,10.89003,0.40701,-8.43103,4.99221,2.57766,-0.67457,4.54165,-0.55992,-1.05065,0.1657,171.0,17.22,32.46,-23.34,263.4,59.286,-4.661,1.97,50.1773,,,,NaN,,,,0 / 0,2353,2014-12-14 13:26:04:775
1.28509,-14.32511,17.08862,0.59526,-8.30788,5.17656,1.52271,-5.88181,8.39706,0.50109,-1.37875,0.11989,171.0,17.16,32.16,-24.54,263.4,59.286,-4.661,1.97,50.1773,,,,NaN,,,,0 / 0,2403,2014-12-14 13:26:04:825
2.50852,-4.93505,3.61165,0.81208,-8.04542,5.54826,2.77428,3.1608,-0.44233,0.42758,0.0306,0.37343,235.0,17.4,32.82,-25.62,268.382,56.169,-8.208,1.97,50.1773,,,,NaN,,,,0 / 0,2454,2014-12-14 13:26:04:876
-8.95731,-19.51813,0.98761,0.89738,-8.01579,5.57789,3.46276,0.69462,-14.71267,-0.32556,-0.9047,0.089,235.0,16.8,33.3,-25.62,270.647,54.823,-9.139,1.97,50.1773,,,,NaN,,,,0 / 0,2503,2014-12-14 13:26:04:925
4.76626,-0.2472,-11.83813,1.19261,-8.27541,5.12509,3.57365,8.02821,-16.96322,0.62146,-0.86529,-0.06759,235.0,16.14,33.18,-28.44,264.152,57.549,-13.1,1.97,50.1773,,,,NaN,,,,0 / 0,2554,2014-12-14 13:26:04:976
-9.36193,-18.084,-0.93015,1.1772,-8.4047,4.91395,-3.80903,5.14319,-17.67624,-2.04383,0.2788,-0.15494,267.0,16.2,32.04,-29.76,264.152,57.549,-13.1,1.97,48.9355,,,,NaN,,,,0 / 0,2604,2014-12-14 13:26:05:026
-1.38445,-19.51813,3.93248,0.78814,-8.89042,4.06311,-3.06682,-1.36125,-3.21811,-1.5325,0.32887,0.13694,267.0,16.92,32.04,-30.9,247.81,63.595,-12.274,1.97,48.9355,,,,NaN,,,,0 / 0,2654,2014-12-14 13:26:05:076
-0.12749,-7.81048,-3.14957,0.50099,-9.24311,3.23816,-0.62848,1.43263,-6.38773,-1.95115,0.66869,0.29673,267.0,16.92,32.16,-31.14,243.734,65.036,-10.978,1.97,48.9355,,,,NaN,,,,0 / 0,2703,2014-12-14 13:26:05:125
0.34177,-8.5886,1.50236,0.1456,-9.6612,1.67714,0.19617,1.0726,-0.17478,-2.07472,2.3305,-0.02498,297.0,18.18,34.14,-27.24,233.82,75.753,-7.012,1.97,48.9355,,,,NaN,,,,0 / 0,2754,2014-12-14 13:26:05:176
-2.38762,-9.29489,1.74418,0.05207,-9.75158,1.03699,-2.43969,0.45669,0.70719,-1.82226,1.99601,-0.08144,297.0,20.22,35.94,-23.46,233.82,75.753,-7.012,1.97,48.9355,,,,NaN,,,,0 / 0,2803,2014-12-14 13:26:05:225
-1.66696,-9.7019,1.95008,-0.00449,-9.79243,0.52807,-1.66247,0.09053,1.42201,-1.74769,1.89161,0.00271,297.0,20.82,37.44,-20.94,227.387,86.913,0.487,1.97,48.9355,,,,NaN,,,,0 / 0,2854,2014-12-14 13:26:05:276
0.20291,-8.82563,-1.21027,-0.0633,-9.80156,-0.31349,0.26621,0.97594,-0.89678,-1.14794,0.61756,-0.1134,297.0,23.04,39.48,-13.56,179.221,89.489,59.44,1.97,48.9355,,,,NaN,,,,0 / 0,2904,2014-12-14 13:26:05:326
1.48381,-9.71387,-0.79368,0.0214,-9.77942,-0.73023,1.46241,0.06554,-0.06345,-1.45367,0.76456,-0.14536,123.0,24.54,40.44,-8.34,179.221,89.489,59.44,1.97,53.5264,,,,NaN,,,,0 / 0,2954,2014-12-14 13:26:05:376
-2.68929,-12.08174,0.76255,0.30466,-9.67332,-1.58272,-0.63581,-1.41378,1.55459,-1.40041,1.02449,-0.34456,123.0,25.08,40.62,-5.88,68.518,85.728,-178.322,1.97,53.5264,,,,NaN,,,,0 / 0,3003,2014-12-14 13:26:05:425
0.04968,-11.66515,3.51589,0.3696,-9.67183,-1.57853,-0.23673,-2.52783,7.03506,-0.36497,1.12995,-0.17732,123.0,24.72,40.62,0.54,65.035,80.484,-166.822,1.97,53.5264,,,,NaN,,,,0 / 0,3054,2014-12-14 13:26:05:476
-5.99089,-14.95239,10.46386,0.39863,-9.75667,-0.90501,-6.69464,-5.58462,11.90951,1.40336,0.69319,-0.08038,89.0,24.18,40.68,2.52,65.035,80.484,-166.822,1.97,53.5264,,,,NaN,,,,0 / 0,3103,2014-12-14 13:26:05:525
0.69133,-14.91647,4.47596,0.30122,-9.80171,0.08469,0.74295,-5.67516,-2.70814,3.0982,0.54619,0.22003,89.0,23.76,40.62,4.2,354.073,88.171,-74.295,1.97,53.5264,,,,NaN,,,,0 / 0,3154,2014-12-14 13:26:05:576
1.05764,-15.56291,-7.47829,0.18121,-9.72794,1.22718,1.89681,-5.72035,-11.26801,3.48489,1.1928,0.43415,89.0,23.52,40.02,5.22,354.073,88.171,-74.295,1.97,53.5264,,,,NaN,,,,0 / 0,3203,2014-12-14 13:26:05:625
-1.84653,-14.93084,0.13767,-0.49605,-9.3106,3.03929,-1.35048,-5.62024,-2.90162,2.92882,-1.02721,1.08502,105.0,22.8,37.98,1.26,297.115,77.175,4.068,1.97,53.5264,,,,NaN,,,,0 / 0,3254,2014-12-14 13:26:05:676
0.89483,-11.24138,-2.78565,-0.72844,-8.87127,4.11593,1.62327,-2.37011,-6.90159,3.02363,-1.66317,1.00193,105.0,22.74,35.88,-2.82,292.238,64.772,10.036,1.97,53.5264,,,,NaN,,,,0 / 0,3304,2014-12-14 13:26:05:726
1.93392,-4.85843,-4.64355,-0.4335,-8.14208,5.44875,2.36742,3.28365,-10.09231,2.19379,-2.60061,0.60992,105.0,22.62,34.14,-4.2,292.238,64.772,10.036,1.97,50.0654,,,,NaN,,,,0 / 0,3354,2014-12-14 13:26:05:776
2.17573,-3.77386,-4.543,0.09098,-7.6797,6.09788,2.08475,3.90584,-10.64088,1.66329,-2.37264,0.50019,105.0,21.18,27.42,-10.5,295.151,56.126,4.549,1.97,50.0654,,,,NaN,,,,0 / 0,3404,2014-12-14 13:26:05:826
0.89004,-4.6669,-2.00275,0.49111,-7.57316,6.21116,0.39893,2.90626,-8.21391,0.39456,-1.17209,0.3649,175.0,19.44,24.72,-13.86,287.349,50.555,-4.521,1.97,50.0654,,,,NaN,,,,0 / 0,3454,2014-12-14 13:26:05:876
1.31382,-5.72513,0.1233,0.52643,-7.70694,6.04132,0.23912,2.81259,-5.97787,-0.38735,-0.24105,0.58009,175.0,17.52,23.22,-18.48,287.349,50.555,-4.521,1.97,50.0654,,,,NaN,,,,0 / 0,3504,2014-12-14 13:26:05:926
1.92195,-7.21912,1.96444,0.48019,-8.18248,5.38381,1.94215,-0.72215,2.37939,-1.42278,-0.25596,0.41497,175.0,16.2,22.08,-19.86,263.601,53.638,-4.629,1.97,50.0654,,,,NaN,,,,0 / 0,3553,2014-12-14 13:26:05:975
2.46064,-15.51024,14.63935,0.71018,-8.29172,5.18779,1.75046,-7.21852,9.45156,0.47232,-1.17528,0.23707,299.0,13.44,20.28,-21.06,250.978,57.728,-7.795,1.97,50.0654,,,,NaN,,,,0 / 0,3604,2014-12-14 13:26:06:026
2.59232,-8.10976,5.99628,0.85608,-8.16557,5.36301,1.73625,0.05581,0.63327,0.63744,-0.71828,0.29566,299.0,13.2,20.46,-20.34,250.978,57.728,-7.795,1.97,50.0654,,,,NaN,,,,0 / 0,3654,2014-12-14 13:26:06:076
-4.05159,-19.51813,-2.30681,1.09056,-8.36115,5.00717,-5.14215,-11.15698,-7.31399,-1.61133,-0.79498,-0.09209,299.0,12.54,20.94,-19.74,261.665,55.085,-9.624,1.97,50.6659,,,,NaN,,,,0 / 0,3704,2014-12-14 13:26:06:126
3.06637,-5.4091,-6.31949,1.05046,-8.51034,4.75833,2.01592,3.10124,-11.07782,0.82493,-0.81522,-0.20288,389.0,9.0,20.64,-19.26,252.825,60.205,-12.449,1.97,50.6659,,,,NaN,,,,0 / 0,3754,2014-12-14 13:26:06:176
-4.26946,-16.79114,-1.43772,0.91698,-8.84164,4.14182,-5.18644,-7.9495,-5.57954,-2.19297,2.00027,0.25518,389.0,7.98,20.28,-18.54,252.825,60.205,-12.449,1.97,50.6659,,,,NaN,,,,0 / 0,3803,2014-12-14 13:26:06:225
-1.47064,-12.52946,0.78889,0.64913,-9.09393,3.6124,-2.11977,-3.43553,-2.82351,-1.45687,0.60158,-0.0122,389.0,6.84,20.82,-18.12,241.476,64.369,-12.484,1.97,50.6659,,,,NaN,,,,0 / 0,3854,2014-12-14 13:26:06:276
0.73682,-8.78971,-0.88466,0.43709,-9.46248,2.53815,0.29972,0.67277,-3.42281,-2.10349,1.49001,0.13481,389.0,6.66,21.48,-17.94,227.459,71.832,-9.873,1.97,50.6659,,,,NaN,,,,0 / 0,3904,2014-12-14 13:26:06:326
1.42635,-8.72268,-0.41779,0.34656,-9.56528,2.13473,1.07979,0.84261,-2.55252,-2.12373,1.69454,0.12735,427.0,6.84,22.26,-16.86,227.459,71.832,-9.873,1.97,50.6659,,,,NaN,,,,0 / 0,3954,2014-12-14 13:26:06:376
-1.24319,-9.10575,1.39941,0.09188,-9.79438,0.48408,-1.33507,0.68863,0.91533,-1.96394,2.11425,-0.03244,427.0,8.04,24.3,-12.6,221.417,83.242,-8.065,1.97,50.6659,,,,NaN,,,,0 / 0,4004,2014-12-14 13:26:06:426
-2.04046,-10.14244,3.08972,0.10041,-9.80605,-0.04414,-2.14087,-0.33639,3.13386,-1.78284,1.67643,-0.19329,427.0,8.16,24.72,-11.1,330.341,89.359,-113.732,1.97,52.9385,,,,NaN,,,,0 / 0,4053,2014-12-14 13:26:06:475
-1.73639,-9.51994,2.25654,0.06449,-9.79767,-0.41719,0.03726,0.66319,-0.32501,-1.13303,0.45351,-0.12725,187.0,8.82,25.74,-6.06,42.775,85.844,-173.192,1.97,52.9385,,,,NaN,,,,0 / 0,4103,2014-12-14 13:26:06:525
2.87244,-10.35552,-0.77213,0.26231,-9.71402,-1.31965,2.61013,-0.6415,0.54752,-1.45687,0.87748,-0.22099,187.0,8.94,26.1,-3.06,42.775,85.844,-173.192,1.97,52.9385,,,,NaN,,,,0 / 0,4154,2014-12-14 13:26:06:576
-3.86723,-11.44009,1.55264,0.45505,-9.63247,-1.78368,-3.92484,-1.62327,3.30759,-1.07764,0.97762,-0.42446,187.0,8.16,25.68,-1.5,44.993,80.132,-164.874,1.97,52.9385,,,,NaN,,,,0 / 0,4204,2014-12-14 13:26:06:626
0.21249,-12.94365,3.5925,0.48483,-9.63023,-1.78727,-0.83498,-1.80268,4.03662,-0.42037,0.93288,-0.10275,127.0,6.84,25.56,1.14,50.613,79.115,-164.823,1.97,52.9385,,,,NaN,,,,0 / 0,4254,2014-12-14 13:26:06:676
-4.78182,-16.51101,9.72166,0.45909,-9.7037,-1.3415,-3.66747,-5.45339,10.12448,2.06596,0.53127,0.15398,127.0,6.18,25.86,2.28,50.613,79.115,-164.823,1.97,52.9385,,,,NaN,,,,0 / 0,4304,2014-12-14 13:26:06:726
0.71048,-14.48552,-2.45047,0.30481,-9.79303,0.42018,0.40567,-4.69249,-2.87065,3.0705,0.57388,0.13694,127.0,4.44,26.52,4.2,65.884,81.687,-161.108,1.97,52.9385,,,,NaN,,,,0 / 0,4353,2014-12-14 13:26:06:775
1.01933,-14.01386,-9.05846,0.16325,-9.72255,1.27162,0.85608,-4.29131,-10.33008,2.31097,-0.03545,0.76757,127.0,4.08,27.06,3.6,352.77,86.966,-35.958,1.97,51.5941,,,,NaN,,,,0 / 0,4403,2014-12-14 13:26:06:825
-0.56802,-14.23173,-0.57581,-0.11313,-9.58174,2.0855,-0.4549,-4.64999,-2.6613,2.1597,-0.94625,0.83362,127.0,4.14,27.06,1.32,328.141,77.703,3.105,1.97,51.5941,,,,NaN,,,,0 / 0,4454,2014-12-14 13:26:06:876
0.64105,-10.62367,-2.54863,-0.38861,-9.07372,3.69964,1.02966,-1.54995,-6.24827,2.8713,-1.57156,0.77397,159.0,4.5,26.52,-2.22,328.141,77.703,3.105,1.97,51.5941,,,,NaN,,,,0 / 0,4503,2014-12-14 13:26:06:925
0.69611,-7.12095,-3.77925,-0.11432,-8.42729,5.01391,0.81044,1.30634,-8.79315,2.36423,-2.71352,0.53854,159.0,6.24,24.96,-6.6,326.474,63.171,4.427,1.97,51.5941,,,,NaN,,,,0 / 0,4554,2014-12-14 13:26:06:976
1.54127,-5.81851,-4.68904,0.17642,-8.11604,5.50188,1.61594,2.86092,-10.23506,1.71016,-2.00619,0.46504,159.0,7.44,23.22,-9.48,307.804,55.853,-1.837,1.97,51.5941,,,,NaN,,,,0 / 0,4603,2014-12-14 13:26:07:025
2.15418,-4.57352,-2.01472,0.64015,-7.84759,5.84619,0.76495,3.19985,-8.06801,0.42865,-0.58193,0.448,321.0,7.62,21.06,-12.72,287.477,53.151,-6.249,1.97,51.5941,,,,NaN,,,,0 / 0,4654,2014-12-14 13:26:07:076
0.84216,-4.68126,1.21027,0.58209,-7.98496,5.66333,0.26007,3.3037,-4.45307,-0.21051,-0.25596,0.56411,321.0,5.88,20.16,-14.46,287.477,53.151,-6.249,1.97,51.5941,,,,NaN,,,,0 / 0,4703,2014-12-14 13:26:07:125
0.94272,-6.96772,3.48715,0.52822,-8.14792,5.43155,0.4145,1.18019,-1.94439,-0.96685,-0.47647,0.46078,321.0,5.64,20.34,-15.0,269.7,54.512,-5.868,1.97,50.8959,,,,NaN,,,,0 / 0,4754,2014-12-14 13:26:07:176
0.76555,-12.78803,12.86285,0.73382,-8.31671,5.14439,0.03172,-4.47132,7.71846,-0.63129,-1.33081,0.01976,321.0,6.42,19.56,-15.48,260.994,58.002,-8.118,1.97,50.8959,,,,NaN,,,,0 / 0,4804,2014-12-14 13:26:07:226
2.8916,-7.46572,5.34984,1.03789,-8.13595,5.37573,1.85371,0.67023,-0.02589,0.36473,-0.16115,0.33827,491.0,5.28,19.68,-14.34,260.994,58.002,-8.118,1.97,50.8959,,,,NaN,,,,0 / 0,4854,2014-12-14 13:26:07:276
5.48931,-7.66923,4.44244,1.13949,-8.09899,5.41105,5.25482,-4.6675,-0.71242,-0.1189,-0.28046,0.05704,491.0,4.14,19.74,-12.54,280.469,56.062,-10.928,1.97,50.8959,,,,NaN,,,,0 / 0,4904,2014-12-14 13:26:07:326
1.2803,-6.3189,-3.7984,1.14054,-8.4237,4.88986,1.34883,4.42718,-11.35061,-0.34047,-0.45942,0.00698,491.0,4.62,19.8,-12.6,277.722,57.656,-14.21,1.97,50.8959,,,,NaN,,,,0 / 0,4954,2014-12-14 13:26:07:376
-5.03321,-5.63655,-9.56364,1.02352,-8.76278,4.28218,-7.94097,-3.3022,-8.8563,-1.69336,0.26709,-0.0122,575.0,4.86,20.94,-11.4,286.27,60.166,-13.295,1.97,50.8959,,,,NaN,,,,0 / 0,5016,2014-12-14 13:26:07:438
-0.63267,-17.51418,2.82157,0.76854,-9.04065,3.72104,-1.03968,-6.92687,-1.04552,-1.59642,0.77735,0.13161,575.0,4.74,22.38,-10.98,286.27,60.166,-13.295,1.97,50.8959,,,,NaN,,,,0 / 0,5054,2014-12-14 13:26:07:476
1.21805,-8.25102,-1.16478,0.70838,-9.2687,3.12413,0.7419,1.67849,-5.21068,-1.48776,0.31183,0.06237,575.0,5.64,23.82,-11.16,262.808,70.934,-12.776,1.97,49.0184,,,,NaN,,,,0 / 0,5103,2014-12-14 13:26:07:525
-0.16819,-9.72824,0.76974,0.59137,-9.60075,1.90982,-0.60543,0.04549,-1.20084,-2.0449,1.86285,0.11883,603.0,6.72,25.74,-8.1,269.026,78.237,-17.205,1.97,49.0184,,,,NaN,,,,0 / 0,5154,2014-12-14 13:26:07:576
-0.39564,-8.1744,0.12809,0.35748,-9.76685,0.80819,-0.75313,1.59244,-0.6801,-1.69762,2.0056,0.08261,603.0,6.72,26.28,-6.12,269.026,78.237,-17.205,1.97,49.0184,,,,NaN,,,,0 / 0,5204,2014-12-14 13:26:07:626
-1.51134,-9.62529,1.65559,0.35659,-9.79513,0.31828,-1.86793,0.16984,1.33731,-1.52718,1.42822,-0.12831,603.0,6.6,26.28,-2.16,271.573,84.83,-23.861,1.97,49.0184,,,,NaN,,,,0 / 0,5253,2014-12-14 13:26:07:675
-1.46106,-9.36432,0.79128,0.29299,-9.79872,-0.2692,-1.75405,0.4344,1.06048,-1.09255,0.76776,-0.09103,603.0,6.42,26.46,1.02,45.014,87.675,-132.577,1.97,49.0184,,,,NaN,,,,0 / 0,5303,2014-12-14 13:26:07:725
0.54767,-8.93576,-1.17914,0.36646,-9.75697,-0.91533,0.14769,0.64284,-0.45625,-1.1341,0.71024,-0.15707,287.0,6.3,26.34,3.72,45.014,87.675,-132.577,1.97,49.0184,,,,NaN,,,,0 / 0,5354,2014-12-14 13:26:07:776
0.04968,-10.68831,-1.239,0.46657,-9.71732,-1.23631,0.55411,-0.86565,0.08589,-1.09362,0.94459,-0.21673,287.0,6.12,26.28,5.76,95.194,84.23,-158.181,1.97,52.0491,,,,NaN,,,,0 / 0,5404,2014-12-14 13:26:07:826
-1.05644,-11.29644,-0.14485,0.58104,-9.67123,-1.51673,-1.29856,-0.93179,0.36571,-1.04248,0.78694,-0.34137,287.0,5.64,26.52,7.8,95.194,84.23,-158.181,1.97,52.0491,,,,NaN,,,,0 / 0,5454,2014-12-14 13:26:07:876
-0.50817,-11.38742,-0.54468,0.7832,-9.58279,-1.93077,-1.29137,-1.80463,1.38609,-0.62703,0.79759,-0.2636,195.0,4.62,25.74,11.28,100.369,78.843,-158.935,1.97,52.0491,,,,NaN,,,,0 / 0,5503,2014-12-14 13:26:07:925
-5.80654,-14.9476,8.79749,0.82989,-9.63891,-1.60441,-6.63643,-5.30869,10.40191,-0.44593,1.04153,-0.38291,195.0,3.12,26.04,13.56,123.218,77.392,-155.667,1.97,52.0491,,,,NaN,,,,0 / 0,5554,2014-12-14 13:26:07:976
-2.39001,-14.22216,7.09282,0.6834,-9.73303,-0.98626,-3.07341,-4.48913,8.07908,2.21297,0.27774,0.2637,195.0,1.8,26.64,14.64,123.218,77.392,-155.667,1.97,52.0491,,,,NaN,,,,0 / 0,5604,2014-12-14 13:26:08:026
1.2803,-13.55896,-6.71693,0.43709,-9.77178,0.70195,1.08038,-3.82938,-8.22812,2.90326,0.55151,0.38408,195.0,2.1,27.18,15.3,89.12,86.536,-102.913,1.97,52.0491,,,,NaN,,,,0 / 0,5654,2014-12-14 13:26:08:076
0.11432,-14.33947,-2.06979,0.02439,-9.59431,2.03013,0.86984,-3.93711,-2.4144,2.27901,-0.91642,0.83469,195.0,1.98,29.46,15.9,1.409,81.706,-8.884,1.97,52.0491,,,,NaN,,,,0 / 0,5704,2014-12-14 13:26:08:126
1.42156,-11.53586,-2.0243,-0.123,-9.40921,2.76096,1.47483,-3.20838,-4.74022,2.82336,-0.65969,0.73242,195.0,3.12,33.9,11.7,350.435,73.631,2.551,1.97,52.0491,,,,NaN,,,,0 / 0,5754,2014-12-14 13:26:08:176
0.65062,-8.27257,-2.70186,-0.27473,-8.9172,4.07179,0.92536,0.64464,-6.77365,2.58261,-1.82935,0.70366,305.0,6.3,36.84,5.46,350.435,73.631,2.551,1.97,48.9672,,,,NaN,,,,0 / 0,5804,2014-12-14 13:26:08:226
0.12869,-7.39629,-3.27168,-0.11103,-8.52321,4.84901,0.23972,1.12692,-8.12068,2.2609,-2.38329,0.66105,305.0,9.9,37.74,0.06,331.736,60.357,1.312,1.97,48.9672,,,,NaN,,,,0 / 0,5854,2014-12-14 13:26:08:276
1.96504,-6.06751,-2.57257,0.31618,-8.04287,5.60213,1.64886,1.97537,-8.1747,1.022,-1.30311,0.45226,305.0,12.48,36.6,-7.26,322.267,55.099,-3.23,1.97,48.9672,,,,NaN,,,,0 / 0,5904,2014-12-14 13:26:08:326
1.58436,-5.75386,-0.72664,0.47285,-7.97957,5.68099,1.11151,2.22571,-6.40763,0.52878,-0.75663,0.48634,305.0,12.84,35.46,-11.88,322.267,55.099,-3.23,1.97,48.9672,,,,NaN,,,,0 / 0,5954,2014-12-14 13:26:08:376
1.06003,-6.37157,1.68911,0.48931,-8.07654,5.54078,0.57072,1.70497,-3.85167,-0.27656,-0.41468,0.37769,555.0,12.3,32.28,-20.58,295.401,54.542,-5.013,1.97,48.9672,,,,NaN,,,,0 / 0,6004,2014-12-14 13:26:08:426
1.14144,-6.79295,2.63721,0.4968,-8.18158,5.38396,0.64464,1.38864,-2.74675,-0.47257,-0.23785,0.26051,555.0,11.46,30.42,-22.98,262.484,56.541,-5.272,1.97,48.9672,,,,NaN,,,,0 / 0,6054,2014-12-14 13:26:08:476
1.30424,-10.18074,9.5804,0.72739,-8.32389,5.13377,0.57685,-1.85685,4.44663,-0.22543,-1.18274,0.02082,555.0,10.38,27.18,-24.84,247.537,58.081,-8.064,1.97,49.8866,,,,NaN,,,,0 / 0,6104,2014-12-14 13:26:08:526
1.23481,-10.1975,9.38168,0.89498,-8.23516,5.24899,0.33983,-1.96235,4.13269,0.40521,-0.89405,0.07728,779.0,10.86,26.88,-25.2,247.537,58.081,-8.064,1.97,49.8866,,,,NaN,,,,0 / 0,6153,2014-12-14 13:26:08:575
1.29945,-6.59184,4.14077,1.0132,-8.11844,5.40701,0.28626,1.5266,-1.26623,0.42652,-0.58619,0.23068,779.0,10.5,26.34,-25.38,255.176,55.878,-10.613,1.97,49.8866,,,,NaN,,,,0 / 0,6204,2014-12-14 13:26:08:626
6.29376,-19.51813,15.2379,1.25456,-8.31207,5.05042,5.0392,-11.20606,10.18748,-0.90293,-0.14943,-0.33284,779.0,8.76,25.08,-26.58,245.521,55.813,-11.221,1.97,49.8866,,,,NaN,,,,0 / 0,6256,2014-12-14 13:26:08:678
3.16693,-11.54304,1.62686,1.57134,-8.1539,5.21682,1.59559,-3.38914,-3.58996,1.38525,-1.06023,-0.09103,917.0,8.4,23.04,-28.02,245.521,55.813,-11.221,1.97,49.8866,,,,NaN,,,,0 / 0,6305,2014-12-14 13:26:08:727
0.96426,7.06948,-12.43429,1.52825,-7.91358,5.58657,-0.56398,14.98306,-18.02086,0.41054,1.16937,0.12415,917.0,7.98,22.38,-28.02,242.617,56.25,-16.763,1.97,49.8866,,,,NaN,,,,0 / 0,6353,2014-12-14 13:26:08:775
-0.57521,-18.53411,3.80319,1.29661,-8.11993,5.34386,-11.59706,-1.75196,-12.80539,-2.07579,2.15154,0.03148,917.0,7.62,21.72,-28.14,242.617,56.25,-16.763,1.97,49.8866,,,,NaN,,,,0 / 0,6403,2014-12-14 13:26:08:825
1.072,-7.39629,0.74101,0.76839,-8.74048,4.37989,-1.37472,1.45433,-5.55425,-0.89761,0.02314,0.2701,917.0,6.3,19.32,-29.28,218.333,60.429,-10.286,1.97,50.9975,,,,NaN,,,,0 / 0,6454,2014-12-14 13:26:08:876
1.1989,-8.28693,1.47603,0.73457,-8.87246,4.11219,0.69177,1.27746,-3.15571,-0.87737,0.14032,0.02935,903.0,7.2,19.5,-29.16,216.515,64.788,-10.128,1.97,50.9975,,,,NaN,,,,0 / 0,6504,2014-12-14 13:26:08:926
0.18615,-10.41538,2.57975,0.66693,-9.18999,3.35712,-0.48079,-1.22538,-0.77737,-0.82197,1.10545,-4.8E-4,903.0,10.68,20.82,-26.52,226.038,69.573,-11.236,1.97,50.9975,,,,NaN,,,,0 / 0,6554,2014-12-14 13:26:08:976
-0.4555,-8.41622,2.9724,0.39789,-9.34008,2.96253,-0.33863,0.09547,1.25247,-0.48215,0.49186,-0.10807,903.0,10.38,22.08,-25.68,226.038,69.573,-11.236,1.97,50.9975,,,,NaN,,,,0 / 0,6604,2014-12-14 13:26:09:026
0.01377,-10.16398,3.97797,0.37888,-9.35684,2.91165,-0.63566,-1.18543,1.65769,-0.16897,0.35657,-0.10488,825.0,10.74,23.22,-24.24,223.124,72.254,-7.649,1.97,50.9975,,,,NaN,,,,0 / 0,6654,2014-12-14 13:26:09:076
0.59795,-9.01237,0.84635,0.32007,-9.35714,2.91793,0.15098,0.3711,-2.19369,-0.0177,0.83807,-0.10914,825.0,11.16,23.22,-22.08,225.108,72.497,-6.845,1.97,50.9975,,,,NaN,,,,0 / 0,6704,2014-12-14 13:26:09:126
-2.37804,-9.52713,1.80643,0.20036,-9.38377,2.84207,-2.55446,-0.01885,-1.50012,-0.04966,0.70278,-0.03031,825.0,11.76,23.58,-22.14,225.64,73.111,-4.033,1.97,50.9975,,,,NaN,,,,0 / 0,6754,2014-12-14 13:26:09:176
-1.29826,-10.74817,1.96444,0.03023,-9.36597,2.90686,-1.32848,-1.3822,-0.94242,0.41906,-0.74492,-0.05055,699.0,13.08,24.66,-21.96,224.48,72.757,-0.596,1.97,45.2068,,,,NaN,,,,0 / 0,6804,2014-12-14 13:26:09:226
2.02011,-8.28454,0.96367,0.20111,-9.38826,2.8268,1.50491,0.24511,-0.49126,-0.19986,-0.13239,-0.03031,699.0,13.62,24.36,-21.6,224.48,72.757,-0.596,1.97,45.2068,,,,NaN,,,,0 / 0,6854,2014-12-14 13:26:09:276
1.00018,-11.19349,5.09366,0.2695,-9.39185,2.8093,0.50727,-1.7548,2.12545,0.03876,-0.1015,-0.13257,699.0,13.68,24.24,-20.94,231.789,73.203,-4.069,1.97,45.2068,,,,NaN,,,,0 / 0,6903,2014-12-14 13:26:09:325
0.01616,-8.06427,2.4361,0.31095,-9.3727,2.86855,-0.29479,1.30843,-0.43245,-0.05392,0.17654,0.00378,699.0,13.08,24.0,-21.12,232.739,72.889,-6.187,1.97,45.2068,,,,NaN,,,,0 / 0,6954,2014-12-14 13:26:09:376
-0.92715,-10.18314,3.57335,0.23613,-9.36836,2.88935,-1.16328,-0.81478,0.68399,0.16979,0.19145,-0.00687,751.0,12.24,24.0,-21.3,232.739,72.889,-6.187,1.97,45.2068,,,,NaN,,,,0 / 0,7003,2014-12-14 13:26:09:425
0.97624,-9.18715,4.26288,0.27848,-9.3308,3.00502,0.69776,0.14365,1.25785,0.18896,0.06042,-0.05268,751.0,12.24,23.82,-21.72,226.944,72.566,-4.58,1.97,45.2068,,,,NaN,,,,0 / 0,7053,2014-12-14 13:26:09:475
0.72006,-8.53832,2.4792,0.29913,-9.30462,3.08328,0.42093,0.76629,-0.60409,0.20494,0.20637,-0.04203,751.0,12.12,23.64,-21.54,228.417,72.077,-5.294,1.97,45.2068,,,,NaN,,,,0 / 0,7104,2014-12-14 13:26:09:526
-0.35015,-9.75458,4.56933,0.22745,-9.30058,3.10139,-0.5776,-0.454,1.46794,0.04622,-0.02906,-0.00474,713.0,12.06,24.12,-21.54,227.673,71.512,-4.194,1.97,47.8401,,,,NaN,,,,0 / 0,7154,2014-12-14 13:26:09:576
0.43036,-8.70592,2.8072,0.26486,-9.24566,3.25851,0.1655,0.53974,-0.45131,0.26566,-0.24744,-0.02498,713.0,12.24,23.82,-21.78,227.673,71.512,-4.194,1.97,47.8401,,,,NaN,,,,0 / 0,7204,2014-12-14 13:26:09:626
0.47585,-8.88788,2.65876,0.27429,-9.23533,3.28694,0.12929,0.25483,-0.4941,0.16446,-0.09297,0.07728,713.0,12.24,23.76,-22.38,229.456,70.526,-4.647,1.97,47.8401,,,,NaN,,,,0 / 0,7254,2014-12-14 13:26:09:676
-0.24241,-9.34756,2.46722,0.23822,-9.21438,3.34814,0.11717,-0.40372,-0.34237,0.1634,0.05084,0.0645,713.0,11.94,23.94,-22.38,229.816,70.142,-4.552,1.97,47.8401,,,,NaN,,,,0 / 0,7304,2014-12-14 13:26:09:726
-0.28072,-9.32841,2.83593,0.22535,-9.21304,3.35263,-0.50607,-0.11537,-0.5167,0.11759,-0.0461,0.08794,713.0,11.34,23.22,-21.96,225.942,69.962,-3.845,1.97,47.8401,,,,NaN,,,,0 / 0,7353,2014-12-14 13:26:09:775
0.40402,-9.39305,3.23337,0.21727,-9.21409,3.35024,0.18675,-0.17897,-0.11687,0.03237,-0.11747,0.02615,721.0,11.46,22.86,-21.9,225.74,69.98,-3.711,1.97,47.8401,,,,NaN,,,,0 / 0,7404,2014-12-14 13:26:09:826
0.19812,-9.26616,3.52067,0.21578,-9.21019,3.36131,-0.01766,-0.05596,0.15936,0.03663,-0.01308,0.04959,721.0,10.98,22.62,-22.44,225.771,69.912,-3.673,1.97,47.8401,,,,NaN,,,,0 / 0,7453,2014-12-14 13:26:09:875
0.87329,-8.66761,3.03226,0.21682,-9.2072,3.36939,0.66933,0.32217,-0.20381,-0.02409,-0.02267,0.0123,721.0,11.28,23.04,-23.22,225.771,69.912,-3.673,1.97,47.8401,,,,NaN,,,,0 / 0,7504,2014-12-14 13:26:09:926
0.07841,-9.24461,3.34829,0.23239,-9.21019,3.35981,-0.15398,-0.03442,-0.01152,0.01426,-0.01095,-0.03137,721.0,11.76,23.52,-23.94,224.47,69.875,-3.812,1.97,53.8675,,,,NaN,,,,0 / 0,7553,2014-12-14 13:26:09:975
0.20051,-8.80168,3.43688,0.23508,-9.20271,3.38016,-0.03457,0.40103,0.05671,0.0313,0.03912,-0.02179,721.0,11.76,23.4,-23.82,224.784,69.787,-3.978,1.97,53.8675,,,,NaN,,,,0 / 0,7604,2014-12-14 13:26:10:026
0.19094,-8.97167,3.28125,0.23912,-9.19643,3.39692,-0.04818,0.22476,-0.11567,0.02491,0.0274,-0.01433,703.0,11.94,23.34,-23.82,224.784,69.787,-3.978,1.97,53.8675,,,,NaN,,,,0 / 0,7653,2014-12-14 13:26:10:075
-0.02693,-9.10335,2.92691,0.23538,-9.19942,3.38914,-0.26231,0.09607,-0.46223,-0.00492,0.01675,0.00591,703.0,11.46,23.34,-23.22,224.837,69.731,-3.973,1.97,53.8675,,,,NaN,,,,0 / 0,7703,2014-12-14 13:26:10:125
0.30825,-9.14166,3.10408,0.227,-9.21124,3.35742,0.08125,0.06958,-0.25334,-0.01557,0.00503,0.00591,703.0,11.1,22.98,-22.8,224.014,69.932,-3.868,1.97,53.8675,,,,NaN,,,,0 / 0,7754,2014-12-14 13:26:10:176
0.55246,-9.02913,2.98916,0.23343,-9.21738,3.34036,0.31903,0.18824,-0.3512,-0.04433,0.00184,0.00165,703.0,10.98,22.74,-23.4,224.014,69.932,-3.868,1.97,53.8675,,,,NaN,,,,0 / 0,7804,2014-12-14 13:26:10:226
0.07123,-8.93576,3.29083,0.24271,-9.22845,3.30879,-0.17148,0.29269,-0.01796,-0.02942,-0.01414,5.8E-4,695.0,11.64,23.52,-23.46,222.375,70.139,-4.183,1.97,53.8675,,,,NaN,,,,0 / 0,7853,2014-12-14 13:26:10:275
0.19333,-9.22306,3.25252,0.23523,-9.22606,3.31582,-0.0419,0.00299,-0.0633,0.04196,0.01036,0.00911,695.0,11.52,23.52,-23.4,227.2,70.226,-4.195,1.97,46.1739,,,,NaN,,,,0 / 0,7904,2014-12-14 13:26:10:326
0.16221,-8.89506,2.79762,0.23314,-9.22456,3.32031,-0.07093,0.3295,-0.52268,0.03983,-0.00349,0.01337,695.0,11.46,23.82,-23.4,224.712,70.159,-4.016,1.97,46.1739,,,,NaN,,,,0 / 0,7953,2014-12-14 13:26:10:375
0.23643,-9.32123,3.06578,0.2255,-9.23174,3.30101,-0.01526,-0.0413,-0.18615,0.00467,-0.03758,0.00911,695.0,11.28,23.82,-23.16,224.712,70.159,-4.016,1.97,46.1739,,,,NaN,,,,0 / 0,8004,2014-12-14 13:26:10:426
0.13348,-9.14405,3.15676,0.22012,-9.23399,3.29472,-0.02918,0.11866,-0.15951,0.01639,-3.0E-4,0.00804,695.0,10.14,23.04,-23.04,223.676,70.282,-3.908,1.97,46.1739,,,,NaN,,,,0 / 0,8053,2014-12-14 13:26:10:475
0.09756,-9.18476,3.10648,0.21428,-9.23638,3.28859,-0.12181,0.18166,-0.33818,0.01106,0.01675,0.0123,695.0,9.96,22.38,-23.16,220.3,70.323,-3.822,1.97,46.1739,,,,NaN,,,,0 / 0,8104,2014-12-14 13:26:10:526
0.23164,-9.06505,3.24295,0.20411,-9.23818,3.2841,-0.03217,0.27339,-0.01571,0.00893,-0.0248,0.00804,695.0,10.56,22.2,-22.74,222.369,70.395,-3.556,1.97,46.1739,,,,NaN,,,,0 / 0,8154,2014-12-14 13:26:10:576
0.18854,-9.00759,3.35787,0.20366,-9.23474,3.29367,0.07347,0.15054,0.14081,0.01959,-0.01095,0.01124,681.0,10.86,22.62,-22.5,222.369,70.395,-3.556,1.97,41.2204,,,,NaN,,,,0 / 0,8203,2014-12-14 13:26:10:625
0.29868,-9.17039,2.96761,0.19333,-9.23309,3.29906,0.0838,0.03876,-0.31708,0.0068,0.02314,0.01656,681.0,10.86,22.8,-22.92,223.122,70.281,-3.492,1.97,41.2204,,,,NaN,,,,0 / 0,8253,2014-12-14 13:26:10:675
0.25319,-9.12969,3.14957,0.19528,-9.23563,3.29203,0.04594,0.2065,-0.12091,0.01639,0.03486,5.8E-4,681.0,11.34,23.34,-23.22,222.92,70.358,-3.404,1.97,41.2204,,,,NaN,,,,0 / 0,8304,2014-12-14 13:26:10:726
0.16939,-9.13927,3.219,0.18031,-9.23503,3.29442,-0.05881,0.2466,-0.25498,0.01,0.05084,0.01124,681.0,11.16,22.8,-22.92,222.92,70.358,-3.404,1.97,41.2204,,,,NaN,,,,0 / 0,8354,2014-12-14 13:26:10:776
0.17178,-9.168,3.36266,0.17433,-9.23593,3.29218,-0.08634,0.123,-0.05162,0.00148,0.03486,0.00378,667.0,11.16,22.44,-22.56,221.865,70.34,-3.133,1.97,41.2204,,,,NaN,,,,0 / 0,8404,2014-12-14 13:26:10:826
0.24122,-9.09378,3.35787,0.17014,-9.23339,3.29936,0.05911,0.13482,0.04175,0.03237,0.00184,0.01124,667.0,11.46,22.62,-22.74,221.865,70.34,-3.133,1.97,41.2204,,,,NaN,,,,0 / 0,8454,2014-12-14 13:26:10:876
0.01616,-9.09617,3.38899,0.15682,-9.22231,3.33093,-0.14066,0.12614,0.05806,0.04515,0.02314,0.01656,667.0,11.1,23.04,-23.16,220.557,70.201,-2.874,1.97,41.2204,,,,NaN,,,,0 / 0,8503,2014-12-14 13:26:10:925
0.02813,-9.16321,3.12563,0.13153,-9.21304,3.35772,-0.1034,0.04983,-0.23209,0.06326,-0.02267,0.02722,657.0,10.38,22.26,-22.8,218.758,70.005,-2.45,1.97,35.3047,,,,NaN,,,,0 / 0,8554,2014-12-14 13:26:10:976
0.0832,-9.14645,3.3459,0.12225,-9.209,3.36894,-0.03906,0.06255,-0.02304,0.07178,-0.02586,0.03467,657.0,10.74,22.2,-22.8,218.758,70.005,-2.45,1.97,35.3047,,,,NaN,,,,0 / 0,8603,2014-12-14 13:26:11:025
0.19812,-8.99561,3.35069,0.11806,-9.20226,3.3875,0.03876,0.16834,0.00688,0.07391,-0.02054,0.03041,657.0,11.16,22.62,-23.16,221.638,69.894,-2.078,1.97,35.3047,,,,NaN,,,,0 / 0,8654,2014-12-14 13:26:11:076
-0.31663,-9.03632,3.49913,0.08918,-9.17638,3.45783,-0.34836,0.18076,0.0844,0.12185,-0.08232,0.0645,647.0,11.46,23.52,-23.16,222.194,69.346,-1.477,1.97,35.3047,,,,NaN,,,,0 / 0,8704,2014-12-14 13:26:11:126
-0.0413,-9.1249,3.52307,0.05357,-9.14944,3.5292,-0.01347,0.01736,0.04893,0.13357,-0.09084,0.06876,647.0,11.64,23.16,-23.22,222.194,69.346,-1.477,1.97,35.3047,,,,NaN,,,,0 / 0,8754,2014-12-14 13:26:11:176
0.42318,-9.15842,3.48955,0.06659,-9.13493,3.56646,0.64389,0.12016,-0.27084,0.16446,-0.06634,0.00378,647.0,11.46,22.8,-23.22,221.07,68.905,-0.87,1.97,35.3047,,,,NaN,,,,0 / 0,8804,2014-12-14 13:26:11:226
0.19333,-8.95491,3.42251,0.09562,-9.09797,3.65894,0.0211,0.18375,-0.13587,0.19003,-0.00562,-4.8E-4,647.0,11.1,22.62,-24.18,220.399,68.425,-1.391,1.97,35.3047,,,,NaN,,,,0 / 0,8854,2014-12-14 13:26:11:276
-0.27354,-8.96449,3.48715,0.06883,-9.06594,3.7384,-0.32756,0.10669,-0.20276,0.157,7.7E-4,0.01976,631.0,10.98,22.5,-24.6,219.148,67.867,-1.369,1.97,29.0877,,,,NaN,,,,0 / 0,8904,2014-12-14 13:26:11:326
0.0832,-9.0028,3.54701,0.05432,-9.05248,3.77102,0.02933,0.04803,-0.2282,0.13144,0.00397,0.02509,631.0,10.68,22.26,-24.48,219.148,67.867,-1.369,1.97,29.0877,,,,NaN,,,,0 / 0,8954,2014-12-14 13:26:11:376
0.43754,-8.94055,3.54462,0.06584,-9.03721,3.80723,0.38038,0.10175,-0.25079,0.08457,0.01994,5.8E-4,631.0,11.52,21.12,-24.3,219.16,67.383,-0.825,1.97,29.0877,,,,NaN,,,,0 / 0,9004,2014-12-14 13:26:11:426
0.07841,-8.8783,3.81995,0.07302,-9.01746,3.85392,0.00494,0.1435,-0.02364,0.08563,0.01675,-0.00687,591.0,11.28,21.66,-24.06,220.73,67.001,-1.085,1.97,29.0877,,,,NaN,,,,0 / 0,9054,2014-12-14 13:26:11:476
0.0425,-8.81365,3.65714,0.07213,-9.01417,3.86155,-0.02963,0.20051,-0.2044,0.04835,0.01675,-0.00261,591.0,10.68,21.84,-24.12,220.923,66.807,-1.07,1.97,29.0877,,,,NaN,,,,0 / 0,9104,2014-12-14 13:26:11:526
0.22206,-8.89506,3.6332,0.06584,-9.00729,3.87756,0.15622,0.11223,-0.24436,0.01639,-0.00882,-0.00155,591.0,10.68,21.42,-24.66,220.923,66.807,-1.07,1.97,29.0877,,,,NaN,,,,0 / 0,9154,2014-12-14 13:26:11:576
0.15981,-8.90942,3.82234,0.08095,-9.00444,3.88399,0.07886,0.09502,-0.06165,0.02917,0.02314,-0.01539,583.0,11.46,21.66,-25.02,219.304,66.691,-1.149,1.97,29.0877,,,,NaN,,,,0 / 0,9204,2014-12-14 13:26:11:626
-0.23044,-8.70831,3.98754,0.07736,-8.99965,3.89492,-0.3078,0.29134,0.09263,0.03024,-0.01308,0.00698,583.0,11.64,21.84,-24.96,219.304,66.691,-1.149,1.97,39.6567,,,,NaN,,,,0 / 0,9254,2014-12-14 13:26:11:676
0.06165,-8.8352,3.76967,0.06809,-8.99157,3.91377,-0.00643,0.15637,-0.1441,0.01852,-0.04397,0.00804,583.0,11.04,21.6,-24.84,220.991,66.594,-1.138,1.97,39.6567,,,,NaN,,,,0 / 0,9304,2014-12-14 13:26:11:726
0.15263,-8.81126,3.75291,0.08051,-8.98634,3.92559,0.07213,0.17508,-0.17268,0.02065,-0.04397,0.00911,583.0,10.5,21.66,-24.84,219.474,66.437,-1.08,1.97,39.6567,,,,NaN,,,,0 / 0,9354,2014-12-14 13:26:11:776
-0.17298,-8.92618,3.87502,0.08006,-8.98843,3.9208,-0.25304,0.06225,-0.04579,0.01746,-0.02586,0.00378,583.0,10.2,21.3,-24.78,219.474,66.437,-1.08,1.97,39.6567,,,,NaN,,,,0 / 0,9404,2014-12-14 13:26:11:826
0.03531,-8.91182,3.93248,0.06973,-8.98933,3.91886,-0.03442,0.07751,0.01362,0.00361,-0.03012,0.02082,595.0,10.92,20.94,-24.66,218.033,66.429,-1.17,1.97,39.6567,,,,NaN,,,,0 / 0,9454,2014-12-14 13:26:11:876
0.15263,-8.85436,3.98036,0.07302,-8.98185,3.93607,0.03891,0.09876,-0.15203,0.02491,-0.05569,0.02615,595.0,10.68,21.24,-24.36,220.359,66.395,-0.954,1.97,39.6567,,,,NaN,,,,0 / 0,9504,2014-12-14 13:26:11:926
0.0832,-8.86393,3.73136,0.07617,-8.98155,3.93667,0.00703,0.11762,-0.2053,0.01852,-0.04184,0.00911,595.0,10.68,21.12,-24.42,220.359,66.395,-0.954,1.97,35.0125,,,,NaN,,,,0 / 0,9554,2014-12-14 13:26:11:976
0.0808,-8.90942,3.82713,0.08305,-8.982,3.93562,-0.12914,0.09652,-0.13961,0.01213,-0.04184,0.00804,595.0,11.22,21.3,-24.42,218.889,66.335,-1.157,1.97,35.0125,,,,NaN,,,,0 / 0,9604,2014-12-14 13:26:12:026
0.23882,-8.90942,3.98994,0.07946,-8.9805,3.93906,0.21682,0.20276,-0.13108,-0.00278,-0.03225,0.00271,595.0,10.5,21.24,-24.42,220.785,66.334,-1.209,1.97,35.0125,,,,NaN,,,,0 / 0,9653,2014-12-14 13:26:12:075
0.21249,-8.74901,3.717,0.08978,-8.98185,3.93562,0.07242,0.2472,-0.14919,-0.01876,0.01781,0.00591,607.0,10.08,21.06,-24.6,216.555,66.333,-1.307,1.97,35.0125,,,,NaN,,,,0 / 0,9704,2014-12-14 13:26:12:126
-0.21608,-9.23982,4.03543,0.11013,-9.01237,3.86469,-0.32621,-0.22745,0.17074,-0.14127,-0.24105,-0.02818,607.0,10.08,21.06,-24.66,216.588,66.781,-1.632,1.97,35.0125,,,,NaN,,,,0 / 0,9754,2014-12-14 13:26:12:176
0.5381,-9.0842,3.95402,0.14799,-9.02075,3.84374,0.39011,-0.06345,0.11028,-0.04113,-0.28472,-0.01539,607.0,10.74,21.48,-25.02,216.588,66.781,-1.632,1.97,35.0125,,,,NaN,,,,0 / 0,9803,2014-12-14 13:26:12:225
0.2053,-8.72028,4.05458,0.1863,-9.02375,3.83521,0.019,0.30347,0.21937,-0.06031,-0.07273,-0.009,607.0,10.56,21.42,-24.42,221.571,66.906,-2.205,1.97,35.0125,,,,NaN,,,,0 / 0,9854,2014-12-14 13:26:12:276
0.57162,-8.60297,2.95564,0.07407,-9.00504,3.8825,0.49755,0.40208,-0.92686,0.05474,0.282,0.05172,641.0,9.54,21.06,-25.26,217.726,66.895,-2.509,1.97,35.5802,,,,NaN,,,,0 / 0,9904,2014-12-14 13:26:12:326
0.09996,-8.9597,3.69784,0.09652,-8.99307,3.90973,0.00344,0.03337,-0.21189,0.11652,-0.16435,-0.02818,641.0,9.18,21.24,-25.2,217.726,66.895,-2.509,1.97,35.5802,,,,NaN,,,,0 / 0,9954,2014-12-14 13:26:12:376
-0.07721,-8.9597,3.7984,0.13841,-8.99546,3.903,0.28461,0.14425,-0.38008,0.00787,0.01249,-0.02711,621.0,9.12,20.88,-25.2,214.613,66.471,-1.923,1.97,35.5802,,,,NaN,,,,0 / 0,10025,2014-12-14 13:26:12:447
-0.14904,-8.85914,3.92529,0.12674,-8.99561,3.903,-0.31828,0.00973,-0.08006,-0.00278,0.02527,-0.01539,621.0,9.72,20.76,-24.78,214.613,66.471,-1.923,1.97,35.5802,,,,NaN,,,,0 / 0,10053,2014-12-14 13:26:12:475
0.29628,-8.82563,4.03782,0.1233,-8.99546,3.9036,0.16595,0.23074,0.11926,-0.00598,-0.00775,-0.00368,621.0,10.74,21.06,-25.02,217.154,66.534,-1.86,1.97,35.5802,,,,NaN,,,,0 / 0,10104,2014-12-14 13:26:12:526
0.2077,-8.89506,3.93726,0.13258,-8.99292,3.90928,0.12061,0.10744,-0.18031,0.00361,-0.01414,-0.00155,621.0,10.56,21.06,-25.44,219.744,66.496,-1.879,1.97,35.5802,,,,NaN,,,,0 / 0,10154,2014-12-14 13:26:12:576
0.18136,-8.95491,3.79361,0.13617,-8.99487,3.90464,0.04519,0.03995,-0.11103,0.00574,-0.00456,-0.02072,615.0,10.56,21.06,-25.26,219.744,66.496,-1.879,1.97,35.5802,,,,NaN,,,,0 / 0,10204,2014-12-14 13:26:12:626
0.11432,-8.81844,3.8822,0.13467,-8.99531,3.90345,-0.02035,0.17687,-0.02125,0.00254,-0.00775,-0.00687,615.0,10.08,20.94,-24.84,217.394,66.533,-2.027,1.97,36.3291,,,,NaN,,,,0 / 0,10253,2014-12-14 13:26:12:675
0.21727,-8.90703,3.82234,0.13647,-8.99576,3.9024,0.0808,0.08874,-0.08006,4.1E-4,0.01142,-0.0122,615.0,9.72,20.7,-25.02,217.325,66.529,-1.976,1.97,36.3291,,,,NaN,,,,0 / 0,10304,2014-12-14 13:26:12:726
0.16221,-8.89745,3.67869,0.13512,-8.99831,3.89671,0.13243,0.07931,-0.20126,0.00361,-3.0E-4,-0.01007,615.0,9.96,21.06,-25.26,217.297,66.572,-1.986,1.97,36.3291,,,,NaN,,,,0 / 0,10353,2014-12-14 13:26:12:775
0.12151,-8.86393,3.81516,0.13841,-8.99936,3.89402,0.05971,0.05402,-0.12195,0.00254,0.03379,-0.00687,615.0,9.9,21.24,-25.26,217.297,66.572,-1.986,1.97,36.3291,,,,NaN,,,,0 / 0,10403,2014-12-14 13:26:12:825
0.25798,-8.85436,3.66433,0.13437,-8.99876,3.89552,0.00389,0.05581,-0.04205,0.01106,0.00716,5.8E-4,619.0,9.54,20.94,-24.78,217.315,66.588,-2.009,1.97,36.3291,,,,NaN,,,,0 / 0,10453,2014-12-14 13:26:12:875
0.29868,-8.89266,3.78882,0.1444,-9.0013,3.88938,0.11477,0.07542,-0.07332,0.00361,-0.00136,-0.00794,619.0,9.9,20.76,-24.9,217.347,66.602,-2.041,1.97,36.3291,,,,NaN,,,,0 / 0,10503,2014-12-14 13:26:12:925
0.22206,-8.89266,3.70024,0.14934,-9.0028,3.88579,0.07168,0.11073,-0.18405,0.01213,0.0061,-0.009,619.0,9.9,20.88,-24.9,217.347,66.602,-2.041,1.97,36.3291,,,,NaN,,,,0 / 0,10554,2014-12-14 13:26:12:976
0.15981,-8.84717,3.87502,0.14964,-9.00369,3.88354,0.01003,0.15682,-0.00793,0.0068,0.02314,-0.00261,619.0,9.6,20.88,-24.48,217.539,66.639,-2.201,1.97,35.1315,,,,NaN,,,,0 / 0,10604,2014-12-14 13:26:13:026
0.16939,-8.86633,3.94924,0.15083,-9.00145,3.88878,0.01856,0.15293,-0.00643,0.02172,7.7E-4,0.00485,619.0,9.96,20.88,-24.48,219.31,66.648,-2.217,1.97,35.1315,,,,NaN,,,,0 / 0,10653,2014-12-14 13:26:13:075
0.21488,-8.82563,3.82713,0.14739,-8.99741,3.89806,0.04145,0.19453,-0.05447,0.02491,0.01355,0.00911,619.0,9.6,20.82,-24.54,217.587,66.619,-2.221,1.97,35.1315,,,,NaN,,,,0 / 0,10703,2014-12-14 13:26:13:125
0.2053,-8.88788,3.67869,0.14964,-8.99277,3.90883,0.01975,0.07377,-0.18705,0.01959,0.0061,0.00591,619.0,10.14,20.82,-24.84,217.671,66.492,-2.192,1.97,35.1315,,,,NaN,,,,0 / 0,10753,2014-12-14 13:26:13:175
0.26276,-8.88548,3.81037,0.15158,-8.98948,3.91632,0.00584,0.09442,-0.07961,0.01959,0.00929,0.00378,619.0,9.9,21.3,-25.08,217.671,66.492,-2.192,1.97,35.1315,,,,NaN,,,,0 / 0,10804,2014-12-14 13:26:13:226
0.2077,-8.93815,3.89656,0.15293,-8.98679,3.9223,0.04729,0.20605,-0.11567,0.02704,-0.00136,0.00378,619.0,9.54,21.48,-24.66,217.754,66.444,-2.217,1.97,35.1315,,,,NaN,,,,0 / 0,10854,2014-12-14 13:26:13:276
-0.33579,-8.69634,3.59968,0.14829,-8.98319,3.93098,-0.48408,0.28686,-0.3313,0.03343,0.07427,0.01124,619.0,9.18,20.76,-24.36,216.794,66.351,-2.16,1.97,35.1315,,,,NaN,,,,0 / 0,10903,2014-12-14 13:26:13:325
0.23882,-8.99801,3.94684,0.12794,-8.97691,3.94579,0.11088,-0.0211,0.00105,0.03556,0.04977,0.01017,619.0,9.48,20.34,-24.78,216.794,66.351,-2.16,1.97,24.5384,,,,NaN,,,,0 / 0,10954,2014-12-14 13:26:13:376
0.45669,-8.8376,4.20542,0.10744,-8.96554,3.97213,0.34925,0.12794,0.23329,0.0377,0.03805,0.01443,619.0,9.18,20.1,-24.66,213.738,66.218,-1.672,1.97,24.5384,,,,NaN,,,,0 / 0,11004,2014-12-14 13:26:13:426
0.14305,-8.95012,4.41132,0.13527,-8.9588,3.9865,0.00778,0.00868,0.42482,-0.01663,-0.16754,-0.01966,619.0,9.9,21.06,-25.2,217.807,66.0,-1.943,1.97,24.5384,,,,NaN,,,,0 / 0,11053,2014-12-14 13:26:13:475
-0.26157,-8.43776,3.47279,0.13976,-8.96045,3.98261,-0.40133,0.52268,-0.50982,-0.00811,-0.08658,-0.01007,619.0,10.26,20.88,-24.84,217.807,66.0,-1.943,1.97,24.5384,,,,NaN,,,,0 / 0,11104,2014-12-14 13:26:13:526
0.42318,-8.79929,3.64038,0.14216,-8.96374,3.97527,-0.13078,-0.03427,0.02903,4.1E-4,-0.0216,-0.00474,619.0,10.32,21.06,-25.08,217.887,66.07,-2.048,1.97,24.5384,,,,NaN,,,,0 / 0,11154,2014-12-14 13:26:13:576
0.42078,-8.7969,3.65954,0.14919,-8.96464,3.97288,0.27159,0.16774,-0.31334,0.01106,-0.0184,0.00591,619.0,10.5,20.76,-25.26,220.415,66.07,-2.048,1.97,24.5384,,,,NaN,,,,0 / 0,11203,2014-12-14 13:26:13:625
0.06165,-8.7945,4.07852,0.1429,-8.96853,3.96435,-0.019,0.10699,0.10699,4.1E-4,-0.00669,-4.8E-4,619.0,10.38,21.06,-25.38,218.117,66.14,-2.257,1.97,24.5384,,,,NaN,,,,0 / 0,11254,2014-12-14 13:26:13:676
0.13108,-8.7131,3.88459,0.14395,-8.96434,3.97378,-0.01287,0.25124,-0.08918,-6.5E-4,-0.01414,-0.00155,629.0,11.34,21.3,-25.62,218.678,66.133,-2.064,1.97,14.4742,,,,NaN,,,,0 / 0,11304,2014-12-14 13:26:13:726
0.16221,-8.73465,3.90135,0.1432,-8.96419,3.97423,-0.06644,0.03397,-0.02873,0.0068,0.00184,0.01976,629.0,12.06,21.12,-25.44,222.792,66.076,-2.064,1.97,14.4742,,,,NaN,,,,0 / 0,11353,2014-12-14 13:26:13:775
0.30347,-8.88069,3.82234,0.14216,-8.96404,3.97437,0.09876,0.04833,-0.18929,0.00787,-0.00243,0.01124,629.0,11.16,21.12,-25.5,220.41,66.075,-2.048,1.97,14.4742,,,,NaN,,,,0 / 0,11404,2014-12-14 13:26:13:826
0.01137,-8.86393,3.96121,0.1447,-8.96389,3.97467,-0.13333,0.09996,-0.01347,0.01106,7.7E-4,0.00698,629.0,10.92,21.06,-25.02,220.41,66.075,-2.048,1.97,14.4742,,,,NaN,,,,0 / 0,11454,2014-12-14 13:26:13:876
0.0018,-8.95252,3.93487,0.14111,-8.96389,3.97482,-0.13931,0.01137,-0.03995,0.00574,-0.02054,0.01976,629.0,11.28,21.06,-24.96,220.464,66.073,-2.085,1.97,14.4742,,,,NaN,,,,0 / 0,11503,2014-12-14 13:26:13:925
0.1646,-8.74901,3.81037,0.12839,-8.96195,3.97976,-0.01167,0.05252,0.03172,0.01106,-0.0216,0.02402,629.0,11.7,20.7,-25.56,220.834,66.063,-1.888,1.97,14.4742,,,,NaN,,,,0 / 0,11553,2014-12-14 13:26:13:975
0.05926,-8.80647,3.73376,0.1257,-8.96045,3.9832,-0.01137,0.10849,-0.15607,0.01319,-0.01521,0.02402,635.0,10.74,20.94,-25.44,220.125,66.023,-1.807,1.97,14.4742,,,,NaN,,,,0 / 0,11603,2014-12-14 13:26:14:025
0.21009,-8.86393,3.85107,0.1224,-8.96254,3.97842,0.08769,0.09861,-0.12734,-0.00172,-0.00669,0.01337,635.0,10.74,21.06,-25.8,220.125,66.023,-1.807,1.97,6.9472,,,,NaN,,,,0 / 0,11653,2014-12-14 13:26:14:075
-0.00539,-8.78253,3.8391,0.123,-8.96374,3.97587,-0.12839,0.18121,-0.13677,0.00467,0.00823,0.01443,635.0,11.1,20.7,-25.62,218.344,66.065,-1.78,1.97,6.9472,,,,NaN,,,,0 / 0,11704,2014-12-14 13:26:14:126
0.23403,-8.85436,3.92051,0.12046,-8.96389,3.97557,0.16864,0.09517,-0.0814,0.00148,-0.01201,0.01017,635.0,10.56,20.16,-25.44,219.08,66.069,-1.668,1.97,6.9472,,,,NaN,,,,0 / 0,11754,2014-12-14 13:26:14:176
0.26995,-8.90703,4.01149,0.1251,-8.96374,3.97587,0.11372,0.08544,0.03322,0.00467,0.0061,-0.00261,635.0,10.26,20.1,-25.26,219.08,66.069,-1.668,1.97,6.9472,,,,NaN,,,,0 / 0,11803,2014-12-14 13:26:14:225
-0.06285,-8.85914,3.85107,0.11896,-8.96195,3.97991,-0.18181,0.1028,-0.12884,0.01639,0.00823,0.00485,635.0,10.26,20.46,-25.26,219.286,66.06,-1.81,1.97,6.9472,,,,NaN,,,,0 / 0,11854,2014-12-14 13:26:14:276
0.21488,-8.84478,3.98515,0.11911,-8.96015,3.98395,0.05956,0.14844,-0.04729,0.01639,0.00823,0.00165,635.0,9.9,20.34,-24.78,216.592,66.052,-1.682,1.97,6.9472,,,,NaN,,,,0 / 0,11903,2014-12-14 13:26:14:325
0.0808,-8.81605,3.94205,0.11747,-8.95806,3.98889,-0.05432,0.12181,-0.17373,0.01746,0.02208,0.00378,635.0,10.14,20.1,-24.84,216.592,66.052,-1.682,1.97,6.9472,,,,NaN,,,,0 / 0,11954,2014-12-14 13:26:14:376
0.11432,-8.81365,3.98036,0.11013,-8.95626,3.99293,-0.0416,0.13827,-0.15278,0.01746,0.00823,0.00378,635.0,9.9,19.74,-25.62,216.569,65.971,-1.613,1.97,6.1337,,,,NaN,,,,0 / 0,12003,2014-12-14 13:26:14:425
0.09517,-8.80168,3.97557,0.10819,-8.95252,4.00131,-0.01302,0.15083,-0.02574,0.01639,0.0061,0.00698,635.0,9.9,19.74,-25.08,216.524,65.916,-1.545,1.97,6.1337,,,,NaN,,,,0 / 0,12054,2014-12-14 13:26:14:476
0.09278,-8.83999,3.91093,0.10714,-8.95357,3.99921,-0.01437,0.11357,-0.08829,0.01106,0.01249,0.00804,635.0,10.2,19.74,-24.96,216.501,65.924,-1.535,1.97,6.1337,,,,NaN,,,,0 / 0,12103,2014-12-14 13:26:14:525
0.20051,-8.91661,3.98275,0.10774,-8.95446,3.99697,0.09278,0.03786,-0.01422,0.00361,-0.00243,0.00485,635.0,10.38,20.1,-25.02,216.501,65.924,-1.535,1.97,6.1337,,,,NaN,,,,0 / 0,12154,2014-12-14 13:26:14:576
-0.14186,-8.73225,3.91811,0.10026,-8.95327,3.99996,-0.47675,0.17552,-0.04833,0.0068,-0.00136,0.00804,635.0,9.42,19.68,-25.08,216.502,65.938,-1.544,1.97,6.1337,,,,NaN,,,,0 / 0,12204,2014-12-14 13:26:14:626
-0.34058,-8.74183,3.9229,0.08469,-8.95222,4.00266,0.25947,0.13108,0.05581,0.0068,0.01036,0.03787,635.0,9.54,19.68,-24.84,216.057,65.905,-1.212,1.97,6.1337,,,,NaN,,,,0 / 0,12254,2014-12-14 13:26:14:676
0.09038,-8.89745,3.94445,0.09622,-8.95042,4.0064,0.01092,0.14455,-0.17807,0.00467,0.01249,0.00378,635.0,8.94,19.56,-24.84,216.057,65.905,-1.212,1.97,6.1337,,,,NaN,,,,0 / 0,12304,2014-12-14 13:26:14:726
-0.15622,-8.80408,3.94205,0.08769,-8.95192,4.00326,-0.24391,0.14784,-0.0612,0.00148,0.00823,0.00698,635.0,9.3,19.68,-25.02,213.61,65.88,-1.376,1.97,8.8078,,,,NaN,,,,0 / 0,12354,2014-12-14 13:26:14:776
0.35614,-8.74662,3.81037,0.0817,-8.95237,4.00236,0.27444,0.20575,-0.19199,-0.02302,0.03486,0.00804,635.0,10.14,20.1,-25.38,215.993,65.907,-1.169,1.97,8.8078,,,,NaN,,,,0 / 0,12404,2014-12-14 13:26:14:826
0.77273,-9.14645,4.06176,0.11208,-8.97781,3.94445,0.66065,-0.16864,0.11732,0.01532,-0.35183,-0.00687,635.0,10.98,20.28,-25.98,216.675,66.183,-1.193,1.97,8.8078,,,,NaN,,,,0 / 0,12453,2014-12-14 13:26:14:875
0.40163,-8.61254,3.95642,0.18959,-8.98095,3.93397,0.21204,0.36841,0.02245,-0.0699,-0.17287,-0.0399,635.0,10.92,19.92,-25.38,216.675,66.183,-1.193,1.97,8.8078,,,,NaN,,,,0 / 0,12503,2014-12-14 13:26:14:925
0.02813,-9.21588,4.58131,0.17822,-8.98619,3.9226,-0.15009,-0.22969,0.6587,-0.03474,0.23513,0.01763,635.0,10.5,19.74,-25.38,220.056,66.396,-2.601,1.97,8.8078,,,,NaN,,,,0 / 0,12554,2014-12-14 13:26:14:976
0.15024,-8.99561,4.89734,0.07976,-8.96209,3.98066,0.07048,-0.03352,0.91668,0.07285,-0.10043,-0.03777,667.0,10.26,20.64,-25.8,215.155,66.157,-1.356,1.97,8.8078,,,,NaN,,,,0 / 0,12604,2014-12-14 13:26:15:026