ACCELEROMETER X (m/s²),ACCELEROMETER Y (m/s²),ACCELEROMETER Z (m/s²),GRAVITY X (m/s²),GRAVITY Y (m/s²),GRAVITY Z (m/s²),LINEAR ACCELERATION X (m/s²),LINEAR ACCELERATION Y (m/s²),LINEAR ACCELERATION Z (m/s²),GYROSCOPE X (rad/s),GYROSCOPE Y (rad/s),GYROSCOPE Z (rad/s),LIGHT (lux),MAGNETIC FIELD X (μT),MAGNETIC FIELD Y (μT),MAGNETIC FIELD Z (μT),ORIENTATION X (°),ORIENTATION Y (°),ORIENTATION Z (°),PROXIMITY (i),SOUND LEVEL (dB),LOCATION Latitude : ,LOCATION Longitude : ,LOCATION Altitude ( m),LOCATION Altitude-google ( m),LOCATION Speed ( Kmh),LOCATION Accuracy ( m),LOCATION ORIENTATION (°),Satellites in range,Time since start in ms ,YYYY-MO-DD HH-MI-SS_SSS
0.63865,-9.23503,0.81523,-0.01317,-9.70116,1.43502,0.65182,0.46612,-0.6198,-0.90771,-0.26488,-0.0013,141.0,21.96,28.38,-16.2,242.933,79.902,0.768,1.97,37.7249,,,,NaN,,,,0 / 0,4,2014-12-14 13:27:47:010
0.64105,-9.00519,1.61968,0.08589,-9.77687,0.75986,0.49769,0.81238,0.84066,-1.15485,0.16655,-0.0748,141.0,21.3,28.74,-15.78,241.258,83.687,-2.306,1.97,37.7249,,,,NaN,,,,0 / 0,54,2014-12-14 13:27:47:060
-0.21368,-8.94773,1.89501,0.11088,-9.79378,0.49081,-0.32456,0.84605,1.4042,-1.30825,0.70557,-0.1238,141.0,21.18,28.98,-14.46,241.258,83.687,-2.306,1.97,37.7249,,,,NaN,,,,0 / 0,103,2014-12-14 13:27:47:109
-0.97983,-9.12011,1.53827,0.11088,-9.80545,0.11118,-1.09071,0.68534,1.42709,-1.3434,0.61502,-0.10143,141.0,21.06,29.7,-13.8,282.297,89.083,-44.923,1.97,37.7249,,,,NaN,,,,0 / 0,153,2014-12-14 13:27:47:159
-2.03328,-9.14645,0.39145,0.07527,-9.80171,-0.30317,-2.10854,0.65526,0.69462,-1.42969,0.73433,0.03705,141.0,20.88,30.12,-12.9,282.297,89.083,-44.923,1.97,37.7249,,,,NaN,,,,0 / 0,203,2014-12-14 13:27:47:209
4.32333,-9.52952,-2.90536,0.0226,-9.7863,-0.63282,-1.54112,0.35255,0.41135,-1.43927,0.78547,0.06581,141.0,20.7,30.48,-11.76,54.522,86.298,-177.955,1.97,45.4452,,,,NaN,,,,0 / 0,253,2014-12-14 13:27:47:259
0.5381,-11.36348,-1.76333,0.32576,-9.63516,-1.7973,3.38465,-0.25109,-1.06497,-1.56923,1.33408,-0.23992,63.0,20.64,30.3,-7.5,54.522,86.298,-177.955,1.97,45.4452,,,,NaN,,,,0 / 0,303,2014-12-14 13:27:47:309
-1.75794,-12.50312,2.53426,0.64374,-9.44887,-2.54474,-2.40168,-3.05425,5.079,-0.82781,0.86749,-0.15896,63.0,18.96,29.94,-2.34,46.567,75.461,-165.324,1.97,45.4452,,,,NaN,,,,0 / 0,354,2014-12-14 13:27:47:360
0.94272,-13.65234,2.83354,0.72814,-9.44453,-2.538,0.21458,-4.20781,5.37154,-0.70318,0.81423,-0.2005,63.0,18.9,30.3,-1.08,53.489,74.475,-165.804,1.97,45.4452,,,,NaN,,,,0 / 0,403,2014-12-14 13:27:47:409
-4.50888,-14.89732,6.75763,0.77767,-9.51486,-2.24397,-5.28655,-5.38246,9.0016,0.04464,0.67255,-0.16109,63.0,18.36,30.66,3.12,53.489,74.475,-165.804,1.97,45.4452,,,,NaN,,,,0 / 0,454,2014-12-14 13:27:47:460
-1.21685,-13.2118,-2.24696,0.49635,-9.75802,-0.84111,-1.7132,-3.45379,-1.40585,2.12297,-0.37248,0.30124,57.0,16.8,29.46,6.0,66.553,79.826,-159.188,1.97,45.4452,,,,NaN,,,,0 / 0,504,2014-12-14 13:27:47:510
2.21643,-13.26448,-0.80565,0.34447,-9.80051,-0.0612,1.87197,-3.46396,-0.74445,2.59169,-1.09046,0.42481,57.0,16.14,28.98,6.42,28.966,87.956,-100.075,1.97,45.4452,,,,NaN,,,,0 / 0,553,2014-12-14 13:27:47:559
0.39684,-14.10484,-1.09056,0.26127,-9.67527,1.57898,0.13557,-4.42957,-2.66953,3.34163,-0.71336,0.36409,57.0,15.78,29.34,3.78,306.514,80.607,-9.395,1.97,45.4452,,,,NaN,,,,0 / 0,604,2014-12-14 13:27:47:610
1.51014,-10.11131,-2.40258,0.18121,-9.39739,2.79792,1.32893,-0.71392,-5.20051,3.43218,-0.23825,0.38859,57.0,16.14,29.16,2.28,306.514,80.607,-9.395,1.97,52.2302,,,,NaN,,,,0 / 0,654,2014-12-14 13:27:47:660
1.95786,-8.41382,-2.02669,0.07751,-9.02973,3.82474,1.88035,0.61591,-5.85143,3.20315,-0.59512,0.52068,57.0,17.04,28.44,-0.72,301.233,67.04,-1.161,1.97,52.2302,,,,NaN,,,,0 / 0,703,2014-12-14 13:27:47:709
-0.10116,-3.04123,-4.81594,0.31753,-8.05858,5.57924,-0.41869,5.01735,-10.39517,2.02923,-0.78154,0.16062,85.0,16.98,27.96,-7.08,302.36,55.26,-3.257,1.97,52.2302,,,,NaN,,,,0 / 0,753,2014-12-14 13:27:47:759
-0.59436,-2.48817,-4.02824,0.3105,-7.90191,5.79951,-0.90486,5.41374,-9.82775,1.12269,-0.32987,0.44824,85.0,16.8,27.24,-10.2,302.36,55.26,-3.257,1.97,52.2302,,,,NaN,,,,0 / 0,804,2014-12-14 13:27:47:810
-1.4443,-2.89519,1.04986,0.14395,-7.96745,5.71571,-1.58825,5.07227,-4.66585,-1.0888,-0.60364,0.52068,85.0,16.32,24.36,-16.86,285.351,53.685,-3.065,1.97,52.2302,,,,NaN,,,,0 / 0,853,2014-12-14 13:27:47:859
3.99772,-16.69537,14.49809,0.32022,-8.11784,5.49275,-0.55351,-1.78308,14.23907,-0.54978,-1.29286,0.33639,85.0,16.38,23.22,-18.12,264.752,55.276,-0.858,1.97,52.2302,,,,NaN,,,,0 / 0,903,2014-12-14 13:27:47:909
1.92913,-11.14082,9.94432,0.69013,-8.12712,5.44456,0.64868,0.71272,1.83875,0.38659,-1.33867,0.09671,85.0,16.2,22.2,-18.84,264.752,55.276,-0.858,1.97,52.2302,,,,NaN,,,,0 / 0,954,2014-12-14 13:27:47:960
7.17722,-19.51813,-4.69623,1.12542,-7.81677,5.81402,7.03402,-11.60305,2.92676,1.60951,-0.82521,0.06368,135.0,14.82,22.68,-18.66,270.638,54.503,-9.357,1.97,51.1885,,,,NaN,,,,0 / 0,1003,2014-12-14 13:27:48:009
4.17968,-0.63985,-17.77814,1.17825,-7.71217,5.94181,3.00143,7.07232,-23.71995,0.78287,0.77162,0.08073,135.0,14.4,22.98,-18.66,275.545,51.852,-11.216,1.97,51.1885,,,,NaN,,,,0 / 0,1054,2014-12-14 13:27:48:060
1.83336,-19.51813,5.47195,0.53106,-8.53967,4.79199,1.3023,-10.97846,0.67995,-2.2819,0.8579,-0.28253,135.0,12.12,23.34,-21.0,248.126,60.552,-6.324,1.97,51.1885,,,,NaN,,,,0 / 0,1104,2014-12-14 13:27:48:110
-1.37966,-7.18081,-5.36181,0.69836,-8.89566,4.0682,-2.07802,1.71485,-9.43001,-1.66724,-1.37169,0.11269,169.0,11.64,23.34,-21.54,248.126,60.552,-6.324,1.97,51.1885,,,,NaN,,,,0 / 0,1154,2014-12-14 13:27:48:160
0.37529,-9.67317,1.18633,0.52104,-9.48628,2.43101,-0.14575,-0.1869,-1.24469,-2.96473,1.65898,0.18619,169.0,13.08,24.78,-18.3,248.678,65.108,-9.741,1.97,51.1885,,,,NaN,,,,0 / 0,1204,2014-12-14 13:27:48:210
0.83498,-9.77852,3.92051,0.26157,-9.70041,1.41617,0.57341,-0.07811,2.50434,-2.47578,2.13303,0.2565,169.0,13.08,26.28,-15.66,239.048,81.556,-10.465,1.97,51.1885,,,,NaN,,,,0 / 0,1253,2014-12-14 13:27:48:259
-0.08679,-8.33242,0.55665,0.12854,-9.80575,0.05791,-0.05252,0.41509,1.12123,-1.65552,1.49174,-0.04604,141.0,13.26,27.12,-12.42,239.048,81.556,-10.465,1.97,51.1885,,,,NaN,,,,0 / 0,1304,2014-12-14 13:27:48:310
0.62908,-9.82401,0.33399,0.14799,-9.8044,-0.15263,0.48108,-0.0196,0.48662,-1.33594,0.61183,-0.21222,141.0,14.16,28.02,-10.14,301.352,89.176,-65.747,1.97,54.9373,,,,NaN,,,,0 / 0,1354,2014-12-14 13:27:48:360
0.59077,-11.73937,1.90698,0.4317,-9.73961,-1.06093,0.44607,-0.27324,0.47375,-1.45632,0.78227,-0.34751,141.0,15.72,29.52,-4.86,301.352,89.176,-65.747,1.97,54.9373,,,,NaN,,,,0 / 0,1404,2014-12-14 13:27:48:410
-1.70527,-11.85429,1.78727,0.6409,-9.66195,-1.55189,-2.3104,-2.17139,3.21766,-1.35512,1.19985,-0.49132,69.0,13.86,29.4,0.72,50.172,83.293,-157.858,1.97,54.9373,,,,NaN,,,,0 / 0,1454,2014-12-14 13:27:48:460
-4.80816,-12.69705,2.8072,0.62519,-9.65656,-1.59125,-5.43334,-3.04049,4.39845,-0.71809,0.56815,-0.44658,69.0,13.08,29.16,3.36,62.1,79.96,-158.551,1.97,54.9373,,,,NaN,,,,0 / 0,1504,2014-12-14 13:27:48:510
2.03687,-14.52143,12.33852,0.59436,-9.73707,-1.00467,1.44251,-4.78436,13.34319,0.92135,1.04433,-0.03006,69.0,12.9,28.8,6.18,62.1,79.96,-158.551,1.97,54.9373,,,,NaN,,,,0 / 0,1554,2014-12-14 13:27:48:560
-1.25516,-14.21976,-7.2269,0.61905,-9.78525,-0.19094,-1.64377,-4.4607,-8.11036,3.12645,0.93567,0.82854,69.0,10.5,29.88,9.84,79.45,83.164,-149.391,1.97,54.9373,,,,NaN,,,,0 / 0,1604,2014-12-14 13:27:48:610
1.45268,-16.23568,-5.68024,0.10205,-9.6826,1.55219,1.35063,-6.55308,-7.23243,2.16239,-0.05822,1.00964,69.0,9.42,30.36,11.16,332.957,80.873,-3.762,1.97,54.9373,,,,NaN,,,,0 / 0,1654,2014-12-14 13:27:48:660
-1.91117,-13.89894,-1.67235,-0.15877,-9.58055,2.08774,0.13901,-7.73971,-2.16795,2.11338,-0.72188,0.97662,69.0,9.12,31.02,11.28,332.957,80.873,-3.762,1.97,51.0163,,,,NaN,,,,0 / 0,1703,2014-12-14 13:27:48:709
3.02088,-11.63642,-3.78882,-0.4962,-8.9178,4.04949,4.34308,-1.47124,-7.5582,2.90594,-1.84574,0.82109,69.0,10.86,35.52,4.74,327.515,71.008,7.828,1.97,51.0163,,,,NaN,,,,0 / 0,1753,2014-12-14 13:27:48:759
3.21721,-5.51684,-4.06655,-0.37484,-8.56436,4.76267,3.98949,1.38594,-8.6281,2.72378,-2.3773,0.7135,89.0,12.12,36.42,1.68,326.708,60.846,4.5,1.97,51.0163,,,,NaN,,,,0 / 0,1804,2014-12-14 13:27:48:810
1.28509,-2.27988,-4.68186,0.06509,-7.85298,5.87358,1.22,5.5731,-10.55544,1.42735,-1.57836,0.56649,89.0,16.74,36.66,-6.6,314.374,53.204,-0.635,1.97,51.0163,,,,NaN,,,,0 / 0,1854,2014-12-14 13:27:48:860
-0.75477,-4.11384,-3.08732,0.31888,-7.65082,6.12646,-0.32801,3.37582,-8.41248,0.72428,-1.18847,0.6336,89.0,18.3,36.12,-11.34,314.374,53.204,-0.635,1.97,51.0163,,,,NaN,,,,0 / 0,1904,2014-12-14 13:27:48:910
1.94828,-6.34763,3.32914,0.43679,-7.83458,5.88211,0.89423,2.68824,-6.87151,0.28752,-0.95944,0.69432,149.0,19.8,34.14,-19.08,288.866,51.521,-3.236,1.97,51.0163,,,,NaN,,,,0 / 0,1953,2014-12-14 13:27:48:959
0.8685,-10.78408,16.96172,0.57087,-7.87707,5.81342,0.09397,-3.93203,6.76811,-0.57215,-1.94587,0.12973,149.0,19.98,33.0,-22.02,288.866,51.521,-3.236,1.97,51.0163,,,,NaN,,,,0 / 0,2004,2014-12-14 13:27:49:010
3.74393,-12.73536,10.47344,1.03325,-7.97928,5.60662,3.11112,0.00763,1.15011,0.4814,-0.21801,0.29591,149.0,19.62,32.4,-25.02,272.347,54.179,-8.137,1.97,52.1091,,,,NaN,,,,0 / 0,2054,2014-12-14 13:27:49:060
6.06391,-6.37875,-9.52772,1.40794,-7.83787,5.72334,3.3028,4.49631,-7.33598,-0.22061,-1.32589,-2.3E-4,149.0,19.26,32.04,-28.26,269.514,54.455,-10.442,1.97,52.1091,,,,NaN,,,,0 / 0,2104,2014-12-14 13:27:49:110
2.5588,-2.16256,-12.97777,1.40794,-7.94755,5.56996,2.58903,1.22733,-17.15715,1.21643,-0.17327,0.01149,241.0,17.58,32.34,-30.06,267.116,54.137,-14.186,1.97,52.1091,,,,NaN,,,,0 / 0,2154,2014-12-14 13:27:49:160
-4.64774,-0.35255,-12.88918,1.33103,-8.02312,5.47988,-7.12784,-0.06345,-15.14931,-2.78683,1.32343,0.38646,241.0,17.58,31.8,-31.14,267.116,54.137,-14.186,1.97,52.1091,,,,NaN,,,,0 / 0,2204,2014-12-14 13:27:49:210
-0.81942,-11.95245,1.0738,0.8878,-8.77714,4.28323,-1.70722,-3.17531,-3.20943,-1.95806,1.27016,-0.16109,241.0,16.74,30.42,-31.32,253.555,58.952,-12.313,1.97,52.1091,,,,NaN,,,,0 / 0,2253,2014-12-14 13:27:49:259
-0.58239,-8.25102,-4.27245,0.80251,-9.05726,3.67345,-1.3849,0.80625,-7.94591,-2.37244,0.99745,0.23839,301.0,16.38,29.7,-31.32,243.643,63.51,-11.71,1.97,52.1091,,,,NaN,,,,0 / 0,2303,2014-12-14 13:27:49:309
1.33297,-8.75141,0.78889,0.37664,-9.55062,2.19414,0.95633,0.79921,-1.40525,-2.51519,1.59294,0.3822,301.0,18.78,31.62,-28.74,233.572,76.879,-9.74,1.97,52.1091,,,,NaN,,,,0 / 0,2354,2014-12-14 13:27:49:360
-0.61351,-8.52396,0.55665,0.10744,-9.76026,0.94736,-0.72095,1.23631,-0.3907,-2.3032,2.24168,0.03279,301.0,19.62,33.78,-26.28,233.572,76.879,-9.74,1.97,52.1091,,,,NaN,,,,0 / 0,2404,2014-12-14 13:27:49:410
-0.4962,-10.56142,3.04183,0.0811,-9.80141,0.31394,-0.659,-1.13111,3.36161,-1.70772,1.56417,-0.14724,197.0,19.92,34.86,-23.76,231.299,84.421,-6.47,1.97,54.2948,,,,NaN,,,,0 / 0,2454,2014-12-14 13:27:49:460
-1.71006,-8.82084,-1.32758,0.07242,-9.79797,-0.40896,-1.78248,0.97713,-0.91863,-1.48721,1.15724,-0.09397,197.0,22.56,36.18,-17.22,231.299,84.421,-6.47,1.97,54.2948,,,,NaN,,,,0 / 0,2503,2014-12-14 13:27:49:509
1.63943,-10.55903,-0.30287,0.13004,-9.77014,-0.83662,1.50939,-0.78889,0.53376,-1.58308,1.22223,-0.16535,197.0,24.78,36.96,-8.7,49.053,87.573,-169.957,1.97,54.2948,,,,NaN,,,,0 / 0,2554,2014-12-14 13:27:49:560
-4.59986,-12.73775,3.41533,0.30347,-9.72181,-1.25202,0.2083,-1.89307,4.12626,-1.48934,1.23288,-0.28466,197.0,24.78,37.14,-7.5,52.398,82.451,-166.375,1.97,54.2948,,,,NaN,,,,0 / 0,2604,2014-12-14 13:27:49:610
0.05926,-11.66275,4.26527,0.31424,-9.73183,-1.16777,0.51116,-2.12007,6.59423,-0.19611,0.91117,-0.1483,93.0,25.14,38.4,-3.0,58.021,81.779,-165.224,1.97,54.2948,,,,NaN,,,,0 / 0,2654,2014-12-14 13:27:49:660
3.02088,-14.6986,11.40478,0.36048,-9.75862,-0.90082,2.66041,-4.93999,12.3056,0.24811,1.03687,0.03173,93.0,25.62,38.4,-0.18,58.021,81.779,-165.224,1.97,54.2948,,,,NaN,,,,0 / 0,2704,2014-12-14 13:27:49:710
-3.08194,-15.64431,-5.96276,0.37783,-9.74485,1.0331,-3.45977,-5.89946,-6.99586,3.27985,1.59081,0.36089,93.0,24.54,36.42,3.48,65.225,84.322,-158.19,1.97,54.2948,,,,NaN,,,,0 / 0,2753,2014-12-14 13:27:49:759
-1.15221,-17.24364,-7.46632,-0.0398,-9.57606,2.11378,-1.11241,-7.66758,-9.5801,2.30194,-0.04118,1.12149,93.0,23.7,35.46,3.3,304.742,83.56,-20.089,1.97,51.7417,,,,NaN,,,,0 / 0,2803,2014-12-14 13:27:49:809
0.78949,-17.19815,1.9405,-0.33414,-9.38542,2.82351,1.12363,-7.81273,-0.88301,2.68224,-0.98926,0.99046,93.0,23.04,33.36,1.68,304.742,83.56,-20.089,1.97,51.7417,,,,NaN,,,,0 / 0,2854,2014-12-14 13:27:49:860
2.28586,-7.81288,-3.88699,-0.58044,-8.53009,4.80337,2.86631,0.71721,-8.69035,2.81965,-2.53816,1.10125,109.0,22.44,30.06,-2.76,293.168,66.95,7.524,1.97,51.7417,,,,NaN,,,,0 / 0,2904,2014-12-14 13:27:49:910
1.54845,-4.44424,-4.67228,-0.29688,-8.08312,5.54482,1.84533,3.63889,-10.21711,2.43722,-2.92059,0.60803,109.0,21.96,27.36,-5.22,295.181,55.513,3.065,1.97,51.7417,,,,NaN,,,,0 / 0,2954,2014-12-14 13:27:49:960
1.21326,-2.4786,-5.98431,0.26127,-7.59845,6.1941,0.95199,5.11985,-12.17841,2.04201,-2.66706,0.35237,109.0,21.0,24.72,-8.28,295.181,55.513,3.065,1.97,51.7417,,,,NaN,,,,0 / 0,3004,2014-12-14 13:27:50:010
1.41198,-3.71401,-2.91255,1.00616,-7.36187,6.40015,0.40582,3.64787,-9.3127,-0.1503,-0.96157,0.67728,187.0,18.3,21.78,-14.16,292.775,48.107,-6.301,1.97,51.7417,,,,NaN,,,,0 / 0,3054,2014-12-14 13:27:50:060
2.11109,-5.72753,2.19668,0.9517,-7.64768,6.06451,1.15939,1.92015,-3.86783,-1.21663,0.35617,0.56968,187.0,15.84,20.82,-17.88,273.73,51.246,-8.919,1.97,51.7417,,,,NaN,,,,0 / 0,3103,2014-12-14 13:27:50:109
4.16292,-13.12801,19.82459,0.85069,-7.99978,5.60812,3.31223,-5.12823,14.21647,-1.62037,0.07387,-0.05243,187.0,14.4,19.68,-19.92,273.73,51.246,-8.919,1.97,51.7417,,,,NaN,,,,0 / 0,3154,2014-12-14 13:27:50:160
1.72562,-11.03308,9.5397,1.26085,-7.97898,5.56023,0.46477,-3.0541,3.97946,0.53999,-0.46409,0.27567,335.0,12.78,19.2,-20.28,259.835,55.301,-12.068,1.97,52.4945,,,,NaN,,,,0 / 0,3204,2014-12-14 13:27:50:210
4.84527,-3.23038,4.35146,1.25755,-7.84729,5.74534,3.58771,4.61692,-1.39387,0.54958,-0.03479,0.38859,335.0,12.3,19.5,-19.08,267.083,53.149,-12.346,1.97,52.4945,,,,NaN,,,,0 / 0,3254,2014-12-14 13:27:50:260
5.31932,-4.60465,-5.87178,1.38939,-8.18293,5.22295,3.92993,3.57828,-11.09473,1.24519,-0.77834,-0.06308,335.0,9.9,19.32,-18.06,262.433,56.556,-14.897,1.97,52.4945,,,,NaN,,,,0 / 0,3303,2014-12-14 13:27:50:309
3.7152,2.396,-15.08706,1.45328,-8.10856,5.32066,2.26192,10.50456,-20.40773,-0.28027,-0.59938,0.03492,411.0,8.82,18.84,-18.66,262.433,56.556,-14.897,1.97,52.4945,,,,NaN,,,,0 / 0,3354,2014-12-14 13:27:50:360
-2.02849,-11.57896,0.26456,1.0313,-8.9392,3.89851,-3.05979,-2.63976,-3.63395,-1.39134,-0.2308,-0.23139,411.0,7.74,19.8,-19.02,250.453,60.101,-15.527,1.97,52.4945,,,,NaN,,,,0 / 0,3403,2014-12-14 13:27:50:409
-0.29987,-8.16004,-2.60609,1.00467,-9.21693,3.19521,-1.30454,1.05689,-5.8013,-2.04434,0.21768,-0.00556,411.0,7.32,20.28,-18.9,236.375,70.029,-17.455,1.97,52.4945,,,,NaN,,,,0 / 0,3454,2014-12-14 13:27:50:460
0.33938,-8.6724,-0.81044,0.91294,-9.42762,2.54115,-0.57356,0.75522,-3.35158,-2.42784,0.96869,0.2533,411.0,7.02,20.94,-18.3,236.375,70.029,-17.455,1.97,52.4945,,,,NaN,,,,0 / 0,3504,2014-12-14 13:27:50:510
0.61711,-8.19116,0.73861,0.55411,-9.73138,1.07964,0.063,1.54022,-0.34102,-1.93036,1.89228,0.0541,421.0,7.02,22.44,-15.0,235.19,78.985,-21.352,1.97,52.4945,,,,NaN,,,,0 / 0,3553,2014-12-14 13:27:50:559
-0.9894,-9.22785,1.43293,0.52583,-9.78181,0.46088,-1.51523,0.55396,0.97205,-1.89094,1.89015,-0.16322,421.0,6.84,22.98,-13.8,261.312,85.911,-48.766,1.97,51.9202,,,,NaN,,,,0 / 0,3604,2014-12-14 13:27:50:610
-2.28227,-9.29489,0.90621,0.48931,-9.79453,-0.02783,-2.77159,0.49964,-0.12315,-1.25179,0.34232,-0.1025,421.0,8.76,24.36,-9.54,357.39,86.244,-135.104,1.97,51.9202,,,,NaN,,,,0 / 0,3654,2014-12-14 13:27:50:660
2.64978,-12.08892,0.62369,0.62833,-9.7239,-1.10627,2.02145,-2.36502,1.72996,-1.58948,0.83021,-0.2037,179.0,9.12,25.08,-6.3,357.39,86.244,-135.104,1.97,51.9202,,,,NaN,,,,0 / 0,3704,2014-12-14 13:27:50:710
-0.96786,-11.86626,3.08253,0.77333,-9.67931,-1.37307,-1.74118,-2.18695,4.45561,-1.29972,1.14979,-0.42847,179.0,8.4,25.56,-4.26,23.543,80.753,-150.611,1.97,51.9202,,,,NaN,,,,0 / 0,3754,2014-12-14 13:27:50:760
-0.57281,-11.21983,2.6827,0.71347,-9.67901,-1.40734,-0.63267,-1.81136,5.15068,-0.37401,0.99213,0.05623,179.0,6.96,24.72,-2.34,30.94,80.741,-153.117,1.97,51.9202,,,,NaN,,,,0 / 0,3803,2014-12-14 13:27:50:809
-2.0213,-14.84944,8.62511,0.73891,-9.7447,-0.81657,-2.52319,-5.68174,12.17826,0.93414,1.12848,-0.11954,137.0,6.42,24.36,-0.54,30.94,80.741,-153.117,1.97,51.9202,,,,NaN,,,,0 / 0,3853,2014-12-14 13:27:50:859
-0.32382,-15.41926,-3.86304,0.5761,-9.74724,0.91174,-0.89992,-5.67201,-4.77479,3.09556,0.92608,0.56862,137.0,5.82,24.72,0.0,359.981,85.945,-89.975,1.97,51.9202,,,,NaN,,,,0 / 0,3904,2014-12-14 13:27:50:910
-0.22565,-15.48629,-7.75841,0.35793,-9.64729,1.72412,-0.58359,-5.83901,-9.48254,2.33815,0.04085,1.02775,137.0,4.68,23.82,0.0,317.321,79.656,-11.728,1.97,51.8167,,,,NaN,,,,0 / 0,3953,2014-12-14 13:27:50:959
0.61711,-14.39933,1.10971,-0.16415,-9.30746,3.08463,0.78126,-5.09187,-1.97492,2.9592,-0.94452,1.05651,137.0,5.64,22.56,-2.22,310.613,71.64,3.046,1.97,51.8167,,,,NaN,,,,0 / 0,4003,2014-12-14 13:27:51:009
0.46627,-11.61726,-2.94607,-0.3726,-8.96329,3.96136,0.83887,-2.65397,-6.90742,2.66732,-1.43881,1.10338,161.0,6.12,21.12,-3.24,310.613,71.64,3.046,1.97,51.8167,,,,NaN,,,,0 / 0,4054,2014-12-14 13:27:51:060
0.65541,-5.93822,-4.63877,-0.16146,-8.22947,5.33114,0.81687,2.29125,-9.9699,2.42018,-2.79489,0.68899,161.0,6.66,20.1,-4.38,318.101,61.759,4.982,1.97,51.8167,,,,NaN,,,,0 / 0,4104,2014-12-14 13:27:51:110
1.46226,-4.18806,-5.28041,0.16116,-7.89084,5.82075,1.3011,3.70278,-11.10116,2.09101,-2.65534,0.63786,161.0,7.86,19.86,-5.22,314.634,53.575,-1.586,1.97,51.8167,,,,NaN,,,,0 / 0,4154,2014-12-14 13:27:51:160
2.16376,-3.57275,-3.50631,0.71093,-7.56253,6.20263,1.50281,3.89163,-9.38856,0.04358,-0.54292,0.44824,347.0,8.04,20.52,-8.28,311.878,50.459,-6.539,1.97,51.8167,,,,NaN,,,,0 / 0,4205,2014-12-14 13:27:51:211
2.6426,-4.34607,-0.76255,0.82765,-7.64154,6.0904,1.81495,3.29547,-6.85295,-0.13539,-0.27341,0.44611,347.0,8.04,20.7,-8.76,311.878,50.459,-6.539,1.97,51.8167,,,,NaN,,,,0 / 0,4254,2014-12-14 13:27:51:260
0.99778,-11.87105,16.48528,0.96711,-7.9902,5.60288,-1.85476,-4.73498,6.78562,-0.33353,-1.77862,0.03279,347.0,7.74,20.88,-10.74,296.008,53.567,-8.173,1.97,50.8344,,,,NaN,,,,0 / 0,4304,2014-12-14 13:27:51:310
2.25474,-13.07773,11.50534,1.19067,-8.00187,5.54288,2.61282,-3.99173,3.67435,0.09577,-0.72614,0.17341,533.0,7.44,21.78,-12.12,296.008,53.567,-8.173,1.97,50.8344,,,,NaN,,,,0 / 0,4354,2014-12-14 13:27:51:360
5.36241,-9.2087,9.23324,1.37846,-7.89368,5.65331,3.80888,-7.31264,-6.4018,0.05849,-0.94559,-0.11102,533.0,7.74,24.54,-10.26,297.732,54.682,-12.123,1.97,50.8344,,,,NaN,,,,0 / 0,4403,2014-12-14 13:27:51:409
3.44945,-10.61409,-0.90621,1.43113,-8.16542,5.23911,5.81118,6.73265,-12.24769,-0.0981,0.8611,0.69539,533.0,7.08,25.14,-9.54,308.055,56.371,-15.278,1.97,50.8344,,,,NaN,,,,0 / 0,4454,2014-12-14 13:27:51:460
-4.9949,-5.33009,-12.05361,1.28479,-8.36953,4.94687,-4.666,4.75863,-19.08508,-0.36229,0.47015,0.01788,533.0,6.9,25.56,-9.78,308.055,56.371,-15.278,1.97,50.8344,,,,NaN,,,,0 / 0,4503,2014-12-14 13:27:51:509
-1.13306,-19.51813,3.1807,1.02711,-8.75724,4.29265,-1.6101,-2.63033,-3.09795,-1.35299,-0.02733,-0.14511,635.0,8.34,28.2,-11.7,302.527,58.589,-14.559,1.97,50.8344,,,,NaN,,,,0 / 0,4554,2014-12-14 13:27:51:560
-0.01018,-8.24384,-2.08176,0.95454,-9.2479,3.12024,-2.50763,0.25124,-3.54267,-2.13809,1.04646,-0.15043,635.0,9.0,29.34,-11.16,287.708,66.959,-14.771,1.97,50.8344,,,,NaN,,,,0 / 0,4604,2014-12-14 13:27:51:610
-1.26234,-9.18476,-0.13048,0.87718,-9.43779,2.51601,-0.98072,-0.19483,-1.78518,-2.32238,1.65898,0.21708,635.0,9.6,30.48,-8.94,287.708,66.959,-14.771,1.97,49.2258,,,,NaN,,,,0 / 0,4654,2014-12-14 13:27:51:660
1.02891,-8.61015,1.16957,0.55052,-9.71537,1.2164,0.20665,1.00616,0.11268,-1.91545,2.08189,-0.13978,565.0,9.54,33.0,-4.8,286.95,78.176,-20.687,1.97,49.2258,,,,NaN,,,,0 / 0,4704,2014-12-14 13:27:51:710
-2.33973,-10.22863,2.07697,0.50563,-9.78989,0.27339,-3.18489,0.40208,0.72859,-1.65978,1.41504,-0.19944,565.0,9.78,33.0,-2.34,309.076,84.864,-37.472,1.97,49.2258,,,,NaN,,,,0 / 0,4754,2014-12-14 13:27:51:760
-2.2296,-8.20313,-1.21506,0.42781,-9.79707,-0.06973,-1.4042,1.57972,-1.52496,-1.11969,0.2571,-0.08652,565.0,10.2,33.18,0.66,309.076,84.864,-37.472,1.97,49.2258,,,,NaN,,,,0 / 0,4804,2014-12-14 13:27:51:810
3.63619,-10.11371,0.68354,0.52613,-9.75772,-0.82555,2.34377,-1.1561,1.34419,-1.39986,0.46908,-0.19411,283.0,9.6,32.94,6.36,58.275,86.682,-135.117,1.97,49.2258,,,,NaN,,,,0 / 0,4854,2014-12-14 13:27:51:860
0.22206,-11.27729,0.97564,0.73442,-9.704,-1.21042,-0.51236,-1.57329,2.18606,-1.36364,0.97721,-0.42953,283.0,8.82,32.7,8.4,77.545,81.699,-148.753,1.97,49.2258,,,,NaN,,,,0 / 0,4904,2014-12-14 13:27:51:910
-3.12024,-12.3858,-0.48483,0.84007,-9.63262,-1.63674,-3.96031,-2.75318,1.15191,-0.77668,0.80358,-0.33579,283.0,8.46,32.52,10.5,89.803,80.312,-150.297,1.97,49.2258,,,,NaN,,,,0 / 0,4954,2014-12-14 13:27:51:960
-0.7428,-11.61487,0.37709,0.83932,-9.6193,-1.71365,-1.58212,-1.99557,2.09074,-0.57428,0.76629,-0.16002,283.0,8.64,32.76,12.0,89.803,80.312,-150.297,1.97,49.2258,,,,NaN,,,,0 / 0,5004,2014-12-14 13:27:52:010
-5.58867,-14.15272,7.8446,0.8869,-9.69427,-1.18603,-6.47557,-4.45845,9.03063,1.72776,0.73114,0.21495,209.0,7.2,32.82,15.48,96.304,78.606,-150.37,1.97,51.8263,,,,NaN,,,,0 / 0,5054,2014-12-14 13:27:52:060
1.13665,-14.3275,-2.78326,0.59242,-9.78241,0.35344,0.54423,-4.54509,-3.1367,2.69608,0.47334,0.43546,209.0,7.2,33.36,15.42,86.988,84.934,-122.158,1.97,51.8263,,,,NaN,,,,0 / 0,5104,2014-12-14 13:27:52:110
2.58753,-15.19899,-6.05853,0.35524,-9.71507,1.28913,2.23229,-5.48392,-7.34765,2.59275,-0.13066,0.88287,209.0,7.56,35.22,15.48,350.029,82.163,-15.406,1.97,51.8263,,,,NaN,,,,0 / 0,5153,2014-12-14 13:27:52:159
0.5357,-14.89971,-1.24858,0.05417,-9.55331,2.21419,0.48153,-5.3464,-3.46276,2.63004,-1.09899,0.99686,209.0,7.8,36.48,14.16,350.029,82.163,-15.406,1.97,51.8263,,,,NaN,,,,0 / 0,5204,2014-12-14 13:27:52:210
0.21967,-12.29482,-2.56299,-0.29957,-9.07552,3.70338,0.51924,-3.2193,-6.26637,2.88783,-1.43348,1.05545,311.0,12.0,38.76,3.18,335.897,76.947,-1.401,1.97,51.8263,,,,NaN,,,,0 / 0,5254,2014-12-14 13:27:52:260
1.35931,-6.6062,-3.97318,-0.31155,-8.35337,5.12793,1.67085,1.74717,-9.10111,2.76426,-2.42737,0.87009,311.0,13.68,37.8,-0.96,317.738,62.985,5.2,1.97,51.8263,,,,NaN,,,,0 / 0,5303,2014-12-14 13:27:52:309
0.64105,-5.21517,-4.33949,-0.03636,-7.97149,5.71182,0.67741,2.75632,-10.05131,1.93122,-2.00659,0.6123,311.0,15.42,36.12,-4.98,317.738,62.985,5.2,1.97,51.8263,,,,NaN,,,,0 / 0,5353,2014-12-14 13:27:52:359
1.54606,-4.31256,-2.56778,0.44128,-7.48652,6.3189,1.10477,3.17396,-8.88668,1.06729,-1.33441,0.53347,311.0,17.34,32.46,-14.16,306.2,54.377,0.365,1.97,51.8263,,,,NaN,,,,0 / 0,5404,2014-12-14 13:27:52:410
0.11193,-5.17926,0.8679,0.45235,-7.4922,6.31127,-0.34043,2.31295,-5.44337,0.06062,-0.26382,0.69112,583.0,16.32,29.52,-19.26,288.373,49.818,-4.1,1.97,51.6359,,,,NaN,,,,0 / 0,5453,2014-12-14 13:27:52:459
1.55084,-5.79457,1.1576,0.27354,-7.67521,6.09803,1.27731,1.88065,-4.94044,-0.61689,-0.26808,0.58566,583.0,14.22,25.92,-23.58,288.373,49.818,-4.1,1.97,51.6359,,,,NaN,,,,0 / 0,5504,2014-12-14 13:27:52:510
2.92033,-7.07786,1.96684,0.38547,-7.94291,5.7386,2.53486,0.86506,-3.77177,-0.89599,-1.02122,-0.28146,583.0,12.66,23.16,-27.3,244.537,54.091,-3.843,1.97,51.6359,,,,NaN,,,,0 / 0,5554,2014-12-14 13:27:52:560
-1.16657,-10.04427,10.58118,1.00781,-8.07654,5.4703,-2.17438,-1.96773,5.11087,0.09045,-1.60179,0.11695,851.0,12.42,22.02,-27.48,245.523,55.445,-10.439,1.97,51.6359,,,,NaN,,,,0 / 0,5604,2014-12-14 13:27:52:610
2.98018,-9.15603,7.89727,1.1959,-7.9902,5.55859,1.78428,-1.16583,2.33869,0.40044,-0.8316,0.15104,851.0,11.7,21.24,-26.82,245.523,55.445,-10.439,1.97,51.6359,,,,NaN,,,,0 / 0,5654,2014-12-14 13:27:52:660
1.66577,-19.51813,13.02326,1.70452,-7.65277,5.89063,-0.03876,-11.86536,7.13263,1.32615,-1.38767,-0.50091,851.0,9.0,20.46,-27.54,248.676,52.526,-13.372,1.97,51.6359,,,,NaN,,,,0 / 0,5704,2014-12-14 13:27:52:710
-4.67408,-6.46015,-12.7982,1.79311,-7.40556,6.17345,-6.46719,0.94541,-18.97165,1.60951,-0.70484,0.39924,989.0,8.58,19.68,-27.72,252.148,49.04,-16.196,1.97,51.6359,,,,NaN,,,,0 / 0,5753,2014-12-14 13:27:52:759
1.29706,-19.51813,-2.72819,1.49368,-7.52662,6.10641,-0.19662,-11.99151,-8.8346,-1.84833,1.87417,-0.03539,989.0,6.3,16.86,-28.26,234.56,50.13,-13.745,1.97,48.2345,,,,NaN,,,,0 / 0,5804,2014-12-14 13:27:52:810
-0.90321,-14.49509,-0.88945,1.1775,-7.86226,5.74189,-2.08071,-6.63284,-6.63134,-0.59239,0.52128,0.1308,989.0,5.82,16.08,-28.86,234.56,50.13,-13.745,1.97,48.2345,,,,NaN,,,,0 / 0,5854,2014-12-14 13:27:52:860
-0.41719,-8.49523,2.44089,0.93389,-8.49612,4.80771,-1.35108,9.0E-4,-2.36682,-0.96843,0.174,0.11801,989.0,5.52,15.36,-29.04,222.339,53.295,-11.589,1.97,48.2345,,,,NaN,,,,0 / 0,5904,2014-12-14 13:27:52:910
-1.04208,-9.71866,3.64757,0.72933,-8.75545,4.3567,-1.77141,-0.96322,-0.70913,-0.95671,0.76097,0.02107,1053.0,7.08,16.68,-27.06,216.986,63.228,-9.503,1.97,48.2345,,,,NaN,,,,0 / 0,5954,2014-12-14 13:27:52:960
0.01137,-8.98364,4.46878,0.58329,-8.87471,4.13164,-0.57191,-0.10894,0.33713,-0.79692,0.79612,-0.01195,1053.0,7.2,17.1,-26.22,216.986,63.228,-9.503,1.97,48.2345,,,,NaN,,,,0 / 0,6003,2014-12-14 13:27:53:009
0.57401,-8.58142,5.00029,0.47061,-8.98694,3.89671,0.1034,0.40552,1.10358,-0.15137,1.16683,-0.19411,1053.0,8.04,19.38,-24.66,213.724,65.895,-7.332,1.97,48.2345,,,,NaN,,,,0 / 0,6054,2014-12-14 13:27:53:060
-1.51134,-10.11371,3.01789,0.22865,-9.0236,3.83312,-1.73999,-1.09011,-0.81523,-0.01288,1.41504,-0.14724,1011.0,8.7,19.56,-24.18,220.833,66.67,-5.803,1.97,48.2345,,,,NaN,,,,0 / 0,6104,2014-12-14 13:27:53:110
-1.42994,-9.03632,1.32998,0.02514,-9.02913,3.82683,-1.45508,-0.00718,-2.49685,0.25024,1.17855,-0.07054,1011.0,9.72,20.1,-23.04,217.329,67.031,-0.376,1.97,52.9347,,,,NaN,,,,0 / 0,6153,2014-12-14 13:27:53:159
-1.41797,-10.08019,3.11127,-0.04684,-9.02838,3.93203,-1.50072,-1.06273,-0.82076,0.53679,-0.49179,-0.23779,1011.0,10.32,20.82,-22.02,217.329,67.031,-0.376,1.97,52.9347,,,,NaN,,,,0 / 0,6204,2014-12-14 13:27:53:210
-0.18495,-8.5455,-0.00838,0.04504,-8.96284,3.97961,-0.22999,0.41734,-3.98799,0.36848,-0.13066,-0.03112,809.0,12.48,21.24,-21.12,223.278,66.362,-0.089,1.97,52.9347,,,,NaN,,,,0 / 0,6254,2014-12-14 13:27:53:260
2.42233,-9.57501,3.44406,0.15592,-9.04664,3.78239,2.26641,-0.52837,-0.33833,0.07447,-0.25743,-0.15256,809.0,12.66,21.12,-20.76,230.442,66.871,-0.634,1.97,52.9347,,,,NaN,,,,0 / 0,6303,2014-12-14 13:27:53:309
1.54845,-8.35876,5.11761,0.31334,-9.01746,3.84165,1.23511,0.6587,1.27596,0.11708,-0.05077,-0.12061,809.0,12.3,20.7,-21.18,233.549,66.856,-4.663,1.97,52.9347,,,,NaN,,,,0 / 0,6354,2014-12-14 13:27:53:360
-0.4938,-8.49523,2.45765,0.18091,-8.99906,3.89282,-0.67472,0.50383,-1.43517,-0.12154,0.54685,0.09884,809.0,12.12,20.7,-21.0,233.549,66.856,-4.663,1.97,52.9347,,,,NaN,,,,0 / 0,6404,2014-12-14 13:27:53:410
-0.20889,-9.67557,4.19823,0.09233,-9.01013,3.87038,0.19438,-1.0533,0.58882,0.1778,-0.20097,-0.00662,809.0,11.52,20.64,-21.3,231.276,66.585,-2.661,1.97,52.9347,,,,NaN,,,,0 / 0,6454,2014-12-14 13:27:53:460
0.69851,-8.80408,2.29005,0.23149,-8.98843,3.91482,-0.20815,0.13886,-0.88496,0.11282,-0.18925,0.0509,809.0,11.7,20.88,-21.72,229.142,66.481,-2.676,1.97,46.6786,,,,NaN,,,,0 / 0,6504,2014-12-14 13:27:53:510
0.81343,-8.31805,3.44645,0.19603,-8.98005,3.93577,0.03083,0.23583,-0.3289,0.16395,0.06641,0.17021,809.0,11.94,20.64,-21.6,229.59,66.307,-2.851,1.97,46.6786,,,,NaN,,,,0 / 0,6554,2014-12-14 13:27:53:560
0.95469,-8.8783,3.33393,0.15547,-8.96644,3.96869,0.79921,0.08814,-0.63476,0.14371,-0.00816,0.22241,809.0,11.7,20.58,-21.54,229.59,66.307,-2.851,1.97,46.6786,,,,NaN,,,,0 / 0,6604,2014-12-14 13:27:53:610
1.79505,-9.61811,3.45124,0.21293,-8.97392,3.94879,1.58212,-0.64419,-0.49755,0.05423,0.10902,-0.06947,809.0,11.28,20.52,-21.42,228.86,66.195,-2.26,1.97,46.6786,,,,NaN,,,,0 / 0,6654,2014-12-14 13:27:53:660
0.30825,-8.64606,3.43448,0.23942,-8.97945,3.93487,0.06883,0.33339,-0.50039,-1.0E-4,0.22833,-0.04923,809.0,10.92,20.28,-21.6,227.073,66.298,-3.482,1.97,46.6786,,,,NaN,,,,0 / 0,6704,2014-12-14 13:27:53:710
-0.39804,-9.17518,3.76249,0.1459,-8.9998,3.89282,-0.54393,-0.17538,-0.13033,-0.09065,0.00889,0.00723,773.0,10.86,20.64,-21.72,227.073,66.298,-3.482,1.97,46.6786,,,,NaN,,,,0 / 0,6754,2014-12-14 13:27:53:760
0.27713,-8.93097,3.83431,0.13542,-9.01088,3.86738,0.14171,0.07991,-0.03307,-0.07893,-0.0465,-0.00769,773.0,11.1,20.94,-21.96,225.494,66.759,-2.005,1.97,46.6786,,,,NaN,,,,0 / 0,6803,2014-12-14 13:27:53:809
0.83019,-8.86154,3.64517,0.20485,-9.02,3.84284,0.76899,0.20396,0.06569,-0.05976,-0.00496,-0.04071,773.0,11.28,21.12,-21.78,225.494,66.759,-2.005,1.97,46.6786,,,,NaN,,,,0 / 0,6854,2014-12-14 13:27:53:860
0.04729,-9.11293,3.63799,0.22072,-9.02883,3.8213,-0.43964,-0.21069,-0.31873,-0.00436,0.12181,-0.0258,747.0,11.88,20.52,-22.32,227.23,66.944,-3.433,1.97,46.1457,,,,NaN,,,,0 / 0,6904,2014-12-14 13:27:53:910
0.08559,-8.88069,2.99634,0.19303,-9.05173,3.76847,-0.10744,0.17104,-0.77213,-0.06402,-0.00283,-0.01941,747.0,11.7,20.76,-22.32,228.891,67.102,-3.05,1.97,46.1457,,,,NaN,,,,0 / 0,6953,2014-12-14 13:27:53:959
0.10475,-9.16321,3.39857,0.19333,-9.06535,3.7354,-0.08859,-0.09786,-0.33683,-0.07254,-0.00496,-0.00982,747.0,10.74,20.64,-21.54,225.834,67.579,-2.963,1.97,46.1457,,,,NaN,,,,0 / 0,7004,2014-12-14 13:27:54:010
0.12869,-8.89506,3.45364,0.18914,-9.08764,3.68094,-0.01422,0.19842,-0.2487,-0.03952,0.01635,0.01149,747.0,10.92,20.16,-21.72,225.834,67.579,-2.963,1.97,46.1457,,,,NaN,,,,0 / 0,7054,2014-12-14 13:27:54:060
0.14305,-9.00519,3.44885,0.18615,-9.09258,3.66896,-0.08769,0.04998,-0.37978,-0.02673,0.01954,8.3E-4,735.0,10.92,20.7,-21.6,225.267,68.0,-2.904,1.97,46.1457,,,,NaN,,,,0 / 0,7103,2014-12-14 13:27:54:109
0.37769,-9.12251,3.14239,0.18899,-9.10949,3.62662,0.44876,-0.03352,-0.75178,-0.06189,0.0483,-0.00236,735.0,10.92,20.64,-21.42,225.267,68.0,-2.904,1.97,46.1457,,,,NaN,,,,0 / 0,7154,2014-12-14 13:27:54:160
-0.16101,-8.83999,2.43371,0.23149,-9.15573,3.50571,-0.55186,0.21832,-1.08128,-0.13752,-0.11362,-0.05776,735.0,12.84,20.64,-21.72,229.613,68.265,-2.983,1.97,46.1457,,,,NaN,,,,0 / 0,7204,2014-12-14 13:27:54:210
-0.01257,-9.12969,2.46722,0.23777,-9.17338,3.45872,-0.25034,0.04369,-0.9915,-0.24618,-0.17647,-0.03539,735.0,12.12,20.88,-21.3,229.627,69.297,-3.933,1.97,46.8407,,,,NaN,,,,0 / 0,7253,2014-12-14 13:27:54:259
0.15742,-8.88309,3.19506,0.34611,-9.21379,3.34021,-0.18869,0.3307,-0.14515,-0.11835,-0.39804,-0.0226,735.0,11.7,21.12,-21.54,229.324,69.975,-5.916,1.97,46.8407,,,,NaN,,,,0 / 0,7304,2014-12-14 13:27:54:310
0.04489,-9.46727,4.21978,0.36452,-9.21498,3.33497,-0.31963,-0.25229,0.88481,-0.03206,0.18253,8.3E-4,785.0,11.28,21.3,-21.6,227.814,70.109,-6.639,1.97,46.8407,,,,NaN,,,,0 / 0,7353,2014-12-14 13:27:54:359
1.06961,-9.42178,2.89339,0.20605,-9.19688,3.39782,0.52987,0.21323,-0.08529,0.13625,0.52022,-0.01834,785.0,10.92,21.24,-21.72,227.814,70.109,-6.639,1.97,46.8407,,,,NaN,,,,0 / 0,7404,2014-12-14 13:27:54:410
0.08559,-8.99083,2.65876,0.22087,-9.19613,3.39887,-0.00943,0.07452,-0.6825,0.02227,-0.11149,-0.03539,785.0,10.98,21.24,-21.96,224.155,69.689,-3.47,1.97,46.8407,,,,NaN,,,,0 / 0,7454,2014-12-14 13:27:54:460