sep=;
ACCELEROMETER X (m/s²);ACCELEROMETER Y (m/s²);ACCELEROMETER Z (m/s²);GRAVITY X (m/s²);GRAVITY Y (m/s²);GRAVITY Z (m/s²);LINEAR ACCELERATION X (m/s²);LINEAR ACCELERATION Y (m/s²);LINEAR ACCELERATION Z (m/s²);GYROSCOPE X (rad/s);GYROSCOPE Y (rad/s);GYROSCOPE Z (rad/s);LIGHT (lux);MAGNETIC FIELD X (μT);MAGNETIC FIELD Y (μT);MAGNETIC FIELD Z (μT);ORIENTATION X (°);ORIENTATION Y (°);ORIENTATION Z (°);PROXIMITY (i);SOUND LEVEL (dB);LOCATION Latitude : ;LOCATION Longitude : ;LOCATION Altitude ( m);LOCATION Speed ( Kmh);LOCATION Accuracy ( m);Satellites in range;Temperature (F);Level (%);Voltage (Volt);Time since start in ms ;YYYY-MO-DD HH-MI-SS_SSS
-1.0297;-9.8949;0.657;-0.5308;-9.7903;0.1951;-0.5685;-0.113;0.4262;0.0073;-0.0281;-0.0195;67.0;33.0;1.6;6.7;212.3;86.69;69.82;;64.361;35.17798;126.908905;;;64.51613;0 / 0;86.0;28.0;3.691;31;2014-11-22 11:16:32:516
-0.7649;-9.9145;0.3236;-0.2238;-9.8027;-0.1669;-0.3647;-0.2228;0.6956;-0.1918;0.0208;-0.1222;67.0;30.8;2.5;9.1;189.99;87.81;96.25;;37.216;35.17798;126.908905;;;64.51613;0 / 0;86.0;28.0;3.691;555;2014-11-22 11:16:33:040
-0.4413;-9.9341;-1.2749;0.2825;-9.7165;-1.2959;-0.622;-0.1385;-0.079;0.0037;0.1148;-0.0195;54.0;28.6;4.2;13.0;100.81;83.4;-167.55;;41.617;35.17798;126.908905;;;64.51613;0 / 0;86.0;28.0;3.691;1075;2014-11-22 11:16:33:560
-0.6178;-9.8459;-0.8434;0.3042;-9.7602;-0.9035;-0.7651;-0.1151;0.0307;0.1038;-0.1185;-0.0049;54.0;28.6;5.1;13.5;96.27;84.42;-161.39;;38.07;35.17798;126.908905;;;64.51613;0 / 0;86.0;28.0;3.691;1575;2014-11-22 11:16:34:060
-0.2942;-9.9636;-0.6472;0.2804;-9.7315;-1.1791;-0.5354;-0.3302;0.6594;-0.0073;0.0415;-0.0134;54.0;28.2;4.6;14.5;103.84;83.34;-166.77;;44.713;35.17798;126.908905;;;64.51613;0 / 0;86.0;28.0;3.691;2096;2014-11-22 11:16:34:581
-0.3334;-9.9832;-0.6178;0.2768;-9.7319;-1.1764;-0.5791;-0.2699;0.4624;0.0208;-0.044;0.0;54.0;28.2;5.1;15.5;105.21;83.13;-166.6;;35.512;35.17798;126.908905;;;64.51613;0 / 0;86.0;28.0;3.691;2603;2014-11-22 11:16:35:088
-0.2157;-9.8557;-0.6865;0.2777;-9.7304;-1.1884;-0.4821;-0.2018;0.496;0.0257;-0.011;-0.0012;54.0;28.6;5.1;14.5;103.64;82.97;-166.65;;34.936;35.17798;126.908905;;;64.51613;0 / 0;86.0;28.0;3.691;3119;2014-11-22 11:16:35:604
-0.0686;-9.9734;-0.6767;0.2606;-9.718;-1.2892;-0.5651;-0.2457;0.5549;0.0354;-0.0953;-0.0183;54.0;28.2;4.2;14.0;104.05;82.29;-168.57;;35.996;35.17798;126.908905;;;64.51613;0 / 0;86.0;28.0;3.691;3622;2014-11-22 11:16:36:107
-0.5884;-9.9145;-0.559;0.3094;-9.7293;-1.1895;-0.8452;-0.2228;0.601;0.044;0.0953;0.022;54.0;28.2;5.1;14.5;104.18;83.05;-167.17;;39.294;35.17798;126.908905;;;64.51613;0 / 0;86.0;28.0;3.691;4133;2014-11-22 11:16:36:618
-0.1373;-9.9636;-0.5492;0.288;-9.737;-1.1303;-0.3549;-0.1852;0.5556;0.0147;0.0183;-0.0147;54.0;28.2;5.1;14.0;106.52;83.27;-170.27;;40.294;35.17798;126.908905;;;64.51613;0 / 0;86.0;28.0;3.691;4649;2014-11-22 11:16:37:134
-0.353;-9.9636;-0.9316;0.1156;-9.7287;-1.2283;-0.4144;-0.2299;0.261;0.011;-0.1759;-0.0623;54.0;28.2;5.1;15.0;114.35;83.08;-177.32;;35.398;35.17798;126.908905;;;64.51613;0 / 0;86.0;28.0;3.691;5149;2014-11-22 11:16:37:634
-0.1667;-9.9636;-0.8826;0.4011;-9.7036;-1.3602;-0.6371;-0.2498;0.4061;0.0;0.0012;0.0086;54.0;27.7;5.1;15.5;101.92;81.69;-163.57;;39.059;35.17798;126.908905;;;64.51613;0 / 0;86.0;28.0;3.691;5663;2014-11-22 11:16:38:148
-0.1667;-9.9734;-0.9316;0.345;-9.6964;-1.4253;-0.5036;-0.2824;0.5268;0.0024;-0.0367;-0.0208;46.0;27.3;5.1;16.9;107.73;81.61;-166.97;;35.224;35.17798;126.908905;;;64.51613;0 / 0;86.0;28.0;3.691;6183;2014-11-22 11:16:38:668
-0.1079;-10.0224;-0.8924;0.4087;-9.6827;-1.4998;-0.502;-0.2904;0.5871;0.0037;0.0159;-0.0073;46.0;27.3;5.1;16.0;103.81;80.98;-164.73;;35.615;35.17798;126.908905;;;64.51613;0 / 0;86.0;28.0;3.691;6684;2014-11-22 11:16:39:169
-0.1079;-9.993;-1.0199;0.3928;-9.6786;-1.5297;-0.5198;-0.2361;0.5406;0.0318;-0.011;-0.0061;46.0;27.3;5.5;16.9;105.83;80.69;-165.53;;35.49;35.17798;126.908905;;;64.51613;0 / 0;86.0;28.0;3.691;7187;2014-11-22 11:16:39:672
-0.1373;-9.9439;-0.9022;0.3688;-9.6891;-1.4685;-0.5142;-0.2855;0.5449;0.0208;-0.0098;0.0049;46.0;27.3;5.5;16.9;106.42;81.07;-166.04;;35.616;35.17798;126.908905;;;64.51613;0 / 0;86.0;28.0;3.691;7697;2014-11-22 11:16:40:182
-0.2157;-10.0126;-0.9022;0.3695;-9.6942;-1.4343;-0.5754;-0.289;0.5223;0.022;-0.0012;-0.011;46.0;27.3;5.1;15.0;103.02;81.23;-165.51;;35.975;35.17798;126.908905;;;64.51613;0 / 0;86.0;28.0;3.691;8209;2014-11-22 11:16:40:694
-0.255;-10.0126;-0.8532;0.3624;-9.6967;-1.4191;-0.5193;-0.2571;0.4874;0.0257;0.0037;-0.0098;46.0;27.3;5.1;16.0;104.31;81.37;-165.42;;35.377;35.17798;126.908905;;;64.51613;0 / 0;86.0;28.0;3.691;8711;2014-11-22 11:16:41:196
-0.0686;-9.993;-0.912;0.3632;-9.6938;-1.438;-0.4369;-0.2991;0.5245;0.033;0.0073;-0.0037;46.0;27.3;5.1;16.4;103.63;81.32;-165.35;;35.664;35.17798;126.908905;;;64.51613;0 / 0;86.0;28.0;3.691;9212;2014-11-22 11:16:41:697
-0.1373;-9.9734;-0.9316;0.3427;-9.696;-1.4284;-0.5406;-0.3361;0.5057;0.0171;-0.0171;0.0049;46.0;27.3;5.1;16.0;105.66;81.39;-166.51;;35.553;35.17798;126.908905;;;64.51613;0 / 0;86.0;28.0;3.691;9732;2014-11-22 11:16:42:217
-0.2256;-9.9439;-0.7943;0.3373;-9.7023;-1.3864;-0.5545;-0.3014;0.5982;0.0244;-0.0012;-0.0061;46.0;27.7;5.5;15.5;104.41;81.63;-166.33;;35.683;35.17798;126.908905;;;64.51613;0 / 0;86.0;28.0;3.691;10237;2014-11-22 11:16:42:722
-0.1569;-10.0224;-0.814;0.362;-9.6934;-1.4415;-0.703;-0.221;0.5876;-0.0098;-0.0501;-0.0147;46.0;27.3;5.5;15.0;105.4;81.47;-166.23;;35.497;35.17798;126.908905;;;64.51613;0 / 0;86.0;28.0;3.691;10741;2014-11-22 11:16:43:226
0.2746;-10.0616;-0.814;0.4154;-9.6762;-1.5394;-0.1396;-0.3852;0.7241;0.0049;-0.0635;0.0195;46.0;27.3;5.5;16.4;101.0;80.16;-162.38;;37.831;35.17798;126.908905;;;64.51613;0 / 0;86.0;28.0;3.691;11250;2014-11-22 11:16:43:735
-0.1373;-9.8949;-0.9905;0.3079;-9.688;-1.4895;-0.6732;-0.3041;0.5889;-0.0257;0.0611;0.0244;46.0;27.7;5.1;17.4;108.16;81.34;-168.36;;35.776;35.17798;126.908905;;;64.51613;0 / 0;86.0;28.0;3.691;11756;2014-11-22 11:16:44:241
-0.2942;-9.8851;-1.0297;0.2229;-9.6808;-1.5498;-0.5137;-0.2531;0.5293;0.0354;-0.0244;-0.0098;46.0;28.2;5.1;16.0;110.45;80.87;-172.28;;35.776;35.17798;126.908905;;;64.51613;0 / 0;86.0;28.0;3.691;12268;2014-11-22 11:16:44:753
-0.1863;-9.9734;-1.0101;0.3031;-9.6892;-1.4825;-0.4804;-0.2844;0.4739;-0.0012;0.0757;-0.0012;46.0;27.3;5.1;16.4;106.82;80.92;-167.77;;35.82;35.17798;126.908905;;;64.51613;0 / 0;86.0;28.0;3.691;12782;2014-11-22 11:16:45:267
-0.2059;-9.9538;-1.118;0.3083;-9.6707;-1.598;-0.5143;-0.2831;0.48;0.0171;0.0049;-0.0244;46.0;26.9;5.1;18.4;111.11;80.45;-169.08;;35.792;35.17798;126.908905;;;64.51613;0 / 0;86.0;28.0;3.691;13323;2014-11-22 11:16:45:808
-0.049;-9.9145;-1.0885;0.4102;-9.6644;-1.613;-0.4689;-0.2499;0.5202;0.0195;-0.0635;-0.0305;46.0;26.9;6.0;17.4;105.92;80.23;-165.73;;35.62;35.17798;126.908905;;;64.51613;0 / 0;86.0;28.0;3.691;13830;2014-11-22 11:16:46:315
-0.0981;-9.9538;-1.1376;0.4397;-9.66;-1.6317;-0.5836;-0.2617;0.4494;0.0147;0.1161;0.0122;46.0;26.9;5.1;16.9;105.05;80.2;-164.56;;37.192;35.17798;126.908905;;;64.51613;0 / 0;86.0;28.0;3.691;14341;2014-11-22 11:16:46:826
-0.1961;-9.993;-1.0101;0.3981;-9.6602;-1.6411;-0.6266;-0.3141;0.6453;0.0195;-0.0208;-0.0098;40.0;26.9;5.1;17.9;106.2;80.01;-164.54;;35.779;35.17798;126.908905;;;64.51613;0 / 0;86.0;28.0;3.691;14841;2014-11-22 11:16:47:326
-0.0098;-9.9341;-1.2062;0.4681;-9.6468;-1.7004;-0.4875;-0.3072;0.4757;0.0098;-0.044;-0.011;40.0;27.3;5.5;17.4;107.48;79.79;-164.39;;35.857;35.17798;126.908905;;;64.51613;0 / 0;86.0;28.0;3.691;15358;2014-11-22 11:16:47:843
-0.0588;-9.9243;-1.0493;0.4453;-9.6609;-1.6246;-0.5041;-0.2634;0.5753;0.0037;-0.0428;-0.011;45.0;26.4;5.1;18.4;107.55;79.97;-164.64;;35.798;35.17798;126.908905;;;64.51613;0 / 0;86.0;28.0;3.691;15881;2014-11-22 11:16:48:366
-0.1177;-9.9341;-1.1082;0.4427;-9.6521;-1.6764;-0.4035;-0.3506;0.5389;0.0;-0.0367;-0.0244;45.0;26.9;5.5;16.9;106.51;80.04;-164.84;;35.434;35.17798;126.908905;;;64.51613;0 / 0;86.0;28.0;3.691;16398;2014-11-22 11:16:48:883
-0.1765;-9.9832;-0.9512;0.4874;-9.6542;-1.652;-0.6728;-0.3282;0.6936;0.0379;-0.0183;0.0037;45.0;26.9;5.5;16.9;105.79;80.19;-165.61;;36.163;35.17798;126.908905;;;64.51613;0 / 0;86.0;28.0;3.691;16902;2014-11-22 11:16:49:387
-0.0883;-9.993;-0.9611;0.4186;-9.6708;-1.5718;-0.4857;-0.2828;0.5615;0.0195;0.0024;0.0049;45.0;26.9;5.5;17.4;105.33;80.45;-165.09;;35.531;35.17798;126.908905;;;64.51613;0 / 0;86.0;28.0;3.691;17423;2014-11-22 11:16:49:908
-0.1863;-9.8753;-0.912;0.3845;-9.6725;-1.57;-0.8254;-0.3403;0.6498;0.0244;-0.0098;-0.011;45.0;26.4;5.5;18.4;108.97;80.51;-166.24;;35.388;35.17798;126.908905;;;64.51613;0 / 0;86.0;28.0;3.691;17925;2014-11-22 11:16:50:410
0.0392;-10.1205;-0.7453;0.3834;-9.6938;-1.4332;-0.4236;-0.465;0.9109;0.0513;0.0501;0.033;45.0;27.7;5.5;16.9;105.87;80.93;-165.52;;36.385;35.17798;126.908905;;;64.51613;0 / 0;86.0;28.0;3.691;18430;2014-11-22 11:16:50:915
-0.255;-9.8851;-1.0395;0.4443;-9.6752;-1.5373;-0.6098;-0.3181;0.6084;0.0281;0.0171;-0.0159;45.0;26.4;5.5;17.4;106.38;81.05;-166.0;;35.83;35.17798;126.908905;;;64.51613;0 / 0;86.0;28.0;3.691;18939;2014-11-22 11:16:51:424
-0.049;-9.993;-1.118;0.4531;-9.6664;-1.5891;-0.5252;-0.3069;0.4895;0.0183;-0.0049;-0.0098;45.0;26.9;5.1;17.9;106.11;80.3;-164.09;;35.41;35.17798;126.908905;;;64.51613;0 / 0;86.0;28.0;3.691;19440;2014-11-22 11:16:51:925
-0.0196;-9.9341;-1.118;0.4586;-9.6567;-1.6457;-0.5218;-0.2756;0.4767;0.0354;-0.0098;-0.0098;45.0;26.4;6.0;18.4;107.04;79.97;-164.43;;35.963;35.17798;126.908905;;;64.51613;0 / 0;86.0;28.0;3.691;19967;2014-11-22 11:16:52:452
-0.0785;-9.9734;-0.9709;0.4381;-9.6718;-1.5603;-0.4675;-0.2917;0.5502;0.044;0.011;-0.0024;45.0;27.3;5.5;16.4;106.08;80.46;-164.9;;35.45;35.17798;126.908905;;;64.51613;0 / 0;86.0;28.0;3.691;20487;2014-11-22 11:16:52:972
-0.0883;-9.9734;-0.9611;0.4161;-9.6747;-1.5481;-0.5122;-0.3274;0.5835;-0.011;0.0134;-0.011;45.0;26.4;5.5;18.4;105.89;80.76;-164.64;;35.281;35.17798;126.908905;;;64.51613;0 / 0;86.0;28.0;3.691;20995;2014-11-22 11:16:53:480
-0.0098;-9.9341;-1.0787;0.4831;-9.6546;-1.651;-0.5322;-0.3874;0.5526;0.0208;-0.0171;-0.0122;45.0;26.4;5.5;18.9;107.78;79.9;-163.69;;35.221;35.17798;126.908905;;;64.51613;0 / 0;86.0;28.0;3.691;21510;2014-11-22 11:16:53:995
-0.0883;-9.9832;-1.0199;0.505;-9.653;-1.654;-0.5329;-0.3517;0.5962;0.0171;0.0073;-0.0073;45.0;26.4;5.5;17.9;105.71;79.75;-163.14;;35.286;35.17798;126.908905;;;64.51613;0 / 0;86.0;28.0;3.691;22030;2014-11-22 11:16:54:515
0.0196;-9.9538;-1.1278;0.5181;-9.6511;-1.6611;-0.5494;-0.3413;0.5291;0.0147;-0.0134;-0.0086;45.0;26.0;5.5;18.4;107.02;79.75;-162.96;;35.715;35.17798;126.908905;;;64.51613;0 / 0;86.0;28.0;3.691;22544;2014-11-22 11:16:55:029
-0.0098;-9.993;-1.1278;0.5191;-9.6526;-1.6517;-0.4763;-0.281;0.4435;0.022;-0.0305;-0.0049;45.0;26.4;6.0;18.4;105.14;79.83;-162.55;;36.4;35.17798;126.908905;;;64.51613;0 / 0;86.0;28.0;3.691;23062;2014-11-22 11:16:55:547
0.0294;-9.9439;-1.1082;0.4979;-9.65;-1.6734;-0.4692;-0.3233;0.5649;0.011;-0.0037;0.0;45.0;26.4;6.0;17.9;105.69;79.8;-163.12;;36.646;35.17798;126.908905;;;64.51613;0 / 0;86.0;28.0;3.691;23571;2014-11-22 11:16:56:056
0.0294;-9.9636;-1.1082;0.5298;-9.6476;-1.6771;-0.4562;-0.2666;0.6178;0.011;0.0134;-0.0086;45.0;26.4;6.0;17.4;103.36;79.76;-162.33;;35.89;35.17798;126.908905;;;64.51613;0 / 0;86.0;28.0;3.691;24086;2014-11-22 11:16:56:571
0.0392;-9.9145;-1.2651;0.5699;-9.6369;-1.725;-0.5608;-0.2976;0.4715;0.0134;0.0305;-0.0086;45.0;26.0;6.0;18.9;105.68;79.32;-161.72;;35.143;35.17798;126.908905;;;64.51613;0 / 0;86.0;28.0;3.691;24611;2014-11-22 11:16:57:096
0.0294;-9.9145;-1.2062;0.5703;-9.6334;-1.7446;-0.5294;-0.2808;0.566;0.0244;0.0;-0.0037;45.0;26.4;5.5;18.9;105.83;79.21;-161.9;;35.534;35.17798;126.908905;;;64.51613;0 / 0;86.0;28.0;3.691;25125;2014-11-22 11:16:57:610
0.049;-9.9439;-1.1474;0.5622;-9.6344;-1.7416;-0.5817;-0.3184;0.5596;0.0244;-0.0134;-0.0073;45.0;26.4;6.0;18.9;103.85;79.09;-161.43;;35.205;35.17798;126.908905;;;64.51613;0 / 0;86.0;28.0;3.691;25651;2014-11-22 11:16:58:136
-0.0392;-9.9243;-1.1572;0.5294;-9.6435;-1.701;-0.5098;-0.2514;0.4948;0.0489;0.0403;0.0049;45.0;25.6;6.0;19.4;104.22;79.34;-161.75;;35.416;35.17798;126.908905;;;64.51613;0 / 0;86.0;28.0;3.691;26226;2014-11-22 11:16:58:711
-0.0196;-9.9636;-1.1376;0.4974;-9.6556;-1.641;-0.5247;-0.3074;0.4974;0.0159;-0.0098;-0.0049;45.0;26.4;5.5;18.4;105.47;79.97;-162.86;;36.3;35.17798;126.908905;;;64.51613;0 / 0;86.0;28.0;3.691;26727;2014-11-22 11:16:59:212
0.0883;-9.9145;-1.118;0.4946;-9.652;-1.6626;-0.4391;-0.2811;0.5114;0.0195;-0.0232;-0.0073;45.0;26.4;5.5;17.4;105.86;79.78;-163.29;;35.325;35.17798;126.908905;;;64.51613;0 / 0;86.0;28.0;3.691;27227;2014-11-22 11:16:59:712
0.0981;-10.0126;-0.9709;0.5361;-9.6579;-1.6147;-0.4778;-0.3449;0.4775;0.0525;-0.0159;-0.0049;45.0;26.4;5.5;17.4;105.76;79.83;-161.68;;35.568;35.17798;126.908905;;;64.51613;0 / 0;86.0;28.0;3.691;27728;2014-11-22 11:17:00:213
0.049;-9.9636;-1.0493;0.542;-9.6608;-1.5953;-0.4797;-0.2867;0.5362;0.011;-0.0086;-0.0086;45.0;25.6;6.0;18.4;103.89;80.11;-161.24;;35.695;35.17798;126.908905;;;64.51613;0 / 0;86.0;28.0;3.691;28234;2014-11-22 11:17:00:719
0.0098;-9.9538;-1.0885;0.5622;-9.6503;-1.6513;-0.5607;-0.3236;0.5759;0.0244;0.0061;0.0024;45.0;25.6;6.0;18.9;105.17;79.79;-161.1;;35.203;35.17798;126.908905;;;64.51613;0 / 0;86.0;28.0;3.691;28750;2014-11-22 11:17:01:235
0.0686;-10.0126;-1.0689;0.5401;-9.6539;-1.6371;-0.4499;-0.329;0.5083;0.0318;-0.0305;-0.011;45.0;25.6;6.0;17.9;104.38;79.92;-161.77;;35.075;35.17798;126.908905;;;64.51613;0 / 0;86.0;28.0;3.691;29261;2014-11-22 11:17:01:746
0.0196;-10.0224;-1.0297;0.552;-9.6581;-1.6081;-0.5345;-0.3251;0.5095;0.0232;0.0012;-0.0061;45.0;26.0;6.0;18.9;102.25;80.0;-161.16;;36.427;35.17798;126.908905;;;64.51613;0 / 0;86.0;28.0;3.691;29772;2014-11-22 11:17:02:257
0.0392;-9.9832;-1.0003;0.5629;-9.6558;-1.6183;-0.4885;-0.3067;0.5842;0.0244;0.0024;0.0012;45.0;26.4;6.4;17.9;103.44;79.94;-160.82;;40.929;35.17798;126.908905;;;64.51613;0 / 0;86.0;28.0;3.691;30282;2014-11-22 11:17:02:767
0.049;-9.9636;-1.0983;0.5376;-9.66;-1.6018;-0.4976;-0.2539;0.5391;0.0354;-0.0183;-0.0061;45.0;26.9;6.0;16.9;104.2;80.05;-161.56;;36.258;35.17798;126.908905;;;64.51613;0 / 0;86.0;28.0;3.691;30801;2014-11-22 11:17:03:286
0.0098;-9.9636;-1.0395;0.5307;-9.6632;-1.5847;-0.5393;-0.261;0.5642;0.0244;-0.0086;0.0;45.0;26.0;6.0;16.4;101.02;80.19;-161.49;;36.071;35.17798;126.908905;;;64.51613;0 / 0;86.0;28.0;3.691;31302;2014-11-22 11:17:03:787
0.049;-9.9636;-0.9807;0.5321;-9.6649;-1.5737;-0.483;-0.3084;0.5636;0.0244;0.0012;-0.0037;45.0;26.4;6.0;17.4;102.78;80.23;-161.64;;35.059;35.17798;126.908905;;;64.51613;0 / 0;86.0;28.0;3.691;31817;2014-11-22 11:17:04:302
0.0981;-10.042;-1.0101;0.5482;-9.6613;-1.5901;-0.4498;-0.3803;0.578;0.0195;-0.0061;-0.0037;45.0;26.0;6.0;17.9;103.89;80.21;-161.21;;41.359;35.17798;126.908905;;;64.51613;0 / 0;86.0;28.0;3.691;32329;2014-11-22 11:17:04:814
0.1275;-9.9832;-1.0689;0.55;-9.6581;-1.6089;-0.4626;-0.3357;0.5447;0.0232;-0.0134;-0.0073;45.0;25.6;5.5;18.9;103.53;80.05;-160.88;;41.376;35.17798;126.908905;;;64.51613;0 / 0;86.0;28.0;3.691;32841;2014-11-22 11:17:05:326
0.1667;-9.9832;-1.0297;0.5352;-9.6602;-1.6011;-0.3504;-0.3621;0.5834;0.0159;-0.0171;0.0049;45.0;25.6;6.0;18.9;106.14;80.08;-162.01;;35.64;35.17798;126.908905;;;64.51613;0 / 0;86.0;28.0;3.691;33372;2014-11-22 11:17:05:857
0.0686;-9.9439;-1.0199;0.5397;-9.6661;-1.564;-0.4727;-0.2771;0.5388;0.0269;-0.0037;0.0037;45.0;26.4;5.5;17.4;105.58;80.29;-161.4;;35.094;35.17798;126.908905;;;64.51613;0 / 0;86.0;28.0;3.691;33873;2014-11-22 11:17:06:358
0.0098;-9.9341;-1.0101;0.5184;-9.6703;-1.5448;-0.4241;-0.2832;0.5353;0.0171;-0.0122;-0.0012;45.0;26.0;6.0;17.9;104.18;80.44;-161.45;;35.84;35.17798;126.908905;;;64.51613;0 / 0;86.0;28.0;3.691;34374;2014-11-22 11:17:06:859
0.0294;-9.9734;-0.9905;0.5174;-9.6721;-1.5341;-0.4836;-0.3023;0.5514;0.0195;-0.0134;-0.011;45.0;26.0;5.5;18.4;104.0;80.47;-161.26;;42.599;35.17798;126.908905;;;64.51613;0 / 0;86.0;28.0;3.691;34886;2014-11-22 11:17:07:371
-0.0392;-9.993;-0.9709;0.5312;-9.6674;-1.5589;-0.6489;-0.3452;0.5979;0.0183;0.0134;-0.0024;45.0;26.0;6.0;17.9;104.16;80.41;-161.43;;42.2;35.17798;126.908905;;;64.51613;0 / 0;86.0;28.0;3.691;35411;2014-11-22 11:17:07:896
0.0196;-9.9145;-1.1768;0.5319;-9.6608;-1.5991;-0.5109;-0.292;0.4953;0.0159;0.0;-0.011;45.0;26.0;5.5;17.9;103.82;80.22;-161.14;;36.8;35.17798;126.908905;;;64.51613;0 / 0;86.0;28.0;3.691;35915;2014-11-22 11:17:08:400
0.0;-9.9538;-1.0689;0.5446;-9.6594;-1.6031;-0.5468;-0.2943;0.5331;0.0281;-0.0171;0.0;45.0;26.4;6.4;17.4;103.76;80.07;-161.11;;34.987;35.17798;126.908905;;;64.51613;0 / 0;86.0;28.0;3.691;36420;2014-11-22 11:17:08:905
0.0981;-9.9341;-1.0297;0.5378;-9.6629;-1.5839;-0.4784;-0.271;0.5435;0.0281;-0.0122;-0.0049;45.0;25.6;5.5;18.9;102.63;80.1;-160.93;;41.051;35.17798;126.908905;;;64.51613;0 / 0;86.0;28.0;3.691;36920;2014-11-22 11:17:09:405
0.1373;-9.9439;-1.0199;0.5528;-9.6653;-1.5643;-0.4155;-0.2786;0.5444;0.0195;-0.0037;-0.0049;45.0;25.6;6.0;18.4;103.23;80.26;-160.54;;43.025;35.17798;126.908905;;;64.51613;0 / 0;86.0;27.0;3.539;37439;2014-11-22 11:17:09:924
0.0294;-9.8851;-1.1278;0.5387;-9.6634;-1.581;-0.5081;-0.3069;0.4213;0.0342;-0.0244;-0.0073;45.0;26.4;6.0;17.9;103.47;80.33;-160.77;;47.458;35.17798;126.908905;;;64.51613;0 / 0;86.0;27.0;3.539;37951;2014-11-22 11:17:10:436
0.1275;-9.9734;-1.0591;0.5544;-9.6618;-1.5853;-0.5211;-0.302;0.5189;0.0305;-0.0122;-0.0122;87.0;26.0;5.5;18.4;103.59;80.13;-160.93;;43.078;35.17798;126.908905;;;64.51613;0 / 0;86.0;27.0;3.539;38458;2014-11-22 11:17:10:943
0.0196;-9.9636;-1.0885;0.5152;-9.6661;-1.5722;-0.517;-0.2685;0.574;0.0232;-0.0257;-0.0012;48.0;26.4;5.5;17.9;103.51;80.04;-160.87;;39.913;35.17798;126.908905;;;64.51613;0 / 0;86.0;27.0;3.539;38958;2014-11-22 11:17:11:443
0.0981;-9.993;-1.0101;0.5357;-9.6667;-1.5615;-0.5499;-0.2977;0.5288;0.033;-0.0037;-0.0024;48.0;26.0;6.0;17.4;102.5;80.27;-161.35;;37.86;35.17798;126.908905;;;64.51613;0 / 0;86.0;27.0;3.539;39487;2014-11-22 11:17:11:972
0.049;-9.9538;-1.0003;0.517;-9.6704;-1.545;-0.4663;-0.2832;0.5443;0.0281;0.0037;-0.0061;48.0;26.4;6.0;17.4;102.62;80.49;-161.42;;36.602;35.17798;126.908905;;;64.51613;0 / 0;86.0;27.0;3.539;39993;2014-11-22 11:17:12:478
0.0392;-9.9538;-1.0199;0.5168;-9.6701;-1.5467;-0.5358;-0.2642;0.4595;0.0232;-0.0134;-0.0073;48.0;26.4;6.0;18.4;104.25;80.43;-161.52;;35.235;35.17798;126.908905;;;64.51613;0 / 0;86.0;27.0;3.539;40511;2014-11-22 11:17:12:996
0.0392;-9.9734;-1.0297;0.523;-9.6695;-1.5483;-0.4975;-0.2944;0.5687;0.0183;-0.0049;0.0012;48.0;26.4;6.0;17.9;104.06;80.41;-161.34;;41.73;35.17798;126.908905;;;64.51613;0 / 0;86.0;27.0;3.539;41026;2014-11-22 11:17:13:511
0.0392;-10.0028;-0.9807;0.4996;-9.6733;-1.5322;-0.432;-0.3194;0.5203;0.0183;-0.0134;-0.0024;48.0;26.0;6.4;16.9;104.71;80.51;-161.96;;40.749;35.17798;126.908905;;;64.51613;0 / 0;86.0;27.0;3.539;41527;2014-11-22 11:17:14:012
0.049;-9.9636;-0.9611;0.517;-9.6726;-1.5311;-0.473;-0.2933;0.5827;0.022;0.0;0.0;48.0;26.9;6.0;16.9;101.89;80.42;-161.64;;40.664;35.17798;126.908905;;;64.51613;0 / 0;86.0;27.0;3.539;42041;2014-11-22 11:17:14:526
0.0294;-10.0126;-0.912;0.5146;-9.668;-1.5607;-0.4817;-0.285;0.5276;0.0257;-0.0171;-0.0049;48.0;26.0;5.5;18.4;104.62;80.46;-161.89;;38.285;35.17798;126.908905;;;64.51613;0 / 0;86.0;27.0;3.539;42546;2014-11-22 11:17:15:031
-0.0098;-9.9243;-1.0297;0.4756;-9.6762;-1.5214;-0.58;-0.2979;0.5434;0.0257;0.0;-0.0012;48.0;26.9;6.4;16.9;104.99;80.54;-162.24;;36.017;35.17798;126.908905;;;64.51613;0 / 0;86.0;27.0;3.539;43050;2014-11-22 11:17:15:535
-0.0294;-10.0126;-0.9414;0.4631;-9.682;-1.488;-0.4334;-0.2912;0.585;0.0183;-0.0232;0.0024;48.0;26.9;6.0;17.4;105.31;80.86;-162.49;;37.697;35.17798;126.908905;;;64.51613;0 / 0;86.0;27.0;3.539;43552;2014-11-22 11:17:16:037
-0.0883;-9.9734;-0.863;0.4427;-9.699;-1.3798;-0.5666;-0.2951;0.5125;0.0562;-0.044;-0.0061;48.0;26.9;6.0;16.4;104.23;81.25;-162.86;;36.049;35.17798;126.908905;;;64.51613;0 / 0;86.0;27.0;3.539;44070;2014-11-22 11:17:16:555
-0.559;-10.0224;-0.5786;0.5136;-9.6974;-1.3661;-1.2082;-0.3228;0.6754;0.0342;0.044;0.011;48.0;27.3;6.0;16.0;98.32;81.44;-159.4;;36.573;35.17798;126.908905;;;64.51613;0 / 0;86.0;27.0;3.539;44591;2014-11-22 11:17:17:076
0.0294;-9.993;-0.7551;0.3722;-9.7244;-1.2116;-0.3296;-0.2459;0.4187;0.0171;-0.0379;-0.0037;48.0;27.3;5.5;15.0;101.47;82.71;-162.29;;35.16;35.17798;126.908905;;;64.51613;0 / 0;86.0;27.0;3.539;45098;2014-11-22 11:17:17:583
-0.1765;-10.0224;-0.7845;0.3623;-9.727;-1.194;-0.6033;-0.2067;0.4038;0.0293;0.0049;-0.0024;57.0;27.3;6.0;15.5;102.3;82.69;-163.12;;35.057;35.17798;126.908905;;;64.51613;0 / 0;86.0;27.0;3.539;45599;2014-11-22 11:17:18:084
-0.0098;-10.0028;-0.6865;0.381;-9.7202;-1.2423;-0.483;-0.3123;0.5076;-0.0037;-0.0367;-0.0208;57.0;26.9;5.5;15.0;104.38;82.46;-163.69;;35.065;35.17798;126.908905;;;64.51613;0 / 0;86.0;27.0;3.539;46119;2014-11-22 11:17:18:604
-0.0098;-10.0322;-0.7551;0.4282;-9.7101;-1.3045;-0.4395;-0.3225;0.5514;0.0073;-0.0024;-0.0122;57.0;26.9;5.1;16.4;101.1;81.95;-161.83;;35.242;35.17798;126.908905;;;64.51613;0 / 0;86.0;27.0;3.539;46631;2014-11-22 11:17:19:116
-0.0686;-9.993;-0.8434;0.394;-9.7017;-1.3753;-0.5173;-0.3203;0.5504;0.0147;0.0147;-0.0171;50.0;26.9;5.5;16.0;102.36;81.62;-163.42;;34.953;35.17798;126.908905;;;64.51613;0 / 0;86.0;27.0;3.539;47133;2014-11-22 11:17:19:618
-0.0981;-9.9636;-0.8826;0.4366;-9.6975;-1.3923;-0.5572;-0.2843;0.4601;0.0049;-0.0281;-0.0122;50.0;27.3;5.5;16.9;99.6;81.05;-158.26;;35.345;35.17798;126.908905;;;64.51613;0 / 0;86.0;27.0;3.539;47638;2014-11-22 11:17:20:123
0.1177;-9.9538;-1.1082;0.4672;-9.6858;-1.4621;-0.4182;-0.2876;0.4029;0.0195;-0.0929;-0.0257;50.0;26.4;5.5;18.4;105.13;81.0;-162.28;;35.239;35.17798;126.908905;;;64.51613;0 / 0;86.0;27.0;3.539;48149;2014-11-22 11:17:20:634
-0.0883;-9.9832;-0.9709;0.5057;-9.6686;-1.56;-0.5439;-0.2945;0.5473;0.033;0.0611;0.0073;50.0;26.0;6.0;18.4;104.17;80.27;-161.47;;35.366;35.17798;126.908905;;;64.51613;0 / 0;86.0;27.0;3.539;48663;2014-11-22 11:17:21:148
-0.0883;-10.0322;-0.9905;0.4719;-9.677;-1.5174;-0.5585;-0.2777;0.5501;0.0208;-0.0415;-0.0098;50.0;26.0;6.0;18.9;102.98;80.45;-161.79;;35.019;35.17798;126.908905;;;64.51613;0 / 0;86.0;27.0;3.539;49180;2014-11-22 11:17:21:665
-0.0294;-9.9832;-0.9611;0.4786;-9.6804;-1.4937;-0.604;-0.364;0.6436;0.0403;0.0037;0.0;50.0;26.4;5.5;18.9;101.94;80.57;-161.65;;34.942;35.17798;126.908905;;;64.51613;0 / 0;86.0;27.0;3.539;49688;2014-11-22 11:17:22:173
0.0392;-9.9439;-0.912;0.4736;-9.6867;-1.454;-0.4644;-0.2284;0.4965;0.0049;-0.022;-0.011;50.0;26.0;6.0;17.9;103.42;81.04;-161.51;;35.22;35.17798;126.908905;;;64.51613;0 / 0;86.0;27.0;3.539;50211;2014-11-22 11:17:22:696
-0.0196;-9.9636;-0.9414;0.5115;-9.6769;-1.5054;-0.5264;-0.3353;0.5241;0.0147;-0.0134;-0.0037;50.0;26.4;6.0;17.4;102.48;80.67;-161.23;;35.084;35.17798;126.908905;;;64.51613;0 / 0;86.0;27.0;3.539;50731;2014-11-22 11:17:23:216
0.0392;-9.9832;-0.9316;0.5234;-9.6775;-1.4977;-0.4642;-0.314;0.4879;0.0293;-0.0086;0.0;50.0;26.4;6.0;18.4;105.36;80.55;-161.11;;35.01;35.17798;126.908905;;;64.51613;0 / 0;86.0;27.0;3.539;51237;2014-11-22 11:17:23:722
-0.0098;-9.9734;-0.9512;0.4809;-9.6822;-1.481;-0.3829;-0.2714;0.5391;0.0208;-0.0244;-0.0037;50.0;26.0;5.5;17.9;104.44;80.82;-161.63;;35.095;35.17798;126.908905;;;64.51613;0 / 0;86.0;27.0;3.539;51751;2014-11-22 11:17:24:236
0.0196;-9.9636;-0.863;0.4586;-9.6922;-1.4216;-0.4578;-0.2908;0.5481;0.0452;-0.0171;0.0049;50.0;26.0;6.0;17.9;104.61;80.97;-161.76;;35.091;35.17798;126.908905;;;64.51613;0 / 0;86.0;27.0;3.539;52272;2014-11-22 11:17:24:757
0.049;-10.0028;-0.8532;0.4506;-9.6994;-1.3746;-0.5486;-0.2544;0.4822;0.0281;0.0037;-0.0037;50.0;26.9;6.0;17.4;102.8;81.53;-162.31;;35.125;35.17798;126.908905;;;64.51613;0 / 0;86.0;27.0;3.539;52785;2014-11-22 11:17:25:270
-0.0294;-9.9538;-0.7747;0.4291;-9.7021;-1.3625;-0.4306;-0.2703;0.551;0.022;-0.0073;-0.0098;50.0;26.4;6.0;16.4;102.38;81.62;-162.52;;36.949;35.17798;126.908905;;;64.51613;0 / 0;86.0;27.0;3.539;53291;2014-11-22 11:17:25:776
-0.0392;-9.993;-0.8336;0.4701;-9.6957;-1.3936;-0.459;-0.2873;0.53;0.0183;0.011;-0.0134;50.0;26.4;5.5;17.9;103.01;81.47;-161.59;;40.261;35.17798;126.908905;;;64.51613;0 / 0;86.0;27.0;3.539;53818;2014-11-22 11:17:26:303
-0.0392;-9.9145;-0.912;0.4928;-9.6931;-1.4043;-0.5495;-0.2897;0.506;0.0208;0.0086;-0.0086;50.0;26.4;6.0;17.9;102.59;81.24;-161.22;;35.13;35.17798;126.908905;;;64.51613;0 / 0;86.0;27.0;3.539;54340;2014-11-22 11:17:26:825
0.1079;-9.9439;-0.912;0.5272;-9.6812;-1.472;-0.4879;-0.2911;0.4843;0.0195;0.0257;-0.0037;50.0;26.0;5.5;18.4;103.12;80.83;-160.3;;35.764;35.17798;126.908905;;;64.51613;0 / 0;86.0;27.0;3.539;54840;2014-11-22 11:17:27:325
0.0098;-9.9538;-1.0591;0.5313;-9.6749;-1.5117;-0.463;-0.2787;0.5165;0.0257;-0.0195;-0.0012;50.0;26.4;6.0;17.9;102.61;80.61;-159.84;;38.183;35.17798;126.908905;;;64.51613;0 / 0;86.0;27.0;3.539;55346;2014-11-22 11:17:27:831
0.1177;-9.9636;-0.9611;0.5263;-9.6753;-1.5108;-0.4964;-0.2784;0.4415;0.0232;-0.0122;-0.0073;50.0;26.9;6.0;16.4;100.18;80.56;-161.45;;36.82;35.17798;126.908905;;;64.51613;0 / 0;86.0;27.0;3.539;55870;2014-11-22 11:17:28:355
-0.0098;-9.9636;-0.9709;0.5156;-9.6762;-1.5083;-0.4862;-0.2873;0.5963;0.0257;-0.0037;-0.0061;50.0;26.4;5.5;17.9;105.08;80.61;-160.82;;36.055;35.17798;126.908905;;;64.51613;0 / 0;86.0;27.0;3.539;56382;2014-11-22 11:17:28:867
0.0392;-9.9832;-1.0199;0.5303;-9.6703;-1.5407;-0.5284;-0.3425;0.5425;0.0183;-0.0012;-0.0098;50.0;26.0;6.0;18.9;105.23;80.44;-161.01;;35.235;35.17798;126.908905;;;64.51613;0 / 0;86.0;27.0;3.539;56899;2014-11-22 11:17:29:384
0.0588;-9.9734;-1.0591;0.5441;-9.6708;-1.533;-0.495;-0.3123;0.5127;0.0208;-0.0012;-0.0086;50.0;26.0;6.0;18.9;104.95;80.49;-160.72;;38.828;35.17798;126.908905;;;64.51613;0 / 0;86.0;27.0;3.539;57411;2014-11-22 11:17:29:896
0.0686;-9.9636;-0.9905;0.537;-9.6683;-1.5512;-0.5271;-0.3147;0.5793;0.022;-0.0049;0.0024;50.0;26.0;6.0;18.4;103.5;80.4;-160.78;;38.066;35.17798;126.908905;;;64.51613;0 / 0;86.0;27.0;3.539;57919;2014-11-22 11:17:30:404
0.0785;-9.9734;-1.0395;0.5308;-9.6723;-1.5283;-0.5116;-0.3011;0.5375;0.0281;0.0;-0.0037;50.0;26.9;5.5;17.9;101.68;80.51;-160.47;;36.466;35.17798;126.908905;;;64.51613;0 / 0;86.0;27.0;3.539;58426;2014-11-22 11:17:30:911
0.0;-9.9734;-0.9709;0.5116;-9.6763;-1.5093;-0.5018;-0.2775;0.5679;0.0269;-0.0061;0.0012;50.0;26.0;6.0;18.4;101.78;80.55;-161.49;;34.889;35.17798;126.908905;;;64.51613;0 / 0;86.0;27.0;3.539;58932;2014-11-22 11:17:31:417
-0.0098;-9.9734;-0.9709;0.5045;-9.6817;-1.4768;-0.4663;-0.2819;0.4668;0.0281;0.0257;-0.0049;50.0;26.0;6.4;18.4;103.96;80.84;-161.14;;41.08;35.17798;126.908905;;;64.51613;0 / 0;86.0;27.0;3.539;59446;2014-11-22 11:17:31:931
0.0294;-10.0126;-1.0297;0.5107;-9.6786;-1.4949;-0.5083;-0.2654;0.4959;0.022;0.0098;0.0;50.0;26.4;5.5;17.9;102.72;80.69;-160.89;;39.042;35.17798;126.908905;;;64.51613;0 / 0;86.0;27.0;3.539;59957;2014-11-22 11:17:32:442
0.0785;-9.9538;-1.0101;0.5128;-9.6774;-1.5015;-0.5153;-0.2963;0.532;0.0244;-0.0049;-0.0024;50.0;26.4;6.0;18.9;104.81;80.76;-162.01;;40.271;35.17798;126.908905;;;64.51613;0 / 0;86.0;27.0;3.539;60462;2014-11-22 11:17:32:947
0.0392;-9.9636;-0.9807;0.4988;-9.6753;-1.5202;-0.4538;-0.2877;0.5375;0.0183;-0.0171;-0.0073;50.0;26.4;5.5;18.4;104.96;80.67;-162.19;;35.196;35.17798;126.908905;;;64.51613;0 / 0;86.0;27.0;3.539;60984;2014-11-22 11:17:33:469
0.0196;-9.9636;-1.0101;0.5112;-9.6732;-1.5288;-0.4916;-0.2901;0.5174;0.0159;-0.0134;-0.0122;50.0;26.4;5.5;17.9;103.5;80.58;-161.69;;34.998;35.17798;126.908905;;;64.51613;0 / 0;86.0;27.0;3.539;61511;2014-11-22 11:17:33:996
0.0785;-9.9341;-1.0199;0.5064;-9.6719;-1.5392;-0.4543;-0.2619;0.5181;0.0293;0.0086;-0.0049;50.0;26.0;6.0;18.9;106.02;80.49;-161.79;;35.143;35.17798;126.908905;;;64.51613;0 / 0;86.0;27.0;3.539;62028;2014-11-22 11:17:34:513
0.1079;-9.9538;-1.0199;0.4904;-9.6786;-1.5016;-0.3841;-0.2754;0.4827;0.0183;0.0049;-0.0012;50.0;26.0;5.5;19.4;105.98;80.74;-161.69;;36.756;35.17798;126.908905;;;64.51613;0 / 0;86.0;27.0;3.539;62528;2014-11-22 11:17:35:013
-0.0098;-10.0126;-0.9905;0.5218;-9.6739;-1.5209;-0.474;-0.2212;0.5409;0.0195;0.0;-0.0024;50.0;26.4;5.5;17.9;103.82;80.56;-161.06;;41.883;35.17798;126.908905;;;64.51613;0 / 0;86.0;27.0;3.539;63045;2014-11-22 11:17:35:530
0.0686;-9.9832;-1.0787;0.5483;-9.6682;-1.548;-0.5287;-0.3346;0.5575;0.0183;0.0086;-0.0037;50.0;26.4;6.0;18.4;103.25;80.37;-160.53;;37.125;35.17798;126.908905;;;64.51613;0 / 0;86.0;27.0;3.539;63546;2014-11-22 11:17:36:031
-0.0294;-9.9636;-1.0689;0.5209;-9.6717;-1.5356;-0.4719;-0.2625;0.4961;0.0269;-0.0183;-0.0037;50.0;26.4;5.5;18.9;102.88;80.44;-161.1;;39.862;35.17798;126.908905;;;64.51613;0 / 0;86.0;27.0;3.539;64057;2014-11-22 11:17:36:542
0.0294;-9.9341;-1.0689;0.5173;-9.6695;-1.5502;-0.4982;-0.3232;0.5972;0.0159;0.0134;-0.0049;50.0;26.0;5.5;19.4;105.76;80.41;-161.55;;37.714;35.17798;126.908905;;;64.51613;0 / 0;87.8;27.0;3.544;64559;2014-11-22 11:17:37:044
0.049;-9.9734;-1.0297;0.5109;-9.6741;-1.5238;-0.4514;-0.2699;0.4554;0.0367;0.0061;0.0061;50.0;26.4;5.5;18.9;104.09;80.44;-161.36;;46.697;35.17798;126.908905;;;64.51613;0 / 0;87.8;27.0;3.544;65069;2014-11-22 11:17:37:554
0.0392;-9.9341;-1.0199;0.4612;-9.6775;-1.5177;-0.4116;-0.2473;0.4425;0.0244;-0.0134;-0.0098;50.0;26.4;6.4;18.9;106.94;80.73;-162.66;;44.063;35.17798;126.908905;;;64.51613;0 / 0;87.8;27.0;3.544;65585;2014-11-22 11:17:38:070
0.0392;-9.9047;-1.0199;0.4862;-9.678;-1.5067;-0.4782;-0.2857;0.5461;0.0232;0.0086;-0.0012;50.0;26.0;6.0;19.4;104.92;80.76;-162.12;;43.355;35.17798;126.908905;;;64.51613;0 / 0;87.8;27.0;3.544;66107;2014-11-22 11:17:38:592
0.0785;-10.0028;-0.9905;0.4825;-9.6774;-1.5118;-0.4528;-0.2964;0.5146;0.0195;-0.0208;-0.011;50.0;26.4;5.5;17.9;105.18;80.69;-162.4;;49.683;35.17798;126.908905;;;64.51613;0 / 0;87.8;27.0;3.544;66610;2014-11-22 11:17:39:095
-0.0098;-9.9734;-0.9512;0.4596;-9.6802;-1.5008;-0.4491;-0.2339;0.5243;0.0257;-0.0195;-0.011;50.0;26.4;6.0;18.4;106.93;80.8;-162.64;;48.037;35.17798;126.908905;;;64.51613;0 / 0;87.8;27.0;3.544;67123;2014-11-22 11:17:39:608
-0.0098;-9.9243;-0.9709;0.507;-9.6735;-1.5287;-0.5462;-0.241;0.5088;0.0147;0.022;-0.0012;50.0;26.0;5.5;19.4;105.67;80.56;-161.43;;48.617;35.17798;126.908905;;;64.51613;0 / 0;87.8;27.0;3.544;67638;2014-11-22 11:17:40:123
0.0686;-9.9734;-1.0787;0.5497;-9.6644;-1.571;-0.5004;-0.3097;0.4967;0.0269;0.0073;-0.0037;50.0;26.4;6.0;19.4;107.26;80.22;-161.65;;48.589;35.17798;126.908905;;;64.51613;0 / 0;87.8;27.0;3.544;68141;2014-11-22 11:17:40:626
0.0588;-9.9243;-1.0493;0.4727;-9.6794;-1.5023;-0.4647;-0.285;0.546;0.033;-0.033;-0.0049;50.0;26.4;6.0;19.4;105.2;80.43;-160.99;;42.831;35.17798;126.908905;;;64.51613;0 / 0;87.8;27.0;3.544;68642;2014-11-22 11:17:41:127
0.0392;-9.9341;-1.1768;0.4762;-9.6709;-1.5549;-0.3802;-0.2644;0.5613;0.0318;-0.0061;0.0024;43.0;26.4;6.0;19.4;106.15;80.58;-161.9;;37.588;35.17798;126.908905;;;64.51613;0 / 0;87.8;27.0;3.544;69142;2014-11-22 11:17:41:627
0.0686;-9.9832;-1.0591;0.4914;-9.6777;-1.507;-0.4831;-0.2962;0.4999;0.0318;-0.0049;-0.0073;43.0;26.9;6.0;17.4;102.6;80.69;-162.29;;35.808;35.17798;126.908905;;;64.51613;0 / 0;87.8;27.0;3.544;69658;2014-11-22 11:17:42:143
-0.0294;-9.9538;-0.863;0.4812;-9.6828;-1.4774;-0.5461;-0.3294;0.5931;0.0122;0.011;-0.0061;43.0;26.9;6.0;17.9;106.29;80.81;-161.99;;35.102;35.17798;126.908905;;;64.51613;0 / 0;87.8;27.0;3.544;70159;2014-11-22 11:17:42:644
-0.0588;-9.9243;-1.0591;0.499;-9.67;-1.5532;-0.5782;-0.2553;0.4936;0.0269;0.0037;-0.0024;43.0;26.4;6.0;18.4;103.97;80.4;-161.25;;34.942;35.17798;126.908905;;;64.51613;0 / 0;87.8;27.0;3.544;70666;2014-11-22 11:17:43:151
0.0588;-10.0028;-1.0787;0.5121;-9.6667;-1.5696;-0.4934;-0.287;0.5295;0.0098;0.0073;-0.0086;43.0;26.4;5.5;18.4;104.63;80.31;-161.93;;35.096;35.17798;126.908905;;;64.51613;0 / 0;87.8;27.0;3.544;71169;2014-11-22 11:17:43:654
0.0098;-9.9341;-1.0395;0.5225;-9.6659;-1.5707;-0.4408;-0.2478;0.5375;0.0318;-0.0061;0.0037;43.0;26.4;6.0;18.4;103.87;80.24;-161.18;;34.991;35.17798;126.908905;;;64.51613;0 / 0;87.8;27.0;3.544;71675;2014-11-22 11:17:44:160
-0.0098;-9.993;-1.0297;0.4971;-9.6767;-1.5114;-0.4983;-0.3143;0.4719;0.0195;0.0061;0.0024;43.0;26.4;5.5;17.9;104.57;80.66;-161.79;;35.077;35.17798;126.908905;;;64.51613;0 / 0;87.8;27.0;3.544;72202;2014-11-22 11:17:44:687
0.0294;-9.9047;-1.0591;0.4773;-9.6806;-1.4931;-0.5204;-0.2931;0.5034;0.0232;-0.0061;-0.0037;43.0;26.0;6.0;18.9;104.97;80.78;-162.17;;35.121;35.17798;126.908905;;;64.51613;0 / 0;87.8;27.0;3.544;72720;2014-11-22 11:17:45:205
-0.049;-9.9538;-0.9807;0.4976;-9.6791;-1.4958;-0.5231;-0.3137;0.5351;0.0342;0.022;0.0037;43.0;26.4;5.5;17.4;105.26;80.76;-162.46;;36.055;35.17798;126.908905;;;64.51613;0 / 0;87.8;27.0;3.544;73226;2014-11-22 11:17:45:711
0.0294;-9.9538;-0.9709;0.4805;-9.6811;-1.4884;-0.4507;-0.2725;0.5167;0.0122;-0.0061;-0.0024;43.0;26.4;5.5;18.4;103.19;80.7;-161.95;;36.747;35.17798;126.908905;;;64.51613;0 / 0;87.8;27.0;3.544;73747;2014-11-22 11:17:46:232
0.0785;-9.9832;-0.9807;0.4635;-9.6794;-1.5052;-0.4438;-0.2933;0.4414;0.0134;-0.0073;-0.0037;43.0;26.9;6.0;17.9;104.72;80.76;-162.89;;35.117;35.17798;126.908905;;;64.51613;0 / 0;87.8;27.0;3.544;74250;2014-11-22 11:17:46:735
0.0588;-9.9734;-0.9611;0.4798;-9.6798;-1.4971;-0.4031;-0.3231;0.5655;0.0183;-0.0098;-0.0061;43.0;26.0;6.0;18.9;106.52;80.78;-162.23;;35.307;35.17798;126.908905;;;64.51613;0 / 0;87.8;27.0;3.544;74765;2014-11-22 11:17:47:250
0.0686;-9.9832;-1.0493;0.5117;-9.6761;-1.5103;-0.4462;-0.2956;0.4824;0.0134;-0.0049;-0.0098;43.0;26.4;6.0;17.9;104.46;80.74;-161.66;;39.252;35.17798;126.908905;;;64.51613;0 / 0;87.8;27.0;3.544;75271;2014-11-22 11:17:47:756
0.0392;-9.9538;-1.0493;0.5112;-9.6709;-1.5434;-0.498;-0.2825;0.529;0.0122;-0.0244;-0.0086;51.0;26.0;6.0;18.4;103.97;80.42;-161.25;;36.723;35.17798;126.908905;;;64.51613;0 / 0;87.8;27.0;3.544;75796;2014-11-22 11:17:48:281
0.1373;-9.9439;-1.0689;0.5316;-9.6673;-1.5595;-0.5896;-0.3451;0.4698;0.0208;0.0073;-0.0049;51.0;26.4;5.5;18.9;105.54;80.36;-161.34;;36.704;35.17798;126.908905;;;64.51613;0 / 0;87.8;27.0;3.544;76316;2014-11-22 11:17:48:801
0.1275;-9.9832;-1.0885;0.5128;-9.6696;-1.5513;-0.4134;-0.3235;0.5224;0.0379;0.0;0.0012;51.0;26.4;6.0;18.4;104.35;80.34;-161.64;;36.226;35.17798;126.908905;;;64.51613;0 / 0;87.8;27.0;3.544;76819;2014-11-22 11:17:49:304
0.1373;-10.0028;-1.0199;0.4983;-9.6728;-1.5357;-0.3869;-0.31;0.5246;0.0208;0.0086;-0.0037;51.0;26.9;6.0;17.4;107.27;80.57;-163.03;;35.04;35.17798;126.908905;;;64.51613;0 / 0;87.8;27.0;3.544;77333;2014-11-22 11:17:49:818
0.0785;-9.9439;-0.9905;0.4963;-9.6781;-1.5025;-0.4194;-0.2665;0.516;0.044;-0.0232;0.0;51.0;26.0;5.5;19.4;105.95;80.68;-161.68;;36.269;35.17798;126.908905;;;64.51613;0 / 0;87.8;27.0;3.544;77844;2014-11-22 11:17:50:329
-0.0785;-10.0028;-0.8434;0.4441;-9.6925;-1.4242;-0.547;-0.2706;0.481;0.0379;-0.0232;0.0024;51.0;26.4;6.0;18.9;104.75;80.92;-161.91;;39.179;35.17798;126.908905;;;64.51613;0 / 0;87.8;27.0;3.544;78349;2014-11-22 11:17:50:834
0.0196;-10.042;-0.8336;0.4413;-9.7028;-1.3535;-0.4174;-0.2905;0.5527;0.0293;0.0024;-0.0122;51.0;26.9;6.4;17.4;102.96;81.68;-162.43;;36.653;35.17798;126.908905;;;64.51613;0 / 0;87.8;27.0;3.544;78858;2014-11-22 11:17:51:343
0.0392;-9.9832;-0.9709;0.4709;-9.6939;-1.4057;-0.5195;-0.2694;0.4926;0.0073;-0.0024;-0.0061;51.0;26.9;5.5;17.9;103.45;81.31;-161.48;;35.753;35.17798;126.908905;;;64.51613;0 / 0;87.8;27.0;3.544;79387;2014-11-22 11:17:51:872
0.0196;-9.9538;-1.0199;0.5143;-9.6755;-1.5137;-0.4339;-0.2586;0.5135;0.0183;-0.022;0.0037;51.0;26.4;6.0;17.9;103.64;80.65;-160.86;;35.295;35.17798;126.908905;;;64.51613;0 / 0;87.8;27.0;3.544;79905;2014-11-22 11:17:52:390
-0.049;-9.9538;-1.0591;0.4584;-9.675;-1.5344;-0.5074;-0.2787;0.4753;0.0244;-0.0208;-0.0012;51.0;26.4;6.0;18.4;106.13;80.6;-163.37;;35.057;35.17798;126.908905;;;64.51613;0 / 0;87.8;27.0;3.544;80438;2014-11-22 11:17:52:923
-0.0196;-9.993;-1.0199;0.4527;-9.6815;-1.4947;-0.4753;-0.2732;0.5289;0.0318;-0.0024;-0.0037;51.0;26.0;5.5;18.9;103.68;80.81;-163.35;;34.979;35.17798;126.908905;;;64.51613;0 / 0;87.8;27.0;3.544;80956;2014-11-22 11:17:53:441
0.0392;-9.9636;-0.9807;0.4823;-9.6846;-1.4652;-0.483;-0.2396;0.4144;0.0;-0.0098;-0.0086;51.0;26.4;5.5;17.9;104.97;80.96;-162.13;;38.998;35.17798;126.908905;;;64.51613;0 / 0;87.8;27.0;3.544;81485;2014-11-22 11:17:53:970
0.0196;-9.993;-1.0983;0.4758;-9.6748;-1.5306;-0.4366;-0.279;0.4911;0.0183;0.011;-0.0061;51.0;26.4;6.0;18.4;102.62;80.65;-162.32;;42.03;35.17798;126.908905;;;64.51613;0 / 0;87.8;27.0;3.544;82029;2014-11-22 11:17:54:514
0.0098;-9.9636;-0.9316;0.5057;-9.676;-1.5129;-0.3945;-0.3098;0.4721;0.0183;0.0;-0.0073;51.0;26.4;5.5;18.4;104.46;80.62;-161.69;;42.511;35.17798;126.908905;;;64.51613;0 / 0;87.8;27.0;3.544;82558;2014-11-22 11:17:55:043
0.0686;-9.9341;-1.1376;0.4917;-9.6779;-1.5055;-0.3936;-0.2775;0.3817;0.0354;-0.0183;-0.0037;51.0;26.4;6.0;17.4;103.16;80.71;-161.91;;37.624;35.17798;126.908905;;;64.51613;0 / 0;87.8;27.0;3.544;83073;2014-11-22 11:17:55:558
0.0883;-9.993;-0.9905;0.4615;-9.683;-1.4824;-0.4223;-0.2708;0.5017;0.0281;-0.0049;-0.0037;51.0;26.9;5.5;17.9;105.58;80.86;-162.75;;36.799;35.17798;126.908905;;;64.51613;0 / 0;87.8;27.0;3.544;83574;2014-11-22 11:17:56:059
0.049;-9.9538;-0.9807;0.4694;-9.6832;-1.4781;-0.4176;-0.2702;0.4963;0.0232;-0.0049;-0.0037;51.0;26.4;5.5;18.4;105.21;80.9;-162.38;;35.069;35.17798;126.908905;;;64.51613;0 / 0;87.8;27.0;3.544;84106;2014-11-22 11:17:56:591
0.049;-9.9832;-1.0199;0.4859;-9.6825;-1.4777;-0.4561;-0.2812;0.498;0.0183;0.0012;-0.0086;51.0;26.9;6.0;17.9;103.67;80.87;-161.8;;35.359;35.17798;126.908905;;;64.51613;0 / 0;87.8;27.0;3.544;84643;2014-11-22 11:17:57:128
0.0294;-9.9439;-1.0493;0.4995;-9.6792;-1.4948;-0.4831;-0.333;0.5008;0.0244;-0.0012;-0.0098;51.0;26.0;5.5;19.4;104.56;80.83;-161.75;;36.787;35.17798;126.908905;;;64.51613;0 / 0;87.8;27.0;3.544;85157;2014-11-22 11:17:57:642
0.0392;-10.0028;-1.0101;0.4766;-9.6757;-1.5242;-0.4477;-0.2976;0.465;0.022;-0.0171;0.0;51.0;26.4;6.0;17.9;105.63;80.65;-162.86;;36.96;35.17798;126.908905;;;64.51613;0 / 0;87.8;27.0;3.544;85700;2014-11-22 11:17:58:185
-0.0196;-9.9734;-1.0493;0.4976;-9.6812;-1.4824;-0.5172;-0.2922;0.4331;0.0293;-0.0098;-0.0012;51.0;26.9;6.0;18.4;103.89;80.91;-162.01;;35.099;35.17798;126.908905;;;64.51613;0 / 0;87.8;27.0;3.544;86231;2014-11-22 11:17:58:716
-0.1079;-9.993;-1.0101;0.4901;-9.6816;-1.4825;-0.5805;-0.3108;0.4743;0.0195;0.0672;-0.0086;51.0;26.4;6.0;18.9;104.39;80.82;-161.57;;34.985;35.17798;126.908905;;;64.51613;0 / 0;87.8;27.0;3.544;86738;2014-11-22 11:17:59:223
0.0392;-9.9636;-0.863;0.5086;-9.6845;-1.4567;-0.0673;-0.3085;0.4956;0.0061;0.0;-0.0293;51.0;26.4;5.5;17.9;105.88;80.91;-163.05;;35.059;35.17798;126.908905;;;64.51613;0 / 0;87.8;27.0;3.544;87257;2014-11-22 11:17:59:742
0.2059;-9.9636;-1.3141;0.5475;-9.674;-1.5114;-0.6903;-0.2108;0.4325;0.0867;0.0525;0.0061;51.0;26.4;5.5;17.4;101.31;80.57;-160.09;;35.347;35.17798;126.908905;;;64.51613;0 / 0;87.8;27.0;3.544;87785;2014-11-22 11:18:00:270
-0.049;-9.9734;-0.9022;0.4021;-9.692;-1.4403;-0.4742;-0.27;0.5094;0.0183;-0.0061;0.0;51.0;26.9;5.1;17.4;103.64;81.19;-163.23;;35.096;35.17798;126.908905;;;64.51613;0 / 0;87.8;27.0;3.544;88286;2014-11-22 11:18:00:771
0.049;-9.9832;-0.9807;0.408;-9.686;-1.4784;-0.3734;-0.2768;0.4966;0.0171;-0.0122;-0.0147;51.0;26.4;5.5;18.4;107.8;81.27;-164.88;;34.947;35.17798;126.908905;;;64.51613;0 / 0;87.8;27.0;3.544;88796;2014-11-22 11:18:01:281
-0.0981;-9.9538;-1.0003;0.4425;-9.6886;-1.4513;-0.5127;-0.2561;0.5631;0.0244;0.0159;0.0;51.0;26.4;6.4;17.4;104.38;81.1;-163.04;;35.159;35.17798;126.908905;;;64.51613;0 / 0;87.8;27.0;3.544;89310;2014-11-22 11:18:01:795
-0.0294;-9.993;-0.9709;0.4193;-9.6896;-1.4513;-0.4684;-0.3034;0.451;0.0305;-0.0024;0.0;51.0;26.4;6.0;18.4;106.77;81.14;-163.88;;35.07;35.17798;126.908905;;;64.51613;0 / 0;87.8;27.0;3.544;89829;2014-11-22 11:18:02:314
0.0196;-9.9538;-0.9709;0.4109;-9.6919;-1.4381;-0.4409;-0.3123;0.464;0.0147;-0.011;-0.0024;51.0;26.9;5.5;16.9;105.58;81.28;-163.62;;35.056;35.17798;126.908905;;;64.51613;0 / 0;87.8;27.0;3.544;90336;2014-11-22 11:18:02:821
0.049;-9.9734;-1.0003;0.4303;-9.6887;-1.4539;-0.3773;-0.2552;0.5692;0.0391;0.0305;-0.0012;51.0;26.9;5.5;18.4;105.43;81.11;-163.51;;35.026;35.17798;126.908905;;;64.51613;0 / 0;87.8;27.0;3.544;90862;2014-11-22 11:18:03:347
-0.0196;-9.9341;-1.0003;0.4689;-9.6924;-1.4171;-0.5074;-0.2703;0.4174;0.0305;-0.0012;0.0012;51.0;26.9;6.0;17.9;103.23;81.29;-161.27;;35.001;35.17798;126.908905;;;64.51613;0 / 0;87.8;27.0;3.544;91368;2014-11-22 11:18:03:853
0.0098;-10.0028;-0.9218;0.426;-9.6981;-1.3913;-0.4135;-0.3062;0.4807;0.0318;0.0086;-0.0024;51.0;26.4;5.1;18.4;104.05;81.3;-162.09;;34.994;35.17798;126.908905;;;64.51613;0 / 0;87.8;27.0;3.544;91877;2014-11-22 11:18:04:362
-0.0588;-9.9439;-1.0003;0.3998;-9.697;-1.4064;-0.4959;-0.2571;0.5468;0.0183;-0.0195;-0.0086;51.0;26.4;6.0;18.9;108.32;81.41;-163.88;;35.15;35.17798;126.908905;;;64.51613;0 / 0;87.8;27.0;3.544;92409;2014-11-22 11:18:04:894
0.0196;-9.9538;-1.0493;0.45;-9.6809;-1.4994;-0.4181;-0.2707;0.4396;0.011;-0.0159;-0.0122;51.0;26.4;6.0;17.9;106.1;80.81;-163.3;;35.057;35.17798;126.908905;;;64.51613;0 / 0;87.8;27.0;3.544;92922;2014-11-22 11:18:05:407
0.0294;-9.993;-0.9905;0.4636;-9.6786;-1.5098;-0.4196;-0.3135;0.4763;0.0232;-0.0049;-0.0037;51.0;26.4;5.5;18.9;107.21;80.73;-162.93;;35.093;35.17798;126.908905;;;64.51613;0 / 0;87.8;27.0;3.544;93460;2014-11-22 11:18:05:945
-0.0294;-10.0322;-0.9512;0.4529;-9.6861;-1.4644;-0.3912;-0.3007;0.5473;0.0672;0.011;0.0171;51.0;26.9;5.5;17.4;103.19;81.01;-162.81;;34.982;35.17798;126.908905;;;64.51613;0 / 0;87.8;27.0;3.544;93969;2014-11-22 11:18:06:454
-0.3138;-9.9243;-0.4903;0.4119;-9.7198;-1.2356;-0.6166;-0.2644;0.615;0.0342;0.0012;0.0843;51.0;27.3;4.6;16.9;102.48;82.37;-161.56;;35.643;35.17798;126.908905;;;64.51613;0 / 0;87.8;27.0;3.544;94492;2014-11-22 11:18:06:977
-0.4315;-9.9439;-0.0294;0.0272;-9.7784;-0.7437;-0.3705;-0.4205;0.4593;0.1503;-0.2236;0.0171;51.0;28.6;4.6;13.5;108.79;84.41;-170.79;;37.544;35.17798;126.908905;;;64.51613;0 / 0;87.8;27.0;3.544;95017;2014-11-22 11:18:07:502
-0.3432;-10.0028;0.559;-0.0241;-9.8008;-0.3387;-0.406;-0.3105;0.8362;0.066;-0.0269;0.0195;51.0;29.5;4.2;11.1;108.63;87.57;-176.46;;38.473;35.17798;126.908905;;;64.51613;0 / 0;87.8;27.0;3.544;95552;2014-11-22 11:18:08:037
-0.4119;-10.0518;0.6669;-0.0245;-9.8051;0.1707;-0.293;-0.1967;0.4993;0.1515;0.0171;0.0318;60.0;29.9;3.3;10.1;251.26;89.5;37.22;;39.228;35.17798;126.908905;;;64.51613;0 / 0;87.8;27.0;3.544;96077;2014-11-22 11:18:08:562
-0.5001;-10.091;0.6767;0.0461;-9.8065;-0.0165;-0.3619;-0.2551;0.5649;-0.1576;-0.0281;-0.066;60.0;30.3;4.6;9.1;265.12;89.22;21.7;;51.159;35.17798;126.908905;;;64.51613;0 / 0;87.8;27.0;3.544;96593;2014-11-22 11:18:09:078
-0.3138;-10.0322;0.0098;-0.0171;-9.7953;-0.4718;-0.6616;-0.1864;0.3217;0.0134;-0.0757;-0.0232;60.0;30.3;3.8;9.6;103.11;87.6;-177.23;;36.286;35.17798;126.908905;;;64.51613;0 / 0;87.8;27.0;3.544;97122;2014-11-22 11:18:09:607
-0.255;-9.9538;0.0392;0.0151;-9.8017;-0.3126;-0.2551;-0.1526;0.368;0.0782;-0.0147;0.0147;60.0;29.5;4.2;11.1;110.19;87.36;177.91;;35.892;35.17798;126.908905;;;64.51613;0 / 0;87.8;27.0;3.544;97650;2014-11-22 11:18:10:135
-0.6472;-10.0028;0.2942;-0.0764;-9.8044;-0.1965;-0.5386;-0.1592;0.4234;0.0134;-0.0122;-0.0012;60.0;30.3;3.8;10.6;125.16;88.7;164.84;;35.604;35.17798;126.908905;;;64.51613;0 / 0;87.8;27.0;3.544;98170;2014-11-22 11:18:10:655
-0.4021;-10.0322;0.353;-0.0413;-9.8026;-0.2797;-0.5143;-0.18;0.3454;0.0086;0.0098;-0.0269;60.0;29.9;3.8;10.1;116.65;88.35;171.59;;35.159;35.17798;126.908905;;;64.51613;0 / 0;87.8;27.0;3.544;98690;2014-11-22 11:18:11:175
-0.3432;-9.993;0.1863;0.0134;-9.8013;-0.3235;-0.3664;-0.2505;0.549;0.022;-0.0122;0.0012;60.0;29.5;3.8;10.6;107.53;88.11;-177.63;;35.366;35.17798;126.908905;;;64.51613;0 / 0;87.8;27.0;3.544;99193;2014-11-22 11:18:11:678
-0.4707;-10.0028;0.1863;-0.0214;-9.802;-0.3024;-0.4499;-0.2007;0.4862;0.033;-0.0183;0.0061;60.0;29.9;3.8;11.1;113.97;88.23;175.95;;35.164;35.17798;126.908905;;;64.51613;0 / 0;87.8;27.0;3.544;99710;2014-11-22 11:18:12:195
-0.657;-10.0126;0.3236;-0.0808;-9.8033;-0.2423;-0.4403;-0.2483;0.5248;0.0281;-0.0012;0.0;60.0;30.8;3.3;10.1;124.01;88.51;163.75;;35.213;35.17798;126.908905;;;64.51613;0 / 0;87.8;27.0;3.544;100213;2014-11-22 11:18:12:698
-0.4805;-10.0126;0.2746;-0.0837;-9.8042;-0.2026;-0.4356;-0.2479;0.5752;0.0257;-0.022;-0.0073;60.0;29.9;3.8;10.1;134.43;88.66;155.58;;35.958;35.17798;126.908905;;;64.51613;0 / 0;87.8;27.0;3.544;100729;2014-11-22 11:18:13:214
-0.4805;-9.9734;0.2844;-0.017;-9.805;-0.1801;-0.5011;-0.2175;0.3311;0.0403;-0.011;0.0024;60.0;29.9;4.2;10.1;121.79;88.7;168.2;;37.818;35.17798;126.908905;;;64.51613;0 / 0;87.8;27.0;3.544;101241;2014-11-22 11:18:13:726
-0.6669;-9.9832;0.2844;-0.0852;-9.805;-0.1592;-0.5484;-0.2473;0.4579;0.0134;0.0;-0.0073;60.0;29.9;3.3;9.6;136.51;88.95;151.85;;35.602;35.17798;126.908905;;;64.51613;0 / 0;87.8;27.0;3.544;101743;2014-11-22 11:18:14:228
-0.4315;-10.0224;0.1373;0.0226;-9.8035;-0.2485;-0.5227;-0.268;0.4348;0.0024;-0.0122;-0.0061;60.0;29.9;4.2;9.6;105.79;88.69;-177.51;;35.234;35.17798;126.908905;;;64.51613;0 / 0;87.8;27.0;3.544;102261;2014-11-22 11:18:14:746
-0.4413;-9.9734;0.2844;0.0023;-9.8031;-0.2621;-0.3981;-0.2491;0.5113;0.033;0.0073;-0.0012;60.0;29.9;3.8;10.1;101.66;88.33;-175.68;;35.227;35.17798;126.908905;;;64.51613;0 / 0;87.8;27.0;3.544;102779;2014-11-22 11:18:15:264
-0.6669;-10.0126;0.2452;-0.0599;-9.8035;-0.2394;-0.5677;-0.2287;0.5728;0.0171;0.0024;-0.0037;60.0;30.8;3.8;8.6;120.96;88.57;169.01;;35.107;35.17798;126.908905;;;64.51613;0 / 0;87.8;27.0;3.544;103300;2014-11-22 11:18:15:785
-0.3825;-9.9636;0.1177;-0.0565;-9.8038;-0.2297;-0.4972;-0.2382;0.4944;0.0269;-0.0171;-0.0159;60.0;30.3;3.8;8.1;118.59;88.62;166.18;;35.12;35.17798;126.908905;;;64.51613;0 / 0;87.8;27.0;3.544;103837;2014-11-22 11:18:16:322
-0.6767;-10.0322;0.3432;-0.0176;-9.8028;-0.2733;-0.3747;-0.1313;0.2831;-0.0012;0.0525;0.0037;60.0;29.9;3.8;10.6;113.63;88.4;176.32;;35.6;35.17798;126.908905;;;64.51613;0 / 0;87.8;27.0;3.544;104374;2014-11-22 11:18:16:859
-0.4511;-10.0322;0.2256;0.0268;-9.8019;-0.3045;-0.3995;-0.2695;0.4614;0.0159;-0.0367;-0.0024;60.0;29.5;3.8;10.6;110.04;88.27;179.88;;37.355;35.17798;126.908905;;;64.51613;0 / 0;87.8;27.0;3.544;104891;2014-11-22 11:18:17:376
-0.4511;-10.0126;0.2746;0.0101;-9.8042;-0.2198;-0.5295;-0.199;0.5874;0.0379;0.0367;0.0086;60.0;29.9;4.2;11.1;104.66;88.6;-174.7;;36.428;35.17798;126.908905;;;64.51613;0 / 0;87.8;27.0;3.544;105402;2014-11-22 11:18:17:887
-0.5394;-10.0028;0.2648;-0.015;-9.8042;-0.2199;-0.4065;-0.1989;0.5253;0.0293;0.0024;-0.0061;60.0;29.9;4.2;10.1;117.92;88.47;169.78;;34.956;35.17798;126.908905;;;64.51613;0 / 0;87.8;27.0;3.544;105913;2014-11-22 11:18:18:398
-0.5884;-10.0224;0.3628;-0.021;-9.8046;-0.1996;-0.5282;-0.2276;0.5428;0.0171;0.0269;0.0049;60.0;29.9;4.2;9.6;101.14;88.91;-175.09;;35.241;35.17798;126.908905;;;64.51613;0 / 0;87.8;27.0;3.544;106419;2014-11-22 11:18:18:904
-0.5492;-10.0616;0.3138;-0.0263;-9.805;-0.1805;-0.5032;-0.1978;0.514;0.0354;0.0061;0.0037;60.0;30.3;3.8;8.6;117.39;89.02;169.2;;35.25;35.17798;126.908905;;;64.51613;0 / 0;87.8;27.0;3.544;106959;2014-11-22 11:18:19:444
-0.4805;-10.0126;0.2746;-0.0014;-9.8049;-0.1832;-0.4497;-0.1978;0.4186;0.022;-0.0208;-0.0073;60.0;30.3;3.8;9.1;109.53;88.85;177.02;;35.369;35.17798;126.908905;;;64.51613;0 / 0;87.8;27.0;3.544;107498;2014-11-22 11:18:19:983
-0.4609;-10.0028;0.3825;0.0099;-9.8054;-0.1547;-0.4833;-0.1384;0.4693;0.0305;0.0159;-0.0012;60.0;30.8;3.8;9.6;104.11;89.09;-176.34;;35.453;35.17798;126.908905;;;64.51613;0 / 0;87.8;27.0;3.544;108016;2014-11-22 11:18:20:501
-0.5394;-10.0028;0.2648;-0.0203;-9.805;-0.1799;-0.4776;-0.1978;0.4629;0.0122;-0.0049;-0.0208;60.0;29.9;4.2;10.6;116.45;88.94;173.57;;35.831;35.17798;126.908905;;;64.51613;0 / 0;87.8;27.0;3.544;108558;2014-11-22 11:18:21:043
-0.4707;-10.0126;0.2942;-0.0158;-9.8045;-0.2038;-0.4689;-0.1885;0.4611;0.0257;-0.011;-0.0037;60.0;30.3;4.2;8.6;109.21;88.81;175.15;;36.361;35.17798;126.908905;;;64.51613;0 / 0;87.8;27.0;3.544;109081;2014-11-22 11:18:21:566
-0.4805;-9.993;0.2746;-0.003;-9.8049;-0.1865;-0.4775;-0.2273;0.5003;0.0232;-0.0037;-0.0012;60.0;31.2;4.2;8.6;106.97;88.91;179.08;;35.44;35.17798;126.908905;;;64.51613;0 / 0;87.8;27.0;3.544;109582;2014-11-22 11:18:22:067
-0.5688;-10.0322;0.353;-0.0508;-9.8052;-0.1594;-0.513;-0.227;0.5101;0.0171;-0.0122;-0.0061;60.0;30.8;3.8;10.1;113.51;89.04;173.11;;35.092;35.17798;126.908905;;;64.51613;0 / 0;87.8;27.0;3.544;110125;2014-11-22 11:18:22:610
-0.5394;-9.9832;0.3236;-0.0093;-9.8051;-0.1734;-0.4212;-0.1976;0.432;0.0183;0.0134;0.0012;60.0;29.9;3.8;10.1;111.37;88.99;176.94;;35.107;35.17798;126.908905;;;64.51613;0 / 0;87.8;27.0;3.544;110653;2014-11-22 11:18:23:138
-0.5198;-10.0322;0.2746;-0.0203;-9.8055;-0.1508;-0.5005;-0.2365;0.4302;0.0122;-0.0195;-0.0061;60.0;30.8;3.3;8.6;113.18;89.16;172.94;;35.071;35.17798;126.908905;;;64.51613;0 / 0;87.8;27.0;3.544;111172;2014-11-22 11:18:23:657
-0.5198;-10.0126;0.3236;0.0027;-9.8052;-0.1673;-0.5234;-0.2073;0.4887;0.0208;0.0061;-0.0024;60.0;30.8;3.8;9.1;106.84;88.98;179.22;;35.037;35.17798;126.908905;;;64.51613;0 / 0;87.8;27.0;3.544;111703;2014-11-22 11:18:24:188
-0.5001;-10.0028;0.304;-0.0091;-9.8053;-0.1611;-0.49;-0.1681;0.4767;0.0208;0.0;-0.0012;60.0;30.3;3.8;10.1;107.36;89.04;178.72;;35.251;35.17798;126.908905;;;64.51613;0 / 0;87.8;27.0;3.544;112204;2014-11-22 11:18:24:689
-0.4903;-10.042;0.304;-0.0139;-9.8056;-0.1434;-0.5002;-0.2168;0.4787;0.0281;-0.0049;-0.0012;60.0;30.8;3.3;9.6;110.92;89.18;175.17;;35.393;35.17798;126.908905;;;64.51613;0 / 0;87.8;27.0;3.544;112720;2014-11-22 11:18:25:205
-0.4903;-9.9832;0.3923;-0.021;-9.8061;-0.0979;-0.4737;-0.177;0.4905;0.0269;0.0;-0.0024;60.0;30.3;3.8;8.6;118.77;89.41;167.86;;36.887;35.17798;126.908905;;;64.51613;0 / 0;87.8;27.0;3.544;113239;2014-11-22 11:18:25:724
-0.5394;-9.993;0.3923;-0.0206;-9.8062;-0.0925;-0.46;-0.2162;0.4456;0.0232;-0.0073;0.0012;60.0;30.3;3.8;9.6;119.5;89.41;168.88;;36.155;35.17798;126.908905;;;64.51613;0 / 0;87.8;27.0;3.544;113767;2014-11-22 11:18:26:252
-0.4707;-10.0224;0.3727;-0.0082;-9.8062;-0.0885;-0.5286;-0.1672;0.5443;0.0147;-0.0195;-0.0061;60.0;30.8;2.9;9.6;116.0;89.48;170.64;;35.308;35.17798;126.908905;;;64.51613;0 / 0;87.8;27.0;3.544;114282;2014-11-22 11:18:26:767
-0.4707;-9.9734;0.4021;-0.0236;-9.8063;-0.0815;-0.5181;-0.1867;0.4732;0.0208;-0.0257;-0.0098;60.0;30.8;3.8;8.6;118.06;89.43;168.06;;38.219;35.17798;126.908905;;;64.51613;0 / 0;87.8;27.0;3.544;114823;2014-11-22 11:18:27:308
-0.3825;-9.993;0.2256;0.0786;-9.8045;-0.189;-0.4443;-0.228;0.4333;0.011;0.0061;-0.0122;60.0;30.3;3.8;8.1;89.84;89.18;-163.24;;35.98;35.17798;126.908905;;;64.51613;0 / 0;87.8;27.0;3.544;115346;2014-11-22 11:18:27:831
-0.5688;-10.042;0.2452;0.0614;-9.8027;-0.2728;-0.6793;-0.2195;0.4823;0.0232;0.0281;0.0073;60.0;30.3;3.8;9.1;93.8;88.37;-167.31;;36.845;35.17798;126.908905;;;64.51613;0 / 0;87.8;27.0;3.544;115883;2014-11-22 11:18:28:368
-0.4119;-10.042;0.4217;0.0024;-9.8059;-0.1244;-0.4143;-0.246;0.5265;0.0244;-0.0122;-0.0073;60.0;30.8;3.3;9.1;112.15;89.08;173.96;;45.467;35.17798;126.908905;;;64.51613;0 / 0;87.8;27.0;3.544;116451;2014-11-22 11:18:28:936
-0.4707;-10.0322;0.3432;0.0313;-9.8056;-0.1386;-0.4733;-0.1971;0.4376;0.0391;-0.0049;-0.0061;60.0;29.9;3.8;10.1;95.59;89.17;-167.26;;38.709;35.17798;126.908905;;;64.51613;0 / 0;87.8;27.0;3.544;116983;2014-11-22 11:18:29:468
-0.4511;-9.9538;0.3138;0.0395;-9.806;-0.1076;-0.3979;-0.2262;0.5624;0.0183;-0.011;-0.0171;60.0;29.9;3.8;9.6;106.77;89.36;-178.41;;42.117;35.17798;126.908905;;;64.51613;0 / 0;87.8;27.0;3.544;117514;2014-11-22 11:18:29:999
-0.2942;-9.7478;-0.2059;-0.1751;-9.7995;-0.3303;0.354;-0.1151;0.8173;0.0709;-0.237;0.066;60.0;30.3;3.3;10.1;103.1;88.5;-174.81;;41.419;35.17798;126.908905;;;64.51613;0 / 0;87.8;27.0;3.544;118048;2014-11-22 11:18:30:533
-0.8336;-9.9832;0.2942;-0.3605;-9.7988;-0.1579;-0.4731;-0.1844;0.4521;0.0403;0.0476;0.0354;60.0;31.6;2.0;11.1;159.94;87.99;130.54;;40.444;35.17798;126.908905;;;64.51613;0 / 0;87.8;27.0;3.544;118552;2014-11-22 11:18:31:037
-0.8336;-9.9145;0.1667;-0.3456;-9.7999;-0.1169;-0.2764;-0.2224;0.4145;0.0269;-0.0562;-0.0037;50.0;31.2;2.5;11.1;176.56;87.84;110.78;;39.008;35.17798;126.908905;;;64.51613;0 / 0;87.8;27.0;3.544;119063;2014-11-22 11:18:31:548
-0.8238;-9.9636;0.2746;-0.3364;-9.8;-0.1342;-0.2996;-0.2428;0.4702;0.0379;-0.022;-0.0183;50.0;32.1;2.0;9.6;175.59;87.88;111.75;;37.98;35.17798;126.908905;;;64.51613;0 / 0;87.8;27.0;3.544;119572;2014-11-22 11:18:32:057