ACCELEROMETER X (m/s²),ACCELEROMETER Y (m/s²),ACCELEROMETER Z (m/s²),GRAVITY X (m/s²),GRAVITY Y (m/s²),GRAVITY Z (m/s²),LINEAR ACCELERATION X (m/s²),LINEAR ACCELERATION Y (m/s²),LINEAR ACCELERATION Z (m/s²),GYROSCOPE X (rad/s),GYROSCOPE Y (rad/s),GYROSCOPE Z (rad/s),LIGHT (lux),MAGNETIC FIELD X (μT),MAGNETIC FIELD Y (μT),MAGNETIC FIELD Z (μT),ORIENTATION X (°),ORIENTATION Y (°),ORIENTATION Z (°),PROXIMITY (i),SOUND LEVEL (dB),LOCATION Latitude : ,LOCATION Longitude : ,LOCATION Altitude ( m),LOCATION Altitude-google ( m),LOCATION Speed ( Kmh),LOCATION Accuracy ( m),LOCATION ORIENTATION (°),Satellites in range,Time since start in ms ,YYYY-MO-DD HH-MI-SS_SSS
0.1885,-9.5247,0.3986,0.3838,-9.7784,0.6397,0.2117,0.2895,-0.2746,-0.0195,0.0011,-0.0216,1269.0,-3.3,32.34,-26.88,207.03,85.64,-30.96,2.0,9.757,,,,NaN,,,,0 / 0,9,2014-12-14 11:36:30:248
0.2556,-9.5032,0.6357,0.3867,-9.7799,0.6123,-0.2125,0.3437,0.0449,-0.0205,0.016,-0.0152,1269.0,-3.12,32.58,-26.82,208.45,85.77,-32.27,2.0,9.757,,,,NaN,,,,0 / 0,59,2014-12-14 11:36:30:298
0.3873,-9.6013,0.5614,0.3849,-9.78,0.6132,0.0024,0.1787,-0.0518,-0.0014,-0.016,-0.0162,1269.0,-3.12,32.64,-26.7,208.45,85.77,-32.27,2.0,9.757,,,,NaN,,,,0 / 0,110,2014-12-14 11:36:30:349
0.246,-9.6708,0.5447,0.394,-9.7799,0.6081,-0.148,0.1091,-0.0634,0.0082,0.0437,-0.0056,1269.0,-3.3,32.4,-26.7,208.78,85.75,-32.57,2.0,9.757,,,,NaN,,,,0 / 0,159,2014-12-14 11:36:30:398
0.3537,-9.5319,0.3843,0.4003,-9.7796,0.6101,-0.0465,0.2477,-0.2258,0.0125,-0.0096,-0.0184,1269.0,-3.18,32.76,-27.12,209.14,85.75,-32.9,2.0,10.268,,,,NaN,,,,0 / 0,209,2014-12-14 11:36:30:448
0.2891,-9.6301,0.6261,0.4016,-9.7808,0.5897,-0.2304,0.1624,-0.0693,-0.0205,0.0245,-0.0301,1269.0,-3.06,33.18,-27.06,210.24,85.77,-33.92,2.0,10.268,,,,NaN,,,,0 / 0,259,2014-12-14 11:36:30:498
0.3537,-9.642,0.6309,0.4045,-9.7809,0.5842,-0.0031,0.1341,0.1101,-0.0173,-0.0117,-0.0269,1269.0,-3.12,32.94,-26.82,210.24,85.77,-33.92,2.0,10.268,,,,NaN,,,,0 / 0,309,2014-12-14 11:36:30:548
0.3561,-9.6133,0.6045,0.4111,-9.7808,0.5833,-0.031,0.1866,0.1098,-0.0141,0.0203,-0.0226,1269.0,-3.18,33.0,-26.64,211.55,85.83,-35.17,2.0,10.268,,,,NaN,,,,0 / 0,359,2014-12-14 11:36:30:598
0.2484,-9.4936,0.6644,0.4164,-9.7806,0.5821,-0.0459,0.1649,0.123,-0.0088,0.0298,-0.0216,1269.0,-3.12,33.18,-26.22,211.55,85.83,-35.17,2.0,10.268,,,,NaN,,,,0 / 0,409,2014-12-14 11:36:30:648
0.416,-9.508,0.4633,0.4244,-9.78,0.5866,-0.0084,0.272,-0.1233,-3.0E-4,0.0021,-0.0194,1257.0,-4.44,32.94,-26.1,209.49,85.78,-35.56,2.0,10.268,,,,NaN,,,,0 / 0,459,2014-12-14 11:36:30:698
0.1095,-9.8719,0.662,0.4311,-9.7803,0.5751,-0.305,0.0163,0.0576,-0.0344,-0.0117,-0.0205,1257.0,-4.98,32.04,-26.46,208.46,85.8,-36.86,2.0,10.268,,,,NaN,,,,0 / 0,509,2014-12-14 11:36:30:748
0.5237,-9.7426,0.4729,0.4369,-9.78,0.5767,0.1945,0.1523,-0.1182,0.0423,-0.0309,-0.0152,1257.0,-4.44,32.46,-27.06,211.38,85.77,-37.15,2.0,6.618,,,,NaN,,,,0 / 0,559,2014-12-14 11:36:30:798
0.416,-9.3308,0.255,0.4577,-9.7797,0.5646,0.2695,0.482,-0.4591,0.0125,0.0554,-0.0184,1257.0,-4.26,32.82,-27.06,211.38,85.77,-37.15,2.0,6.618,,,,NaN,,,,0 / 0,609,2014-12-14 11:36:30:848
0.0952,-9.2542,0.7362,0.4498,-9.7802,0.5628,-0.3542,0.5263,0.1772,-0.0067,-0.0458,-0.0226,1257.0,-4.2,32.88,-26.88,213.59,85.8,-39.13,2.0,6.618,,,,NaN,,,,0 / 0,659,2014-12-14 11:36:30:898
0.4423,-9.5415,0.674,0.4568,-9.7796,0.5677,0.0045,0.2312,0.0868,-0.0056,-0.033,-0.0173,1257.0,-3.66,32.94,-26.88,213.3,85.74,-38.82,2.0,6.618,,,,NaN,,,,0 / 0,709,2014-12-14 11:36:30:948
0.2604,-9.8719,0.6548,0.4694,-9.7797,0.5546,-0.2084,-0.0923,0.0971,-0.0301,-0.0032,-0.0301,1257.0,-3.54,33.0,-26.58,213.3,85.74,-38.82,2.0,6.618,,,,NaN,,,,0 / 0,759,2014-12-14 11:36:30:998
0.3561,-9.7474,0.7195,0.47,-9.7799,0.5511,-0.1139,0.0325,0.1683,-0.0259,-0.0479,-0.0216,1257.0,-3.72,32.76,-26.4,214.6,85.75,-40.25,2.0,6.618,,,,NaN,,,,0 / 0,809,2014-12-14 11:36:31:048
0.3633,-9.5343,0.4705,0.5014,-9.7806,0.5101,-0.1381,0.2463,-0.0397,-0.0631,0.0011,-0.0429,1265.0,-4.38,32.76,-26.22,214.6,85.75,-40.25,2.0,6.618,,,,NaN,,,,0 / 0,859,2014-12-14 11:36:31:098
0.3202,-9.666,0.6381,0.5055,-9.7818,0.4811,-0.1853,0.1158,0.157,-0.1026,-0.0106,-0.0482,1265.0,-3.84,32.58,-26.64,219.37,85.82,-44.51,2.0,7.904,,,,NaN,,,,0 / 0,909,2014-12-14 11:36:31:148
0.2245,-9.7522,0.7602,0.514,-9.7838,0.4316,-0.2454,-0.0018,0.4547,-0.1281,-0.0639,-0.0524,1265.0,-4.02,32.64,-27.0,222.82,85.99,-47.87,2.0,7.904,,,,NaN,,,,0 / 0,959,2014-12-14 11:36:31:198
0.325,-9.5104,0.6979,0.5385,-9.7845,0.3823,-0.1134,0.231,0.2029,-0.1249,-0.0426,-0.0663,1265.0,-4.32,33.12,-26.22,227.05,86.11,-52.16,2.0,7.904,,,,NaN,,,,0 / 0,1011,2014-12-14 11:36:31:250
0.4639,-9.5104,0.6189,0.5496,-9.7845,0.3653,-0.107,0.1999,0.1411,-0.0898,-0.0309,-0.0535,1265.0,-4.2,33.54,-26.46,227.05,86.11,-52.16,2.0,7.904,,,,NaN,,,,0 / 0,1059,2014-12-14 11:36:31:298
0.1838,-9.5319,0.2741,0.5689,-9.7854,0.3086,-0.2505,0.3231,-0.1924,-0.1057,-0.0319,-0.0535,1265.0,-4.02,33.96,-26.4,233.99,86.15,-58.64,2.0,7.904,,,,NaN,,,,0 / 0,1109,2014-12-14 11:36:31:348
0.6434,-9.733,0.3316,0.6089,-9.7851,0.2277,-0.0691,0.0832,0.0724,-0.1228,-0.0394,-0.0674,1265.0,-4.62,33.0,-25.44,236.82,86.22,-61.53,2.0,7.904,,,,NaN,,,,0 / 0,1159,2014-12-14 11:36:31:398
0.5309,-9.6205,0.1856,0.617,-9.785,0.2137,-0.086,0.1645,-0.0281,-0.093,-0.0287,-0.0588,1261.0,-4.62,33.72,-25.86,244.49,86.18,-70.9,2.0,7.904,,,,NaN,,,,0 / 0,1209,2014-12-14 11:36:31:448
0.5453,-9.4002,-0.3388,0.6346,-9.7851,0.1469,-0.0893,0.3849,-0.4857,-0.1558,0.1129,-0.0471,1261.0,-4.62,33.9,-25.68,244.49,86.18,-70.9,2.0,7.904,,,,NaN,,,,0 / 0,1259,2014-12-14 11:36:31:498
0.9547,-9.8551,0.6548,0.6939,-9.7821,-0.0256,0.2608,-0.073,0.6804,-0.0983,-0.016,-0.111,1261.0,-3.9,34.38,-25.98,261.09,86.18,-87.1,2.0,5.959,,,,NaN,,,,0 / 0,1309,2014-12-14 11:36:31:548
0.9643,-10.1999,0.2693,0.7332,-9.7793,-0.0039,0.231,-0.4206,0.2732,0.0743,0.1119,-0.094,1223.0,-3.72,34.74,-26.04,268.79,85.94,-92.11,2.0,5.959,,,,NaN,,,,0 / 0,1359,2014-12-14 11:36:31:598
0.1598,-9.6397,-1.0475,0.757,-9.7773,0.0409,-0.5972,0.1377,-1.0883,0.0519,0.2919,-0.0599,1223.0,-4.44,34.38,-24.6,263.78,85.57,-86.91,2.0,5.959,,,,NaN,,,,0 / 0,1409,2014-12-14 11:36:31:648
0.3873,-9.5942,-0.5231,0.7617,-9.777,0.0429,-0.3744,0.1829,-0.5661,0.0871,0.1417,-0.0706,1223.0,-4.8,33.9,-24.48,263.78,85.57,-86.91,2.0,5.959,,,,NaN,,,,0 / 0,1459,2014-12-14 11:36:31:698
0.6578,-9.0986,-0.3555,0.801,-9.7739,0.0209,-0.0034,0.5071,-0.7464,0.0722,0.1236,-0.0535,1223.0,-4.68,33.54,-24.42,262.07,85.43,-87.51,2.0,5.959,,,,NaN,,,,0 / 0,1509,2014-12-14 11:36:31:748
0.6482,-9.2494,-1.567,0.8155,-9.7727,0.0072,-0.4726,0.8323,-1.9375,-0.0717,0.0586,-0.0162,1171.0,-4.5,34.2,-25.26,266.84,85.23,-89.5,2.0,5.959,,,,NaN,,,,0 / 0,1559,2014-12-14 11:36:31:798
0.4806,-8.8879,0.1616,0.7192,-9.7788,-0.1722,-0.2385,0.8909,0.3338,-0.2314,-0.1608,0.0807,1171.0,-4.26,33.96,-25.44,266.84,85.23,-89.5,2.0,5.959,,,,NaN,,,,0 / 0,1609,2014-12-14 11:36:31:848
2.5253,-9.5367,1.4234,0.7462,-9.7764,-0.1909,1.779,0.2397,1.6143,-0.0631,-0.017,0.0072,1171.0,-4.8,33.96,-25.02,280.21,85.68,-103.47,2.0,8.17,,,,NaN,,,,0 / 0,1659,2014-12-14 11:36:31:898
-0.3262,-10.1831,1.4808,0.8062,-9.7734,-0.0274,-1.1325,-0.4097,1.5082,0.2181,0.2184,-0.0013,1171.0,-4.8,33.72,-24.78,274.66,85.23,-99.62,2.0,8.17,,,,NaN,,,,0 / 0,1709,2014-12-14 11:36:31:948
0.2795,-9.9294,-0.1425,0.7105,-9.7802,0.1223,0.5435,-0.5131,0.1639,0.1744,-0.0287,0.0488,1171.0,-4.44,33.9,-24.66,262.72,85.57,-85.87,2.0,8.17,,,,NaN,,,,0 / 0,1759,2014-12-14 11:36:31:998
4.6489,-9.2925,-0.6021,0.776,-9.7742,0.1902,3.4201,-0.4977,-0.3795,0.2469,0.1406,-0.2378,1171.0,-3.48,33.9,-24.36,262.72,85.57,-85.87,2.0,8.17,,,,NaN,,,,0 / 0,1809,2014-12-14 11:36:32:048
-0.3047,-10.0467,-0.4345,1.0285,-9.7492,0.2599,-3.503,-0.0019,-0.7588,-0.0109,0.6924,-0.225,1183.0,-4.32,34.08,-24.42,253.7,84.15,-75.18,2.0,8.17,,,,NaN,,,,0 / 0,1859,2014-12-14 11:36:32:098
1.4359,-9.7139,-0.5447,0.842,-9.7691,0.1653,-1.8791,0.2349,-0.7085,-0.1388,0.1577,0.134,1183.0,-4.02,33.54,-24.96,254.66,84.24,-76.17,2.0,8.17,,,,NaN,,,,0 / 0,1909,2014-12-14 11:36:32:148
2.2021,-9.235,-0.7099,0.9074,-9.7645,0.0618,1.224,0.5225,-0.6406,-0.4381,-0.1971,-0.1387,1183.0,-3.72,33.78,-25.5,254.66,84.24,-76.17,2.0,8.17,,,,NaN,,,,0 / 0,1959,2014-12-14 11:36:32:198
1.412,-9.6732,0.1592,1.0555,-9.7474,-0.2122,0.3708,0.0765,0.3406,-0.3582,-0.261,-0.1494,1183.0,-4.08,33.78,-25.08,274.23,84.17,-95.48,2.0,19.016,,,,NaN,,,,0 / 0,2009,2014-12-14 11:36:32:248
-0.1203,-9.0315,0.3244,0.9876,-9.7525,-0.2937,-1.1283,0.7192,0.605,-0.1579,0.1843,0.0605,1133.0,-3.66,33.36,-24.0,283.16,83.74,-104.37,2.0,19.016,,,,NaN,,,,0 / 0,2059,2014-12-14 11:36:32:298
1.4407,-8.6006,-0.4082,0.9821,-9.7525,-0.3109,0.4476,1.1503,-0.0825,-0.0727,0.0426,0.0221,1133.0,-4.86,33.72,-23.58,283.9,83.97,-107.57,2.0,19.016,,,,NaN,,,,0 / 0,2109,2014-12-14 11:36:32:348
0.5884,-9.2494,-0.6045,1.0124,-9.7463,-0.3923,-0.426,0.4978,-0.2366,-0.1292,0.0171,-0.0493,1133.0,-4.98,34.68,-23.46,283.9,83.97,-107.57,2.0,19.016,,,,NaN,,,,0 / 0,2159,2014-12-14 11:36:32:398
0.5716,-9.5559,-0.6668,0.9682,-9.7462,-0.4952,-0.4096,0.1903,-0.196,-0.1494,0.0916,0.0477,1133.0,-4.68,34.74,-23.4,290.65,83.63,-114.11,2.0,19.016,,,,NaN,,,,0 / 0,2209,2014-12-14 11:36:32:448
0.9284,-10.1353,-0.3986,0.961,-9.7463,-0.5079,-0.1858,-0.2692,0.0757,-0.0802,0.0245,0.0253,1109.0,-4.86,34.02,-22.8,290.65,83.63,-114.11,2.0,19.016,,,,NaN,,,,0 / 0,2259,2014-12-14 11:36:32:498
1.005,-10.2933,-0.3795,0.9403,-9.7465,-0.5421,-0.0186,-0.5994,0.287,-0.0429,0.1651,0.0104,1109.0,-4.68,34.8,-23.22,295.42,83.65,-119.49,2.0,19.016,,,,NaN,,,,0 / 0,2309,2014-12-14 11:36:32:548
0.7153,-10.0658,-0.4369,0.936,-9.7469,-0.5412,-0.2207,-0.3189,0.1043,-0.0365,0.2141,0.0253,1109.0,-4.86,34.92,-23.04,296.14,83.67,-120.04,2.0,19.016,,,,NaN,,,,0 / 0,2359,2014-12-14 11:36:32:598
0.8015,-9.4409,-0.7554,0.9095,-9.7474,-0.5761,-0.108,0.3065,-0.1793,-0.0962,0.1065,-0.0152,1109.0,-4.8,34.92,-22.62,298.25,83.7,-122.35,2.0,21.294,,,,NaN,,,,0 / 0,2409,2014-12-14 11:36:32:648
0.6051,-9.168,-0.5519,0.9185,-9.7423,-0.6443,-0.3133,0.5743,0.0925,-0.1388,-0.0064,-0.0386,1073.0,-4.62,34.68,-22.62,301.04,83.43,-125.05,2.0,21.294,,,,NaN,,,,0 / 0,2459,2014-12-14 11:36:32:698
0.7153,-9.3452,-0.48,0.9183,-9.7372,-0.7168,-0.2922,0.5215,0.1366,-0.143,0.0032,-0.0258,1073.0,-4.26,34.92,-22.62,301.04,83.43,-125.05,2.0,21.294,,,,NaN,,,,0 / 0,2509,2014-12-14 11:36:32:748
0.8685,-9.5391,-0.6189,0.9227,-9.7348,-0.7435,0.019,0.1938,0.085,-0.1345,0.0298,-0.0279,1073.0,-4.26,35.1,-21.9,307.08,83.06,-128.86,2.0,21.294,,,,NaN,,,,0 / 0,2559,2014-12-14 11:36:32:798
0.5884,-9.7546,-0.7554,0.9406,-9.7254,-0.839,-0.2879,-0.0992,0.1597,-0.1611,0.0575,-0.0365,1073.0,-3.84,35.82,-22.2,307.08,83.06,-128.86,2.0,21.294,,,,NaN,,,,0 / 0,2609,2014-12-14 11:36:32:848
0.9547,-9.6277,-0.8056,0.9426,-9.7218,-0.8769,-0.2043,0.0337,0.1992,-0.1494,0.0671,-0.0354,1073.0,-3.9,35.82,-22.62,310.36,82.62,-131.73,2.0,21.294,,,,NaN,,,,0 / 0,2659,2014-12-14 11:36:32:898
0.7655,-9.563,-0.8368,0.9719,-9.7112,-0.9601,-0.2141,0.145,0.1466,-0.192,0.1342,-0.0567,1053.0,-3.54,35.64,-22.02,313.48,81.99,-134.65,2.0,21.294,,,,NaN,,,,0 / 0,2709,2014-12-14 11:36:32:948
0.7153,-9.5798,-0.7506,0.9902,-9.7027,-1.024,-0.2749,0.1229,0.2734,-0.2091,0.1193,-0.062,1053.0,-3.84,36.0,-21.72,313.48,81.99,-134.65,2.0,21.294,,,,NaN,,,,0 / 0,2759,2014-12-14 11:36:32:998
0.89,-9.2853,-1.1289,1.0159,-9.6913,-1.1039,-0.1258,0.406,-0.025,-0.2283,0.0863,-0.0706,1053.0,-3.72,36.06,-21.6,316.54,81.2,-137.38,2.0,10.092,,,,NaN,,,,0 / 0,2809,2014-12-14 11:36:33:048
0.8134,-9.2638,-0.6931,1.0536,-9.6664,-1.274,-0.2402,0.4027,0.5809,-0.3039,0.0586,-0.0812,1001.0,-3.54,36.18,-20.52,318.04,80.81,-138.77,2.0,10.092,,,,NaN,,,,0 / 0,2859,2014-12-14 11:36:33:098
0.8661,-9.3404,-0.7602,1.0777,-9.6542,-1.3443,-0.2116,0.3138,0.5842,-0.2709,0.0288,-0.0897,1001.0,-3.54,36.84,-20.28,318.04,80.81,-138.77,2.0,10.092,,,,NaN,,,,0 / 0,2909,2014-12-14 11:36:33:148
0.7105,-9.4697,-1.1001,1.1338,-9.6259,-1.4925,-0.4233,0.1562,0.3923,-0.3486,0.0874,-0.1089,1001.0,-3.36,37.14,-20.34,323.43,79.88,-141.28,2.0,10.092,,,,NaN,,,,0 / 0,2959,2014-12-14 11:36:33:198
0.811,-9.3212,-1.0786,1.1558,-9.6102,-1.5746,-0.3448,0.289,0.496,-0.3795,0.0437,-0.1196,931.0,-3.12,37.14,-19.32,326.5,78.51,-143.72,2.0,10.092,,,,NaN,,,,0 / 0,3009,2014-12-14 11:36:33:248
1.0313,-9.2757,0.1616,1.1898,-9.59,-1.6695,-0.2734,0.1395,1.1129,-0.3731,0.0149,-0.1377,931.0,-3.24,36.84,-19.32,326.5,78.51,-143.72,2.0,10.092,,,,NaN,,,,0 / 0,3059,2014-12-14 11:36:33:298
0.835,-9.1297,0.9541,1.246,-9.5729,-1.7258,-0.2411,0.3044,1.9975,-0.2645,0.0064,-0.1579,931.0,-3.48,37.08,-18.54,327.59,77.46,-144.17,2.0,10.092,,,,NaN,,,,0 / 0,3109,2014-12-14 11:36:33:348
0.1933,-8.5886,-1.002,1.3141,-9.5801,-1.6327,-1.1208,0.9915,0.6307,-0.1686,0.1342,-0.1622,893.0,-4.08,38.4,-17.64,323.37,77.66,-141.17,2.0,10.092,,,,NaN,,,,0 / 0,3159,2014-12-14 11:36:33:398
0.4567,-8.2726,1.5335,1.3412,-9.5785,-1.6203,-0.8845,1.3059,3.1538,-0.1537,-0.0437,-0.1803,893.0,-4.8,38.1,-18.06,323.37,77.66,-141.17,2.0,4.375,,,,NaN,,,,0 / 0,3209,2014-12-14 11:36:33:448
-0.817,-7.0515,6.6978,1.3274,-9.6642,-1.006,-2.1445,2.6127,7.7038,1.0948,-1.4594,-0.2197,893.0,-4.86,37.56,-17.52,317.59,78.25,-137.33,2.0,4.375,,,,NaN,,,,0 / 0,3259,2014-12-14 11:36:33:498
-0.3262,-5.7491,2.8814,1.3135,-9.7043,-0.5212,-1.6397,3.9552,3.4026,1.3899,-2.204,-0.2591,893.0,-5.22,37.62,-16.8,307.35,80.22,-127.16,2.0,4.375,,,,NaN,,,,0 / 0,3309,2014-12-14 11:36:33:548
-0.0341,-2.8258,0.8296,1.6384,-9.6687,0.0679,-1.6725,6.8429,0.7617,0.2362,-0.7222,-0.4093,1253.0,-5.88,38.1,-16.68,269.14,80.37,-87.63,2.0,4.375,,,,NaN,,,,0 / 0,3359,2014-12-14 11:36:33:598
-6.0484,-6.4961,7.191,1.4008,-9.6943,0.4805,-7.4491,3.1982,6.7105,1.2216,0.5572,0.3268,1253.0,-6.6,37.02,-17.94,269.14,80.37,-87.63,2.0,4.375,,,,NaN,,,,0 / 0,3409,2014-12-14 11:36:33:648
-2.2918,-9.3356,8.7999,1.2029,-9.6337,1.3844,-3.4948,0.2981,7.4154,3.4054,-2.383,0.199,1253.0,-9.6,34.92,-19.74,207.18,79.22,-40.99,2.0,4.375,,,,NaN,,,,0 / 0,3459,2014-12-14 11:36:33:698
0.4711,-13.0753,-3.2717,1.3732,-9.0489,3.5217,-0.9022,-4.0264,-6.7934,3.6461,-1.4977,0.5462,1793.0,-10.74,34.5,-20.1,177.46,73.29,-27.5,2.0,4.375,,,,NaN,,,,0 / 0,3509,2014-12-14 11:36:33:748
-9.2207,-9.9653,-12.4487,1.1648,-8.1943,5.2601,-10.3854,-1.771,-17.7087,3.3191,-1.3188,1.4219,1793.0,-11.52,32.34,-22.14,110.02,56.68,-12.49,2.0,29.112,,,,NaN,,,,0 / 0,3559,2014-12-14 11:36:33:798
-10.4513,6.8636,-19.4014,0.8193,-7.8415,5.8318,-11.2706,14.705,-25.2332,1.4133,-2.1369,3.3766,1793.0,-12.24,30.36,-24.66,110.02,56.68,-12.49,2.0,29.112,,,,NaN,,,,0 / 0,3609,2014-12-14 11:36:33:848
-2.9359,-19.5181,19.8246,2.0102,-7.4704,6.027,-4.9461,-12.0478,13.7976,2.7204,-0.1459,-1.5225,801.0,-12.42,28.08,-27.72,123.24,53.59,-4.07,2.0,29.112,,,,NaN,,,,0 / 0,3659,2014-12-14 11:36:33:898
-1.8824,-19.5181,-14.5651,1.8896,-7.143,6.448,-3.7721,-12.3752,-21.0132,0.7145,-0.7595,1.6136,801.0,-12.6,24.42,-32.16,157.96,46.75,-16.33,2.0,29.112,,,,NaN,,,,0 / 0,3709,2014-12-14 11:36:33:948
-5.1888,-7.6884,14.2156,1.7406,-7.0298,6.6122,-6.9294,-0.6586,7.6034,-1.9412,-0.7947,-0.8589,801.0,-15.12,23.58,-31.74,157.96,46.75,-16.33,2.0,29.112,,,,NaN,,,,0 / 0,3759,2014-12-14 11:36:33:998
-4.7148,5.4271,3.8176,2.1925,-7.5878,5.8127,-6.9073,13.0149,-1.9951,-3.9727,-3.4813,1.0022,801.0,-18.36,21.66,-32.76,160.74,50.69,-20.67,2.0,29.112,,,,NaN,,,,0 / 0,3809,2014-12-14 11:36:34:048
12.2649,-10.4369,7.4352,2.6393,-8.6984,3.6799,9.6256,-1.7385,3.7553,-2.2757,1.5883,0.6613,185.0,-18.48,20.16,-32.82,190.93,62.5,-35.65,2.0,29.112,,,,NaN,,,,0 / 0,3859,2014-12-14 11:36:34:098
10.3783,-1.5137,0.6452,1.8862,-9.1384,3.0173,8.4921,7.6246,-2.3721,-2.4547,3.6805,-0.7715,185.0,-20.04,21.72,-29.34,190.93,62.5,-35.65,2.0,29.112,,,,NaN,,,,0 / 0,3909,2014-12-14 11:36:34:148
-3.1155,-6.6182,-1.5694,2.2627,-9.2771,2.2332,-5.3781,2.6589,-3.8026,-2.933,0.0639,-1.9316,185.0,-21.72,27.06,-22.98,169.56,68.72,-32.01,2.0,72.249,,,,NaN,,,,0 / 0,3959,2014-12-14 11:36:34:198
2.9898,-12.2685,-0.1808,3.8229,-9.0225,0.3853,-0.8332,-3.2459,-0.5661,-3.3122,0.6339,-2.592,305.0,-19.86,28.98,-22.02,220.41,70.85,-68.83,2.0,72.249,,,,NaN,,,,0 / 0,4009,2014-12-14 11:36:34:248
6.7702,-13.1855,-2.8,4.4402,-8.7435,-0.0905,2.9736,-3.1249,-3.6589,-2.8264,0.7872,-3.4805,305.0,-17.52,31.02,-20.94,220.41,70.85,-68.83,2.0,72.249,,,,NaN,,,,0 / 0,4059,2014-12-14 11:36:34:298
6.708,-7.7363,-2.5247,6.3234,-7.4069,-1.1498,0.3846,-0.3294,-1.3749,-2.5356,1.3476,-4.4222,305.0,-20.46,31.44,-16.5,281.2,55.77,-98.43,2.0,72.249,,,,NaN,,,,0 / 0,4109,2014-12-14 11:36:34:348
-4.1617,-4.1593,1.7657,7.9977,-5.5004,-1.3976,-12.1594,1.3411,3.1633,-1.807,2.3383,-3.408,1019.0,-23.34,31.38,-14.16,299.75,40.95,-100.56,2.0,72.249,,,,NaN,,,,0 / 0,4159,2014-12-14 11:36:34:398
-4.1138,-5.3971,0.255,8.6523,-4.5135,-0.9664,-12.7662,-0.8836,1.2213,-1.8166,3.0957,-2.95,1019.0,-28.26,29.1,-11.4,313.88,27.4,-96.37,2.0,72.249,,,,NaN,,,,0 / 0,4209,2014-12-14 11:36:34:448
11.8387,-11.33,5.8311,8.9937,-3.8931,-0.3563,2.8451,-7.4368,6.1874,-0.9335,0.2418,-0.8013,1019.0,-33.54,25.14,-9.9,313.88,27.4,-96.37,2.0,72.249,,,,NaN,,,,0 / 0,4259,2014-12-14 11:36:34:498
12.2864,-3.9415,-13.2723,8.79,-3.6522,-2.3596,7.0375,-7.254,-4.8768,2.9537,-2.3414,1.1172,1019.0,-37.98,18.78,-11.64,287.99,23.92,-98.17,2.0,58.779,,,,NaN,,,,0 / 0,4309,2014-12-14 11:36:34:548
5.7287,-6.374,2.97,8.0364,-4.613,-3.2103,-6.2278,3.0559,2.5847,2.1292,-3.7103,0.9404,963.0,-37.98,18.06,-11.76,278.21,23.68,-106.51,2.0,58.779,,,,NaN,,,,0 / 0,4359,2014-12-14 11:36:34:598
4.7639,5.0631,-0.1568,8.0372,-5.2798,-1.9228,-6.1124,10.915,1.106,2.1686,-0.114,1.538,963.0,-37.14,17.28,-8.22,278.21,23.68,-106.51,2.0,58.779,,,,NaN,,,,0 / 0,4409,2014-12-14 11:36:34:648
-0.9272,-1.2791,-1.8016,8.2968,-5.1507,-0.8965,-11.2092,2.375,-0.3989,1.9747,0.9609,-0.3646,963.0,-37.2,14.22,-0.9,246.67,32.57,-103.45,2.0,58.779,,,,NaN,,,,0 / 0,4459,2014-12-14 11:36:34:698
-0.319,2.1446,-7.5956,8.1826,-5.3895,-0.4102,-12.0906,4.673,-1.7578,1.6583,-0.2013,1.3058,483.0,-37.14,14.16,-0.54,198.37,33.34,-92.87,2.0,58.779,,,,NaN,,,,0 / 0,4509,2014-12-14 11:36:34:748
8.2833,-2.378,-17.3687,7.9221,-5.7633,-0.4413,0.3612,3.3853,-16.9275,0.1552,-0.2429,0.722,483.0,-38.1,14.16,-3.18,198.37,33.34,-92.87,2.0,58.779,,,,NaN,,,,0 / 0,4559,2014-12-14 11:36:34:798
5.2619,-7.8081,-5.0985,8.8671,-3.9684,-1.3403,-3.6052,-3.8397,-3.7581,-0.4093,-1.9515,-0.0652,483.0,-40.74,13.92,-8.28,229.38,32.49,-94.76,2.0,58.779,,,,NaN,,,,0 / 0,4610,2014-12-14 11:36:34:849
8.1134,-3.884,3.2597,8.6175,-4.4945,-1.3075,-0.5041,0.6105,4.5672,-0.5691,1.9026,1.392,349.0,-40.5,15.84,-7.74,256.44,27.28,-98.63,2.0,62.369,,,,NaN,,,,0 / 0,4659,2014-12-14 11:36:34:898
5.6521,-2.8234,1.9309,8.5443,-4.7552,-0.744,-2.8922,1.9318,2.6749,0.167,0.8107,0.7646,349.0,-40.74,14.76,-6.12,256.44,27.28,-98.63,2.0,62.369,,,,NaN,,,,0 / 0,4709,2014-12-14 11:36:34:948
10.9026,-4.3437,-3.4488,8.1886,-5.2815,-1.106,2.714,0.9378,-2.3429,0.428,-0.7308,0.3864,349.0,-41.88,10.02,-4.86,221.98,29.01,-94.98,2.0,62.369,,,,NaN,,,,0 / 0,4759,2014-12-14 11:36:34:998
7.8045,-1.7172,-4.6986,8.2133,-5.2042,-1.2752,-0.4088,3.487,-3.4234,0.1275,-0.1331,-0.0258,349.0,-41.34,11.1,-6.84,228.69,32.05,-98.83,2.0,62.369,,,,NaN,,,,0 / 0,4809,2014-12-14 11:36:35:048
5.2834,-2.8832,-3.3459,8.2784,-5.0138,-1.5817,-2.995,2.1305,-1.7642,-0.4605,0.3526,-0.3209,269.0,-41.1,14.34,-7.02,241.58,30.75,-100.82,2.0,62.369,,,,NaN,,,,0 / 0,4859,2014-12-14 11:36:35:098
9.0854,-6.9079,-0.8511,8.5126,-4.6805,-1.3415,0.5728,-2.2274,0.4904,-0.4179,0.6243,-0.568,269.0,-41.16,14.94,-6.18,241.58,30.75,-100.82,2.0,62.369,,,,NaN,,,,0 / 0,4909,2014-12-14 11:36:35:148
9.5187,-6.7666,-1.0211,8.5367,-4.647,-1.3035,0.9821,-2.1196,0.2824,-0.3955,0.554,-0.4711,269.0,-41.1,14.58,-5.28,243.13,28.29,-98.68,2.0,62.369,,,,NaN,,,,0 / 0,4959,2014-12-14 11:36:35:198
10.4262,-7.5232,-2.3068,8.4996,-4.7101,-1.3203,1.9266,-2.813,-0.9866,-0.1281,-0.1928,0.2874,489.0,-41.28,14.16,-4.8,243.13,28.29,-98.68,2.0,62.369,,,,NaN,,,,0 / 0,5010,2014-12-14 11:36:35:249
8.9322,-5.5623,-2.8359,8.3404,-4.9141,-1.5688,0.5918,-0.6482,-1.2671,0.2245,-0.6072,0.3641,489.0,-40.56,12.6,-6.6,240.16,30.07,-100.65,2.0,62.369,,,,NaN,,,,0 / 0,5059,2014-12-14 11:36:35:298
6.8636,-3.4195,-2.8862,8.2254,-5.0387,-1.7672,-1.3619,1.6192,-1.119,0.2341,-0.2972,0.3033,489.0,-40.32,12.12,-6.24,240.16,30.07,-100.65,2.0,54.834,,,,NaN,,,,0 / 0,5109,2014-12-14 11:36:35:348
5.9969,-3.1777,-2.0339,8.2256,-5.0437,-1.7523,-1.8058,1.3017,-0.3448,-0.1068,0.4346,-0.2506,475.0,-39.9,13.26,-5.1,235.2,31.13,-102.4,2.0,54.834,,,,NaN,,,,0 / 0,5159,2014-12-14 11:36:35:398
8.2187,-5.2726,-2.2709,8.3556,-4.8554,-1.6667,0.3792,-1.0359,-0.7509,-0.1899,-0.0266,-0.3827,475.0,-40.08,13.74,-4.86,240.59,30.42,-101.52,2.0,54.834,,,,NaN,,,,0 / 0,5209,2014-12-14 11:36:35:448
10.2873,-5.9741,-3.2046,8.4044,-4.7157,-1.8157,1.4802,-1.6523,-1.1922,-0.0887,-0.1821,-0.2186,475.0,-40.26,13.8,-5.82,240.59,30.42,-101.52,2.0,54.834,,,,NaN,,,,0 / 0,5259,2014-12-14 11:36:35:498
9.6504,-5.196,-2.9987,8.3945,-4.71,-1.8757,0.688,0.0254,-0.6475,0.053,-0.1523,0.0711,465.0,-40.44,12.84,-5.82,247.54,28.74,-102.19,2.0,54.834,,,,NaN,,,,0 / 0,5309,2014-12-14 11:36:35:548
7.8284,-4.1905,-2.2996,8.3157,-4.834,-1.911,-0.3885,0.5366,-0.3602,0.1052,0.0149,0.265,465.0,-40.86,12.24,-5.28,239.09,29.06,-102.87,2.0,54.834,,,,NaN,,,,0 / 0,5359,2014-12-14 11:36:35:598
7.3017,-3.7332,-2.4624,8.2787,-4.8943,-1.9182,-1.148,1.2312,-0.4568,0.0253,0.0565,0.1691,465.0,-40.68,12.06,-4.86,239.09,29.06,-102.87,2.0,40.624,,,,NaN,,,,0 / 0,5409,2014-12-14 11:36:35:648
7.4909,-3.7715,-2.1225,8.2818,-4.8857,-1.9264,-0.9049,1.1465,-0.1987,-0.0248,0.1055,0.0168,465.0,-40.56,12.3,-4.68,237.5,30.04,-103.12,2.0,40.624,,,,NaN,,,,0 / 0,5459,2014-12-14 11:36:35:698
8.0822,-5.682,-2.721,8.3097,-4.8264,-1.9558,-0.2203,-1.0639,-0.8682,-0.1462,0.1183,-0.1249,481.0,-41.1,12.48,-5.46,237.5,30.04,-103.12,2.0,40.624,,,,NaN,,,,0 / 0,5509,2014-12-14 11:36:35:748
8.5084,-5.9765,-2.9269,8.2964,-4.8441,-1.9682,-0.1423,-1.7358,-1.0258,-0.0674,0.098,-0.045,481.0,-41.28,12.78,-5.1,243.34,29.48,-103.24,2.0,40.624,,,,NaN,,,,0 / 0,5559,2014-12-14 11:36:35:798
8.4868,-4.6789,-2.3068,8.2742,-4.8429,-2.0625,0.306,0.1616,-0.3713,0.0562,-0.1299,-0.0184,481.0,-40.92,13.08,-4.86,242.33,29.59,-104.0,2.0,40.624,,,,NaN,,,,0 / 0,5609,2014-12-14 11:36:35:848
8.0296,-4.6358,-2.302,8.2699,-4.8433,-2.0791,-0.2188,0.1836,-0.2206,0.0604,0.0309,0.0573,481.0,-40.68,13.2,-5.1,242.33,29.59,-104.0,2.0,40.624,,,,NaN,,,,0 / 0,5659,2014-12-14 11:36:35:898
7.443,-4.5424,-2.3667,8.25,-4.8957,-2.0349,-0.8058,0.3561,-0.3338,0.0679,0.1193,0.0946,481.0,-40.74,12.84,-4.8,244.95,29.74,-104.01,2.0,40.624,,,,NaN,,,,0 / 0,5709,2014-12-14 11:36:35:948
8.0966,-4.9111,-2.4696,8.2561,-4.8701,-2.0711,-0.5174,0.2529,-0.5338,-0.0376,-0.0511,-0.1451,481.0,-41.1,12.96,-4.8,241.38,29.97,-103.89,2.0,37.701,,,,NaN,,,,0 / 0,5759,2014-12-14 11:36:35:998
8.3863,-4.856,-2.4912,8.2721,-4.8288,-2.1032,0.195,-0.0144,-0.3422,-0.028,-0.0564,-0.1462,419.0,-40.38,13.38,-5.04,241.38,29.97,-103.89,2.0,37.701,,,,NaN,,,,0 / 0,5809,2014-12-14 11:36:36:048
8.269,-4.9757,-2.3475,8.2875,-4.7835,-2.1461,0.0319,-0.1166,-0.286,-0.029,-0.0394,-0.0833,419.0,-41.1,13.02,-5.46,244.74,29.26,-104.42,2.0,37.701,,,,NaN,,,,0 / 0,5859,2014-12-14 11:36:36:098
8.1804,-4.7459,-2.551,8.2826,-4.7908,-2.1488,-0.0429,0.0045,-0.3976,0.0061,0.0064,0.0285,419.0,-41.1,13.14,-5.64,245.59,29.24,-104.54,2.0,37.701,,,,NaN,,,,0 / 0,5909,2014-12-14 11:36:36:148
8.1421,-4.6956,-2.4768,8.2762,-4.7975,-2.1585,-0.1173,0.1067,-0.3925,0.0072,-0.0138,0.0264,419.0,-40.5,13.02,-5.58,245.59,29.24,-104.54,2.0,37.701,,,,NaN,,,,0 / 0,5959,2014-12-14 11:36:36:198
7.996,-4.4754,-2.5007,8.2618,-4.7903,-2.2281,-0.2658,0.315,-0.2726,-0.0099,0.0085,-0.0013,195.0,-40.86,13.02,-4.98,246.67,29.29,-104.62,2.0,37.701,,,,NaN,,,,0 / 0,6009,2014-12-14 11:36:36:248
7.9027,-4.8896,-2.4936,8.2589,-4.7899,-2.2396,-0.4808,0.1445,-0.2922,-0.0077,0.0192,-0.0045,195.0,-41.46,12.6,-4.38,242.88,29.24,-105.17,2.0,37.701,,,,NaN,,,,0 / 0,6059,2014-12-14 11:36:36:298
8.1756,-5.0356,-2.6348,8.2583,-4.7839,-2.2546,0.0262,-0.2527,-0.3051,0.0114,0.0053,-0.0514,195.0,-41.34,12.84,-4.02,242.88,29.24,-105.17,2.0,28.664,,,,NaN,,,,0 / 0,6109,2014-12-14 11:36:36:348
8.4078,-4.8967,-2.5702,8.2613,-4.7764,-2.2597,0.1489,-0.07,-0.2459,0.0306,0.0256,-0.013,105.0,-40.74,12.66,-5.22,246.01,29.2,-105.27,2.0,28.664,,,,NaN,,,,0 / 0,6159,2014-12-14 11:36:36:398
7.9553,-4.643,-2.3595,8.2604,-4.7787,-2.2583,-0.1327,0.119,-0.0509,0.0146,-0.0245,0.0402,105.0,-40.26,12.84,-5.46,246.16,29.15,-105.3,2.0,28.664,,,,NaN,,,,0 / 0,6209,2014-12-14 11:36:36:448
7.9769,-4.6142,-2.5079,8.2447,-4.7939,-2.2832,-0.3469,0.1989,-0.2343,-0.0045,-0.0192,0.0253,105.0,-40.5,12.78,-4.68,246.14,29.26,-105.48,2.0,28.664,,,,NaN,,,,0 / 0,6259,2014-12-14 11:36:36:498
8.2355,-4.7076,-2.5702,8.2444,-4.7892,-2.2944,-0.0617,0.1558,-0.2518,-0.0099,-0.0053,-0.0194,105.0,-40.08,12.84,-5.22,246.14,29.26,-105.48,2.0,28.664,,,,NaN,,,,0 / 0,6309,2014-12-14 11:36:36:548
8.1445,-4.8297,-2.5079,8.2488,-4.7739,-2.3104,-0.1043,-0.0558,-0.1975,-0.0152,0.0266,-0.012,105.0,-40.08,12.84,-5.16,246.64,29.13,-105.65,2.0,28.664,,,,NaN,,,,0 / 0,6359,2014-12-14 11:36:36:598
7.9553,-4.9853,-2.5534,8.2401,-4.7835,-2.3213,-0.2848,-0.2019,-0.2321,-0.0035,-0.0106,-0.0109,105.0,-40.32,13.14,-5.4,246.64,29.13,-105.65,2.0,28.664,,,,NaN,,,,0 / 0,6409,2014-12-14 11:36:36:648
8.2355,-4.7794,-2.5247,8.2343,-4.7878,-2.3333,-0.0395,0.0515,-0.2297,0.0253,0.0235,-0.0034,105.0,-40.38,13.2,-5.28,246.62,29.23,-105.79,2.0,16.762,,,,NaN,,,,0 / 0,6459,2014-12-14 11:36:36:698
8.1828,-4.722,-2.5223,8.2343,-4.7899,-2.329,-0.1018,0.0871,-0.1454,0.021,0.0245,0.0157,127.0,-40.92,12.9,-4.86,245.55,29.24,-105.79,2.0,16.762,,,,NaN,,,,0 / 0,6509,2014-12-14 11:36:36:748
7.929,-4.7387,-2.5558,8.2263,-4.7992,-2.3379,-0.2301,0.1249,-0.1021,0.0093,0.0107,-0.0152,127.0,-40.92,13.08,-5.1,245.55,29.24,-105.79,2.0,16.762,,,,NaN,,,,0 / 0,6559,2014-12-14 11:36:36:798
8.087,-4.7627,-2.393,8.2298,-4.7842,-2.3562,-0.1499,0.0606,-0.1531,-0.012,-0.016,-0.0279,127.0,-41.16,13.02,-4.98,245.52,29.3,-105.87,2.0,16.762,,,,NaN,,,,0 / 0,6609,2014-12-14 11:36:36:848
8.2259,-4.8129,-2.5438,8.2268,-4.7871,-2.3611,0.0157,-0.0741,-0.1897,-0.0024,0.0021,-0.013,155.0,-40.68,13.2,-4.98,245.87,29.22,-106.01,2.0,16.762,,,,NaN,,,,0 / 0,6659,2014-12-14 11:36:36:898
8.02,-4.7722,-2.5438,8.2208,-4.7844,-2.3873,-0.1441,0.0352,-0.1613,-0.0131,-0.0426,-0.013,155.0,-40.74,12.66,-5.4,245.87,29.22,-106.01,2.0,16.762,,,,NaN,,,,0 / 0,6709,2014-12-14 11:36:36:948
8.0942,-4.7172,-2.5462,8.2205,-4.7838,-2.3896,-0.0748,0.0103,-0.161,0.0072,0.0224,-0.0258,155.0,-40.68,12.66,-5.82,246.14,29.2,-106.19,2.0,16.762,,,,NaN,,,,0 / 0,6759,2014-12-14 11:36:36:998
8.02,-4.7459,-2.4983,8.2194,-4.7821,-2.3963,-0.1396,-0.0166,-0.0325,0.0114,0.0128,-0.0077,147.0,-40.86,13.2,-5.7,247.76,29.19,-106.2,2.0,11.734,,,,NaN,,,,0 / 0,6809,2014-12-14 11:36:37:048
8.0822,-4.7411,-2.4457,8.2202,-4.7806,-2.3967,-0.1362,0.0391,0.0073,8.0E-4,0.0096,-0.0162,147.0,-40.68,13.26,-5.1,246.27,29.18,-106.25,2.0,11.734,,,,NaN,,,,0 / 0,6859,2014-12-14 11:36:37:098
8.1134,-4.722,-2.5941,8.2187,-4.7742,-2.4146,-0.1921,0.0257,-0.1571,-0.0067,-0.033,-0.0226,147.0,-40.68,13.26,-5.1,246.27,29.18,-106.25,2.0,11.734,,,,NaN,,,,0 / 0,6909,2014-12-14 11:36:37:148
8.0774,-4.7555,-2.4217,8.2227,-4.7669,-2.4153,-0.1447,0.0102,-0.0021,-3.0E-4,0.0341,-0.0013,121.0,-41.1,12.42,-5.46,248.07,29.13,-106.37,2.0,11.734,,,,NaN,,,,0 / 0,6959,2014-12-14 11:36:37:198
8.1181,-4.8489,-2.5175,8.2175,-4.7755,-2.4162,-0.1291,-0.0289,-0.1413,-0.0056,0.0096,0.0029,121.0,-40.92,12.78,-4.8,244.07,29.08,-106.37,2.0,11.734,,,,NaN,,,,0 / 0,7009,2014-12-14 11:36:37:248
8.1181,-4.7363,-2.4768,8.2159,-4.7746,-2.4232,-0.098,0.0364,-0.0503,0.0029,-0.0138,-0.0194,121.0,-41.16,12.6,-5.04,246.5,29.14,-106.38,2.0,11.734,,,,NaN,,,,0 / 0,7059,2014-12-14 11:36:37:298
7.9841,-4.7722,-2.3954,8.2145,-4.7742,-2.4289,-0.2292,0.0036,0.0341,-3.0E-4,0.0011,-0.0056,121.0,-40.92,12.6,-4.98,246.5,29.14,-106.38,2.0,11.734,,,,NaN,,,,0 / 0,7109,2014-12-14 11:36:37:348
8.1325,-4.8393,-2.4768,8.2118,-4.7793,-2.428,-0.0664,-0.0881,-0.1164,0.0018,0.0288,-0.0109,147.0,-40.56,12.24,-5.46,244.08,29.16,-106.48,2.0,5.82,,,,NaN,,,,0 / 0,7159,2014-12-14 11:36:37:398
8.1014,-4.7244,-2.5079,8.2124,-4.7721,-2.44,-0.1137,-0.0067,-0.1035,-3.0E-4,-0.0245,-0.0141,147.0,-40.5,12.12,-4.98,245.07,29.14,-106.48,2.0,5.82,,,,NaN,,,,0 / 0,7209,2014-12-14 11:36:37:448
8.1229,-4.7052,-2.5319,8.212,-4.77,-2.4454,-0.0937,0.0551,-0.0947,0.004,0.0117,-0.013,147.0,-40.08,12.3,-5.28,245.26,29.1,-106.58,2.0,5.82,,,,NaN,,,,0 / 0,7260,2014-12-14 11:36:37:499
8.1421,-4.789,-2.5438,8.2099,-4.7701,-2.4521,-0.1068,0.0215,-0.0955,0.005,-0.001,8.0E-4,171.0,-40.26,12.78,-4.98,245.26,29.1,-106.58,2.0,5.82,,,,NaN,,,,0 / 0,7309,2014-12-14 11:36:37:548
8.0798,-4.7722,-2.5007,8.2078,-4.7716,-2.4568,-0.1468,0.0069,-0.0341,-3.0E-4,-0.001,-0.0141,171.0,-39.84,13.02,-5.4,247.92,29.11,-106.63,2.0,5.82,,,,NaN,,,,0 / 0,7359,2014-12-14 11:36:37:598
8.0631,-4.8297,-2.4409,8.2027,-4.7779,-2.4611,-0.1056,-0.0784,0.0168,8.0E-4,0.0075,-0.012,171.0,-40.56,12.3,-5.1,244.39,29.13,-106.69,2.0,5.82,,,,NaN,,,,0 / 0,7409,2014-12-14 11:36:37:648
8.0367,-4.7531,-2.4648,8.2006,-4.7802,-2.4639,-0.1752,0.0088,0.0591,0.0018,-0.001,-0.0098,171.0,-40.32,13.02,-4.86,244.39,29.13,-106.69,2.0,5.82,,,,NaN,,,,0 / 0,7459,2014-12-14 11:36:37:698
8.0966,-4.7794,-2.63,8.1985,-4.7827,-2.4662,-0.1211,-0.0111,-0.0848,-0.0035,-0.0042,-0.0162,171.0,-40.56,13.98,-5.4,249.45,29.19,-106.74,2.0,12.683,,,,NaN,,,,0 / 0,7509,2014-12-14 11:36:37:748
8.0535,-4.7124,-2.472,8.1965,-4.782,-2.4735,-0.0856,0.0361,-0.0775,0.004,0.0128,-0.0098,171.0,-40.98,13.26,-5.28,246.92,29.18,-106.79,2.0,12.683,,,,NaN,,,,0 / 0,7559,2014-12-14 11:36:37:798
8.0224,-4.7698,-2.5031,8.194,-4.7835,-2.4793,-0.1691,0.0497,0.0338,0.004,0.0096,-0.0088,171.0,-40.26,13.38,-5.28,247.98,29.19,-106.83,2.0,12.683,,,,NaN,,,,0 / 0,7609,2014-12-14 11:36:37:848
8.1349,-4.8536,-2.5175,8.1927,-4.7838,-2.4831,-0.0575,-0.0694,-0.0343,0.0018,0.0,-0.0162,163.0,-40.14,13.02,-4.98,247.98,29.19,-106.83,2.0,12.683,,,,NaN,,,,0 / 0,7659,2014-12-14 11:36:37:898
8.166,-4.7627,-2.5151,8.1904,-4.7839,-2.4903,-0.0254,0.0221,-0.0302,-0.0188,-0.0408,6.0E-4,163.0,-40.74,12.66,-4.2,245.3,29.21,-106.87,2.0,12.683,,,,NaN,,,,0 / 0,7709,2014-12-14 11:36:37:948
8.0319,-4.8704,-2.4002,8.1816,-4.7818,-2.523,-0.1495,-0.0893,0.1245,-0.0252,-0.0525,-0.0058,163.0,-40.26,13.08,-4.86,248.33,29.18,-107.1,2.0,12.683,,,,NaN,,,,0 / 0,7759,2014-12-14 11:36:37:998
8.0607,-4.7794,-2.5558,8.1826,-4.7887,-2.5067,-0.1083,0.0614,-0.1314,0.0292,0.0871,0.0272,149.0,-40.14,13.38,-5.46,248.33,29.18,-107.1,2.0,12.683,,,,NaN,,,,0 / 0,7809,2014-12-14 11:36:38:048
7.9482,-4.7938,-2.575,8.1834,-4.7944,-2.4933,-0.0762,0.2089,0.0386,-0.0028,-0.0259,-0.0122,149.0,-40.92,13.02,-5.22,247.13,29.23,-107.03,2.0,9.362,,,,NaN,,,,0 / 0,7859,2014-12-14 11:36:38:098