ACCELEROMETER X (m/s²),ACCELEROMETER Y (m/s²),ACCELEROMETER Z (m/s²),GRAVITY X (m/s²),GRAVITY Y (m/s²),GRAVITY Z (m/s²),LINEAR ACCELERATION X (m/s²),LINEAR ACCELERATION Y (m/s²),LINEAR ACCELERATION Z (m/s²),GYROSCOPE X (rad/s),GYROSCOPE Y (rad/s),GYROSCOPE Z (rad/s),LIGHT (lux),MAGNETIC FIELD X (μT),MAGNETIC FIELD Y (μT),MAGNETIC FIELD Z (μT),ORIENTATION X (°),ORIENTATION Y (°),ORIENTATION Z (°),PROXIMITY (i),SOUND LEVEL (dB),LOCATION Latitude : ,LOCATION Longitude : ,LOCATION Altitude ( m),LOCATION Altitude-google ( m),LOCATION Speed ( Kmh),LOCATION Accuracy ( m),LOCATION ORIENTATION (°),Satellites in range,Time since start in ms ,YYYY-MO-DD HH-MI-SS_SSS
0.9427,-9.575,1.3156,0.926,-9.7021,1.0883,0.0168,0.127,0.2273,-0.0528,0.038,0.007,1427.0,-10.14,29.94,-27.54,204.47,81.62,-40.39,2.0,15.53,,,,NaN,,,,0 / 0,5,2014-12-14 11:37:24:896
0.6698,-9.4745,1.0762,0.9116,-9.7047,1.0762,-0.2418,0.2303,0.0,-0.0539,-0.0312,0.0091,1427.0,-9.24,30.06,-27.66,206.4,81.69,-40.21,2.0,15.53,,,,NaN,,,,0 / 0,55,2014-12-14 11:37:24:946
1.0313,-9.6181,1.0475,0.9152,-9.7077,1.0458,0.1161,0.0896,0.0016,-0.0475,-0.0802,-0.0079,1427.0,-9.9,30.06,-27.84,206.4,81.69,-40.21,2.0,15.53,,,,NaN,,,,0 / 0,105,2014-12-14 11:37:24:996
1.0121,-9.4816,0.844,0.9358,-9.7106,0.9997,0.0763,0.2289,-0.1558,-0.0656,-0.0472,-0.0218,1427.0,-10.08,30.24,-27.66,206.17,81.89,-41.99,2.0,9.048,,,,NaN,,,,0 / 0,155,2014-12-14 11:37:25:046
0.9858,-9.5223,0.9685,0.9361,-9.7134,0.9717,0.0497,0.1911,-0.0033,-0.0901,-3.0E-4,0.0102,1427.0,-10.32,30.72,-27.42,207.8,82.09,-43.93,2.0,9.048,,,,NaN,,,,0 / 0,205,2014-12-14 11:37:25:096
0.7943,-9.654,0.8775,0.9292,-9.7205,0.9064,-0.1377,0.1697,0.0081,-0.071,-0.0482,-0.0186,1427.0,-10.44,30.54,-27.66,210.28,82.39,-45.71,2.0,9.048,,,,NaN,,,,0 / 0,256,2014-12-14 11:37:25:147
0.9499,-9.2973,0.0946,0.9327,-9.723,0.8742,-0.0482,0.2876,-0.4509,-0.105,-0.0759,-0.0111,1427.0,-10.26,30.84,-27.24,210.28,82.39,-45.71,2.0,9.048,,,,NaN,,,,0 / 0,305,2014-12-14 11:37:25:196
1.0002,-9.2422,0.2286,0.9349,-9.7357,0.716,-0.0373,0.2671,-0.2526,-0.2137,-0.012,0.0144,1427.0,-10.32,30.72,-27.06,213.09,82.74,-48.94,2.0,9.048,,,,NaN,,,,0 / 0,355,2014-12-14 11:37:25:246
0.9068,-9.6923,0.9301,0.9349,-9.7411,0.6379,3.0E-4,-0.0654,0.2405,-0.218,0.0114,-0.0047,1427.0,-10.68,30.48,-27.42,213.09,82.74,-48.94,2.0,9.048,,,,NaN,,,,0 / 0,405,2014-12-14 11:37:25:296
0.9284,-9.7689,0.9637,0.9319,-9.7481,0.5266,-0.0061,-0.0199,0.4552,-0.218,-0.0429,0.0198,1405.0,-11.1,31.38,-26.82,218.06,83.37,-55.69,2.0,9.048,,,,NaN,,,,0 / 0,455,2014-12-14 11:37:25:346
0.9762,-9.4912,0.3436,0.9355,-9.7505,0.473,0.0331,0.2605,-0.086,-0.202,-0.0749,-0.0154,1405.0,-11.16,31.26,-26.52,225.87,83.86,-63.18,2.0,13.373,,,,NaN,,,,0 / 0,505,2014-12-14 11:37:25:396
0.9116,-9.8216,0.6692,0.9478,-9.7547,0.3425,0.0114,0.0374,0.477,-0.1477,-0.0525,0.0176,1405.0,-10.74,31.56,-26.28,232.68,84.1,-70.13,2.0,13.373,,,,NaN,,,,0 / 0,555,2014-12-14 11:37:25:446
0.8829,-9.5511,-0.0156,0.9348,-9.7577,0.2901,-0.1151,0.0525,-0.1266,-0.0422,-0.0355,0.0538,1373.0,-11.04,31.62,-25.86,234.13,84.18,-71.56,2.0,13.373,,,,NaN,,,,0 / 0,605,2014-12-14 11:37:25:496
1.072,-9.2638,-0.6333,0.9204,-9.7603,0.2509,-0.1287,0.791,-1.1621,-0.0656,-0.0205,0.0592,1373.0,-10.74,31.98,-25.62,234.13,84.18,-71.56,2.0,13.373,,,,NaN,,,,0 / 0,655,2014-12-14 11:37:25:546
0.8805,-9.8312,0.2693,0.8945,-9.7656,0.0515,-0.0075,0.1187,-0.3338,-0.2861,-0.0078,-0.0047,1373.0,-10.86,32.4,-24.66,243.51,84.61,-79.27,2.0,13.373,,,,NaN,,,,0 / 0,705,2014-12-14 11:37:25:596
1.0385,-9.8767,0.243,0.8945,-9.7658,-0.0057,0.144,-0.1109,0.2487,-0.2457,-0.0653,0.0357,1373.0,-10.74,32.52,-25.2,252.75,84.77,-90.36,2.0,13.373,,,,NaN,,,,0 / 0,755,2014-12-14 11:37:25:646
0.9906,-9.927,0.5734,0.8992,-9.7646,-0.1267,0.0914,-0.1624,0.7002,-0.1668,0.0104,-0.0388,1347.0,-10.74,32.4,-25.26,252.75,84.77,-90.36,2.0,30.648,,,,NaN,,,,0 / 0,805,2014-12-14 11:37:25:696
0.7488,-9.0962,-1.1241,0.8785,-9.7645,-0.2322,-0.1297,0.6683,-0.8918,-0.1232,-0.0163,0.0432,1347.0,-11.88,32.58,-24.36,260.68,84.69,-98.02,2.0,30.648,,,,NaN,,,,0 / 0,855,2014-12-14 11:37:25:746
0.5908,-9.2566,-1.3515,0.8595,-9.7618,-0.3763,-0.2687,0.5052,-0.9752,-0.3501,-0.012,0.0208,1347.0,-11.34,32.82,-23.82,266.87,84.68,-104.81,2.0,30.648,,,,NaN,,,,0 / 0,905,2014-12-14 11:37:25:796
1.6203,-9.3308,-0.1856,0.8926,-9.7505,-0.5501,0.7277,0.4197,0.3645,-0.2968,-0.0418,-0.0154,1305.0,-10.62,32.94,-23.94,266.87,84.68,-104.81,2.0,30.648,,,,NaN,,,,0 / 0,954,2014-12-14 11:37:25:845
0.6865,-10.2406,0.3364,0.9288,-9.7443,-0.5996,-0.3524,-0.4102,0.7397,-0.137,0.2724,-0.042,1305.0,-11.4,33.54,-22.86,283.77,83.86,-121.64,2.0,30.648,,,,NaN,,,,0 / 0,1005,2014-12-14 11:37:25:896
0.4304,-9.8527,-0.2622,0.9137,-9.745,-0.6107,-0.3301,0.3017,0.1354,-0.0891,0.2405,-0.0037,1305.0,-11.4,33.96,-22.02,284.9,83.53,-122.84,2.0,30.648,,,,NaN,,,,0 / 0,1055,2014-12-14 11:37:25:946
0.8589,-9.5271,-0.7027,0.9152,-9.742,-0.6547,-0.0563,0.2149,-0.048,-0.0731,0.0018,-0.0676,1279.0,-10.92,33.96,-21.36,286.94,83.41,-125.58,2.0,30.648,,,,NaN,,,,0 / 0,1105,2014-12-14 11:37:25:996
1.5556,-9.599,-0.9134,0.9378,-9.7372,-0.693,0.7474,0.1878,-0.1179,-0.0667,-0.0195,-0.0111,1279.0,-11.1,33.78,-21.18,286.94,83.41,-125.58,2.0,38.849,,,,NaN,,,,0 / 0,1155,2014-12-14 11:37:26:046
1.254,-9.3643,-1.1983,0.9732,-9.7308,-0.7322,0.2807,0.3665,-0.4661,-0.0411,0.1105,0.0155,1279.0,-10.14,34.56,-22.56,291.44,83.02,-126.81,2.0,38.849,,,,NaN,,,,0 / 0,1205,2014-12-14 11:37:26:096
0.7632,-9.4792,-0.7841,0.9682,-9.7284,-0.7706,-0.205,0.2491,-0.0135,-0.0955,0.2032,0.0325,1279.0,-10.14,34.74,-21.72,293.61,82.75,-128.52,2.0,38.849,,,,NaN,,,,0 / 0,1255,2014-12-14 11:37:26:146
0.7416,-9.6732,-0.899,0.9441,-9.7288,-0.7944,-0.2025,0.0557,-0.1046,-0.0507,0.0317,0.0251,1279.0,-10.14,34.86,-21.3,293.61,82.75,-128.52,2.0,38.849,,,,NaN,,,,0 / 0,1305,2014-12-14 11:37:26:196
1.0481,-9.3643,-0.8559,0.9254,-9.7273,-0.8339,0.1227,0.363,-0.022,-0.0422,-0.0227,0.0198,1279.0,-10.56,34.56,-21.9,292.24,82.77,-130.08,2.0,38.849,,,,NaN,,,,0 / 0,1355,2014-12-14 11:37:26:246
1.005,-9.4816,-0.7649,0.9218,-9.7261,-0.8508,0.0832,0.2445,0.0859,-0.0465,0.0072,0.0261,1279.0,-10.14,34.86,-21.9,297.58,82.65,-132.71,2.0,38.849,,,,NaN,,,,0 / 0,1405,2014-12-14 11:37:26:296
1.1295,-9.4026,-1.3611,0.9176,-9.7251,-0.8671,0.2119,0.3225,-0.494,-0.0592,0.1211,0.0304,1279.0,-9.84,34.74,-21.72,297.58,82.65,-132.71,2.0,40.878,,,,NaN,,,,0 / 0,1455,2014-12-14 11:37:26:346
0.9667,-9.3595,-1.0977,0.9228,-9.7205,-0.9122,0.0438,0.3609,-0.1856,-0.0539,0.0743,0.0134,1279.0,-9.96,34.08,-21.18,298.89,82.46,-134.18,2.0,40.878,,,,NaN,,,,0 / 0,1505,2014-12-14 11:37:26:396
0.8086,-9.5606,-0.911,0.9204,-9.7194,-0.9264,-0.1118,0.1588,0.0154,-0.0028,0.0881,0.0187,1279.0,-10.5,34.68,-21.18,299.6,82.35,-135.19,2.0,40.878,,,,NaN,,,,0 / 0,1555,2014-12-14 11:37:26:446
0.8829,-9.484,-1.0283,0.9113,-9.7199,-0.9307,-0.0284,0.2358,-0.0976,-0.023,0.1201,0.0389,1279.0,-10.08,35.04,-21.3,299.6,82.35,-135.19,2.0,40.878,,,,NaN,,,,0 / 0,1605,2014-12-14 11:37:26:496
0.9475,-9.6085,-1.0092,0.9059,-9.7202,-0.9327,0.0416,0.1116,-0.0765,0.01,0.0498,0.0112,1279.0,-10.02,34.86,-20.76,300.19,82.36,-135.86,2.0,40.878,,,,NaN,,,,0 / 0,1655,2014-12-14 11:37:26:546
0.7991,-9.5008,-0.7985,0.8856,-9.7236,-0.9167,0.1998,0.3238,0.103,0.0484,0.053,0.0091,1279.0,-9.72,34.92,-20.94,300.32,82.43,-136.09,2.0,40.878,,,,NaN,,,,0 / 0,1705,2014-12-14 11:37:26:596
0.8086,-9.7546,-0.8392,0.9052,-9.7243,-0.8882,0.2477,0.2593,-0.1071,0.0494,0.1073,-0.0079,1279.0,-10.32,35.16,-21.36,299.28,82.56,-135.1,2.0,40.878,,,,NaN,,,,0 / 0,1755,2014-12-14 11:37:26:646
0.6937,-9.5199,-0.8152,0.8992,-9.7266,-0.8706,-0.1951,0.3006,-0.1541,0.042,0.119,0.0219,1279.0,-9.9,34.86,-21.72,299.28,82.56,-135.1,2.0,42.74,,,,NaN,,,,0 / 0,1806,2014-12-14 11:37:26:697
0.8517,-9.6157,-0.8487,0.8879,-9.7293,-0.8504,-0.0865,0.1495,-0.3072,0.0153,0.1435,0.0123,1287.0,-8.58,34.5,-21.84,300.82,82.73,-134.01,2.0,42.74,,,,NaN,,,,0 / 0,1855,2014-12-14 11:37:26:746
0.8565,-9.5774,-1.0163,0.8854,-9.7294,-0.8519,0.0391,0.0875,0.0536,-0.0038,0.0476,0.0134,1287.0,-8.7,34.86,-21.96,300.63,82.8,-133.89,2.0,42.74,,,,NaN,,,,0 / 0,1905,2014-12-14 11:37:26:796
0.9786,-9.6037,-0.8464,0.8808,-9.7302,-0.8486,0.3874,0.1664,0.0386,-0.0305,0.1446,0.0293,1287.0,-9.12,34.38,-22.08,300.39,82.84,-133.93,2.0,42.74,,,,NaN,,,,0 / 0,1955,2014-12-14 11:37:26:846
0.7009,-9.5535,-0.8344,0.8851,-9.7282,-0.8658,-0.0456,0.1894,-0.0536,-0.055,0.1094,0.0198,1287.0,-8.94,34.08,-22.02,300.89,82.75,-134.37,2.0,42.74,,,,NaN,,,,0 / 0,2005,2014-12-14 11:37:26:896
0.9906,-9.35,-0.7626,0.8706,-9.7267,-0.8965,0.026,0.3823,0.2043,-0.0816,0.0253,0.023,1287.0,-8.52,35.04,-21.9,300.89,82.75,-134.37,2.0,42.74,,,,NaN,,,,0 / 0,2055,2014-12-14 11:37:26:946
1.1055,-9.6133,-0.4824,0.8743,-9.7254,-0.9079,0.1321,0.2815,0.2059,-0.0624,0.0945,0.0144,1287.0,-8.16,35.22,-21.42,304.26,82.68,-135.84,2.0,42.74,,,,NaN,,,,0 / 0,2105,2014-12-14 11:37:26:996
0.8493,-9.5008,-0.7961,0.8779,-9.7233,-0.9269,-0.0295,0.223,0.1252,-0.0699,0.1169,0.0176,1269.0,-8.7,34.86,-21.36,302.84,82.52,-136.55,2.0,32.496,,,,NaN,,,,0 / 0,2155,2014-12-14 11:37:27:046
0.7488,-9.4433,-1.0163,0.8677,-9.7197,-0.9728,-0.119,0.2764,-0.0435,-0.1029,0.0689,0.023,1269.0,-9.12,34.68,-21.3,302.84,82.52,-136.55,2.0,32.496,,,,NaN,,,,0 / 0,2205,2014-12-14 11:37:27:096
0.9834,-9.642,-0.8703,0.8645,-9.7163,-1.0089,0.119,0.0742,0.1386,-0.1178,0.0626,0.0208,1269.0,-8.94,34.74,-21.36,304.29,82.36,-138.27,2.0,32.496,,,,NaN,,,,0 / 0,2255,2014-12-14 11:37:27:146
0.8015,-9.5223,-0.8847,0.8562,-9.7107,-1.0674,-0.0332,0.1573,-0.0376,-0.1178,0.0476,0.024,1269.0,-8.04,35.52,-21.54,309.41,82.09,-140.2,2.0,32.496,,,,NaN,,,,0 / 0,2305,2014-12-14 11:37:27:196
0.9762,-9.4098,-0.9469,0.8565,-9.703,-1.1368,0.1197,0.2931,0.1899,-0.154,0.0498,0.0155,1253.0,-8.16,35.04,-21.36,311.63,81.65,-143.0,2.0,32.496,,,,NaN,,,,0 / 0,2355,2014-12-14 11:37:27:246
0.7512,-9.5487,-0.9301,0.852,-9.6973,-1.1874,-0.0865,0.151,0.2093,-0.1498,0.0306,0.0176,1253.0,-9.12,35.34,-20.76,311.63,81.65,-143.0,2.0,32.496,,,,NaN,,,,0 / 0,2405,2014-12-14 11:37:27:296
0.9906,-9.5223,-1.2653,0.8474,-9.6874,-1.2685,0.1432,0.1651,0.0031,-0.2158,0.0647,0.0123,1253.0,-7.56,35.7,-20.76,311.5,81.33,-145.01,2.0,32.496,,,,NaN,,,,0 / 0,2455,2014-12-14 11:37:27:346
0.7823,-9.5535,-0.8224,0.842,-9.6705,-1.3949,-0.053,0.2604,0.1775,-0.2361,0.038,0.0155,1205.0,-7.62,35.7,-20.58,316.79,80.69,-147.74,2.0,10.16,,,,NaN,,,,0 / 0,2505,2014-12-14 11:37:27:396
0.902,-9.5559,-0.923,0.8408,-9.6667,-1.4205,0.1215,0.0842,0.381,-0.1871,0.0104,0.0102,1205.0,-8.4,35.52,-20.1,316.79,80.69,-147.74,2.0,10.16,,,,NaN,,,,0 / 0,2555,2014-12-14 11:37:27:446
0.7751,-9.4697,-1.2989,0.8453,-9.6512,-1.5205,-0.1197,0.157,0.3329,-0.2627,0.0487,0.0059,1205.0,-8.76,35.52,-19.08,315.64,80.31,-149.38,2.0,10.16,,,,NaN,,,,0 / 0,2605,2014-12-14 11:37:27:496
0.5118,-9.5319,-1.2558,0.841,-9.6391,-1.5983,-0.3292,0.1071,0.3425,-0.2648,0.0146,-0.0079,1115.0,-8.76,35.82,-19.14,317.14,79.78,-150.93,2.0,10.16,,,,NaN,,,,0 / 0,2655,2014-12-14 11:37:27:546
0.9619,-9.4194,-1.634,0.8461,-9.5958,-1.8377,0.0573,0.226,0.1668,-0.3458,0.0018,-0.0111,1115.0,-7.38,36.0,-19.26,326.3,78.09,-155.28,2.0,10.16,,,,NaN,,,,0 / 0,2705,2014-12-14 11:37:27:596
0.8637,-9.3523,-1.4952,0.8511,-9.5765,-1.9335,-0.0311,0.1924,0.6009,-0.3682,0.0114,-0.0122,1115.0,-7.14,36.84,-19.02,326.3,78.09,-155.28,2.0,10.16,,,,NaN,,,,0 / 0,2755,2014-12-14 11:37:27:646
0.7751,-9.2518,-1.8735,0.8591,-9.541,-2.0981,-0.0816,0.3005,0.1742,-0.3522,0.0487,-0.009,1115.0,-7.02,36.9,-18.42,328.22,77.09,-157.0,2.0,10.16,,,,NaN,,,,0 / 0,2805,2014-12-14 11:37:27:696
1.0002,-9.2087,-1.5694,0.8821,-9.5011,-2.2637,0.1181,0.2924,0.6943,-0.3458,0.0412,-0.0463,969.0,-7.38,37.44,-18.0,330.36,75.66,-158.71,2.0,2.382,,,,NaN,,,,0 / 0,2855,2014-12-14 11:37:27:746
1.0457,-9.3188,-1.8854,0.9165,-9.4716,-2.3709,0.0735,0.1438,0.4256,-0.3607,0.1052,-0.0751,969.0,-7.02,37.8,-17.94,330.36,75.66,-158.71,2.0,2.382,,,,NaN,,,,0 / 0,2905,2014-12-14 11:37:27:796
1.072,-9.2638,-0.9421,0.9837,-9.4315,-2.5003,-0.0353,0.2177,2.2188,-0.3224,0.1435,-0.0814,969.0,-7.2,38.1,-16.86,331.22,74.42,-158.86,2.0,2.382,,,,NaN,,,,0 / 0,2955,2014-12-14 11:37:27:846
0.9858,-9.1129,0.1257,1.0142,-9.4363,-2.4699,0.3572,0.2113,3.0722,-0.0198,-0.0035,-0.1006,863.0,-7.08,38.1,-15.66,330.32,74.2,-157.68,2.0,2.382,,,,NaN,,,,0 / 0,3006,2014-12-14 11:37:27:897
1.2133,-10.3124,7.4184,1.1612,-9.6037,-1.6101,0.0521,-0.7087,9.0285,1.4822,-0.4498,-0.1677,863.0,-6.66,37.92,-15.42,327.36,75.17,-154.58,2.0,2.382,,,,NaN,,,,0 / 0,3055,2014-12-14 11:37:27:946
0.5477,-10.3531,10.2436,1.1738,-9.7252,-0.4618,-0.6261,-0.6279,10.7054,3.5786,-1.8571,-0.2647,863.0,-7.14,37.56,-14.82,327.36,75.17,-154.58,2.0,2.382,,,,NaN,,,,0 / 0,3105,2014-12-14 11:37:27:996
-0.7667,-3.9486,-2.0315,1.4129,-9.6627,0.8986,-2.1796,5.7141,-2.9301,3.013,-1.7729,-0.7717,1377.0,-7.86,37.62,-14.88,279.91,82.61,-111.48,2.0,2.382,,,,NaN,,,,0 / 0,3155,2014-12-14 11:37:28:046
-1.5089,3.1861,-2.9078,1.5592,-9.5168,1.7804,-3.0682,12.7029,-4.6881,1.1008,0.5164,0.6461,1377.0,-9.6,35.34,-18.66,202.91,76.03,-41.21,2.0,18.778,,,,NaN,,,,0 / 0,3205,2014-12-14 11:37:28:096
0.5261,-2.4882,3.3172,1.2902,-9.4839,2.1364,-0.764,6.9957,1.1808,0.4723,-0.3529,0.7026,1377.0,-10.56,33.6,-20.46,202.91,76.03,-41.21,2.0,18.778,,,,NaN,,,,0 / 0,3256,2014-12-14 11:37:28:147
0.2963,-10.073,2.9509,1.4498,-9.3152,2.7011,-0.1097,-1.1576,0.13,1.2979,-1.0677,-0.2817,1567.0,-12.48,30.48,-24.36,183.28,73.45,-28.67,2.0,18.778,,,,NaN,,,,0 / 0,3305,2014-12-14 11:37:28:196
3.4614,-11.6651,3.8774,1.5565,-9.2478,2.8684,1.9049,-2.4174,1.009,2.1863,-1.2594,-0.384,1567.0,-12.66,29.22,-25.38,183.28,73.45,-28.67,2.0,18.778,,,,NaN,,,,0 / 0,3355,2014-12-14 11:37:28:246
-4.2144,-5.5144,-4.9141,1.7253,-8.9504,3.6172,-5.9397,3.436,-8.5313,1.5035,-0.6917,1.2374,1567.0,-13.86,27.78,-25.2,182.6,66.42,-28.82,2.0,18.778,,,,NaN,,,,0 / 0,3405,2014-12-14 11:37:28:296
0.3394,9.7821,-9.4774,1.1167,-8.9943,3.7454,-0.7774,18.7764,-13.2229,-0.5269,-0.355,1.0328,1567.0,-14.22,26.88,-25.8,174.81,65.88,-25.5,2.0,18.778,,,,NaN,,,,0 / 0,3455,2014-12-14 11:37:28:346
-8.7801,-19.5181,19.8246,1.9701,-9.272,2.5141,-10.7503,-10.2461,17.3105,-1.1192,-2.6975,-4.9103,1321.0,-15.0,24.78,-27.42,193.18,70.99,-38.08,2.0,18.778,,,,NaN,,,,0 / 0,3505,2014-12-14 11:37:28:396
-12.235,-19.5181,8.2708,2.0047,-9.4052,1.9221,-14.2397,-10.113,6.3487,-1.4654,-3.8022,3.2028,1321.0,-13.62,23.94,-27.9,193.18,70.99,-38.08,2.0,58.435,,,,NaN,,,,0 / 0,3556,2014-12-14 11:37:28:447
-2.6941,2.8102,2.5031,1.8301,-9.6343,0.0449,-4.5241,12.4445,2.4582,-3.2678,-0.9367,1.3471,1321.0,-11.04,23.52,-26.7,220.37,78.3,-55.68,2.0,58.435,,,,NaN,,,,0 / 0,3605,2014-12-14 11:37:28:496
6.5021,2.6306,-1.5095,1.0725,-9.4656,-2.3291,5.4296,12.0963,0.8196,-4.0092,0.1659,0.2701,297.0,-13.44,24.18,-23.04,295.76,79.84,-133.15,2.0,58.435,,,,NaN,,,,0 / 0,3655,2014-12-14 11:37:28:546
3.3226,-2.5983,0.0371,1.1702,-9.1253,-3.3956,2.5991,4.3974,3.7994,-3.7738,2.5361,0.2839,297.0,-14.82,27.18,-17.46,315.82,68.52,-160.99,2.0,58.435,,,,NaN,,,,0 / 0,3705,2014-12-14 11:37:28:596
1.2157,-6.769,-1.7178,1.8259,-8.2821,-4.9238,1.0704,0.9497,5.9001,-3.3094,2.3625,-0.1027,297.0,-15.78,29.34,-14.34,315.82,68.52,-160.99,2.0,58.435,,,,NaN,,,,0 / 0,3755,2014-12-14 11:37:28:646
2.6306,-3.489,0.0395,3.2576,-7.252,-5.7417,-0.627,3.7631,5.7812,-2.2462,2.9643,-2.6285,119.0,-17.28,34.2,-3.0,316.53,55.97,-158.78,2.0,58.435,,,,NaN,,,,0 / 0,3805,2014-12-14 11:37:28:696
1.0505,-5.1793,-0.1113,4.4448,-6.5218,-5.8208,-3.3944,1.3425,5.7094,-1.7541,2.3561,-2.3899,119.0,-17.7,34.32,-1.14,321.36,41.68,-142.63,2.0,58.435,,,,NaN,,,,0 / 0,3855,2014-12-14 11:37:28:746
6.0974,-8.5934,-3.8152,6.5999,-5.0153,-5.24,1.488,-3.8913,0.3026,-0.3288,3.6493,-4.2051,119.0,-23.16,32.04,4.02,326.72,30.76,-128.45,2.0,66.826,,,,NaN,,,,0 / 0,3905,2014-12-14 11:37:28:796
8.4126,-8.014,-4.0761,7.1831,-4.5598,-4.8767,0.7778,-2.4541,0.7482,0.0356,3.3255,-4.0059,119.0,-26.88,28.74,4.02,335.73,20.94,-115.49,2.0,66.826,,,,NaN,,,,0 / 0,3955,2014-12-14 11:37:28:846
5.8652,-11.0881,-8.3474,8.9742,-2.6655,-2.9203,-1.2589,-9.5219,-7.3146,0.8452,2.9473,-2.9747,219.0,-30.3,24.12,3.3,335.73,20.94,-115.49,2.0,66.826,,,,NaN,,,,0 / 0,4005,2014-12-14 11:37:28:896
0.5285,18.7915,-6.7552,9.4731,-2.0114,-1.5435,-9.678,21.8779,-6.425,2.9416,1.424,2.1269,219.0,-35.4,19.02,0.48,330.62,10.7,-101.41,2.0,66.826,,,,NaN,,,,0 / 0,4055,2014-12-14 11:37:28:946
11.0654,1.3785,-19.4014,9.1481,-3.3024,-1.2553,-5.227,14.3031,-14.6985,1.2329,-1.464,5.3344,219.0,-39.0,15.54,-3.54,330.62,10.7,-101.41,2.0,66.826,,,,NaN,,,,0 / 0,4105,2014-12-14 11:37:28:996
16.2058,-11.5335,-1.1432,7.2091,-5.2614,-4.0642,9.4969,-8.3204,2.9886,3.2761,-3.5604,-1.1765,105.0,-41.88,9.96,-13.62,247.66,28.58,-106.35,2.0,66.826,,,,NaN,,,,0 / 0,4155,2014-12-14 11:37:29:046
13.0167,2.9203,-7.2365,6.9406,-5.7093,-3.9245,4.8305,12.7029,2.831,1.3118,-0.1878,1.5111,105.0,-40.74,13.38,-13.8,261.03,34.24,-120.35,2.0,69.521,,,,NaN,,,,0 / 0,4205,2014-12-14 11:37:29:096
8.7718,0.5668,-5.0745,7.3333,-6.144,-2.1548,1.5863,6.6447,-2.3176,-0.3245,3.8176,0.3521,105.0,-39.9,18.0,-9.78,261.03,34.24,-120.35,2.0,69.521,,,,NaN,,,,0 / 0,4255,2014-12-14 11:37:29:146
5.4606,-15.0218,-0.8942,7.3888,-6.0192,-2.3121,-1.8745,-8.8777,1.2543,-0.1604,-1.5492,-0.956,77.0,-39.12,21.9,-1.92,243.21,38.79,-106.37,2.0,69.521,,,,NaN,,,,0 / 0,4305,2014-12-14 11:37:29:196
6.0663,0.2436,-4.9668,7.654,-5.5743,-2.5525,-1.7297,5.4544,-2.0963,0.7493,-1.3702,-2.0064,77.0,-37.8,23.04,-4.38,266.93,34.64,-108.44,2.0,69.521,,,,NaN,,,,0 / 0,4355,2014-12-14 11:37:29:246
9.2003,-6.9246,-3.4081,7.9899,-4.5354,-3.4297,1.2724,-2.2491,-0.0233,-1.0563,-1.5694,-1.7262,77.0,-37.38,23.58,-7.68,266.93,34.64,-108.44,2.0,69.521,,,,NaN,,,,0 / 0,4405,2014-12-14 11:37:29:296
7.4071,-10.1736,-1.4569,8.2853,-4.3744,-2.8961,-0.8782,-5.7992,1.4392,0.0867,1.6178,0.3106,77.0,-39.72,20.88,-8.7,284.09,27.55,-113.23,2.0,69.521,,,,NaN,,,,0 / 0,4455,2014-12-14 11:37:29:346
7.2012,-4.5711,-3.8702,8.1228,-4.9527,-2.3792,-0.9216,0.3816,-1.491,0.1464,0.9542,2.4763,77.0,-39.72,20.88,-8.7,284.09,27.55,-113.23,2.0,69.521,,,,NaN,,,,0 / 0,4505,2014-12-14 11:37:29:396
10.4238,-3.2328,-5.2421,7.5974,-5.5176,-2.8295,1.6869,2.6481,-1.7728,0.4404,-2.2224,-0.6386,77.0,-43.44,15.12,-4.56,245.76,32.95,-105.93,2.0,60.385,,,,NaN,,,,0 / 0,4555,2014-12-14 11:37:29:446
6.9354,-1.1331,-3.3004,7.5455,-5.3075,-3.3267,-0.8627,4.0538,-0.3238,0.1794,-0.8759,0.0016,77.0,-42.48,15.66,-6.42,253.45,33.17,-112.91,2.0,60.385,,,,NaN,,,,0 / 0,4605,2014-12-14 11:37:29:496
6.1956,-0.7763,-3.0586,7.5836,-5.278,-3.2865,-2.5814,3.2663,-0.5589,-0.2233,0.3811,0.3958,77.0,-41.46,18.42,-7.8,261.84,32.77,-113.79,2.0,60.385,,,,NaN,,,,0 / 0,4655,2014-12-14 11:37:29:546
7.4933,-6.1489,-3.4297,7.7925,-5.1597,-2.9708,1.2429,-2.4692,-0.7878,-0.2361,1.0639,-0.4554,77.0,-42.12,19.56,-5.1,262.16,31.74,-110.87,2.0,60.385,,,,NaN,,,,0 / 0,4705,2014-12-14 11:37:29:596
8.5252,-7.0372,-4.4329,7.8985,-5.0004,-2.9633,0.6267,-2.0367,-1.4696,-0.1168,0.0189,-0.5896,77.0,-41.88,19.62,-4.26,262.16,31.74,-110.87,2.0,60.385,,,,NaN,,,,0 / 0,4755,2014-12-14 11:37:29:646
8.3623,-6.046,-4.61,7.8344,-5.0295,-3.0816,0.5279,-1.0165,-1.5284,-0.0656,0.0924,0.1295,77.0,-40.86,19.14,-5.64,264.27,30.66,-110.56,2.0,60.385,,,,NaN,,,,0 / 0,4805,2014-12-14 11:37:29:696
6.2435,-5.5815,-3.6284,7.7653,-5.1109,-3.1223,-1.5218,-0.4706,-0.5061,0.1677,-0.2826,0.367,77.0,-41.28,18.54,-6.42,263.9,30.99,-111.57,2.0,60.385,,,,NaN,,,,0 / 0,4855,2014-12-14 11:37:29:746
7.1724,-3.5177,-2.9509,7.6273,-5.2595,-3.2145,-0.5659,1.3045,0.365,0.1272,-0.257,0.2925,77.0,-41.88,17.64,-6.24,263.9,30.99,-111.57,2.0,61.464,,,,NaN,,,,0 / 0,4905,2014-12-14 11:37:29:796
7.9386,-3.3908,-3.7936,7.6647,-5.2087,-3.2082,0.1019,1.9278,-0.422,-0.0507,0.2681,-0.1976,77.0,-42.84,18.42,-7.32,258.82,32.43,-112.85,2.0,61.464,,,,NaN,,,,0 / 0,4955,2014-12-14 11:37:29:846
7.8787,-4.4538,-3.808,7.7894,-5.0393,-3.1782,0.0893,0.5855,-0.6298,-0.1647,0.2223,-0.2423,77.0,-42.12,18.66,-6.9,264.06,30.92,-112.2,2.0,61.464,,,,NaN,,,,0 / 0,5005,2014-12-14 11:37:29:896
8.0439,-5.2822,-3.8607,7.8347,-4.9213,-3.2512,-0.1757,-0.2361,-0.6958,-0.0976,-0.0504,-0.1837,77.0,-41.1,18.96,-6.0,264.06,30.92,-112.2,2.0,61.464,,,,NaN,,,,0 / 0,5055,2014-12-14 11:37:29:946
7.7997,-4.8082,-4.3874,7.8394,-4.8831,-3.297,0.0904,0.0175,-0.7597,0.0302,-0.1111,0.0144,77.0,-41.34,18.96,-5.64,266.19,30.12,-112.54,2.0,61.464,,,,NaN,,,,0 / 0,5105,2014-12-14 11:37:29:996
8.02,-4.631,-3.5398,7.7837,-4.9512,-3.3273,0.3087,0.091,-0.3499,0.0484,-0.045,0.2168,107.0,-42.3,18.36,-5.88,266.19,30.12,-112.54,2.0,61.464,,,,NaN,,,,0 / 0,5155,2014-12-14 11:37:30:046
7.7901,-4.4107,-3.4943,7.7753,-4.9693,-3.3196,0.009,0.5453,-0.1683,0.0824,0.0189,0.155,107.0,-42.48,17.82,-5.82,262.83,30.32,-113.15,2.0,61.464,,,,NaN,,,,0 / 0,5205,2014-12-14 11:37:30:096
7.2969,-3.7619,-3.4752,7.7756,-4.9639,-3.327,-0.4787,1.202,-0.1481,0.026,-0.0024,0.0347,107.0,-42.6,17.88,-5.46,260.68,30.45,-113.12,2.0,43.913,,,,NaN,,,,0 / 0,5255,2014-12-14 11:37:30:146
7.8476,-4.9231,-3.6308,7.7988,-4.8945,-3.3755,0.0488,-0.0286,-0.2553,-0.0539,0.0359,-0.0474,107.0,-43.2,17.28,-4.98,259.61,29.94,-113.4,2.0,43.913,,,,NaN,,,,0 / 0,5305,2014-12-14 11:37:30:196
8.0679,-5.0332,-3.8654,7.8002,-4.8812,-3.3914,0.2677,-0.152,-0.4741,-0.0337,-0.0259,-0.0218,107.0,-43.08,17.88,-5.16,259.61,29.94,-113.4,2.0,43.913,,,,NaN,,,,0 / 0,5355,2014-12-14 11:37:30:246
8.1541,-5.0667,-3.9564,7.7764,-4.8896,-3.4337,0.3777,-0.1772,-0.5227,0.0036,-0.0067,0.0475,107.0,-42.42,18.42,-6.06,263.05,29.83,-113.67,2.0,43.913,,,,NaN,,,,0 / 0,5405,2014-12-14 11:37:30:296
7.4238,-4.8273,-3.6428,7.7578,-4.9051,-3.4533,-0.334,0.3029,0.0093,0.043,-0.0131,0.0208,107.0,-41.82,19.02,-6.42,266.29,29.91,-113.93,2.0,43.913,,,,NaN,,,,0 / 0,5455,2014-12-14 11:37:30:346
7.5675,-4.0564,-3.5829,7.7678,-4.8872,-3.4563,-0.2961,0.6967,-0.038,-0.0038,0.0135,-0.0207,107.0,-42.24,18.0,-5.46,263.17,30.02,-113.99,2.0,43.913,,,,NaN,,,,0 / 0,5505,2014-12-14 11:37:30:396
7.7925,-4.6094,-3.6883,7.7722,-4.8741,-3.465,0.0193,0.2619,-0.2215,-0.0273,0.0061,-0.0186,101.0,-42.3,18.6,-5.7,263.17,30.02,-113.99,2.0,43.913,,,,NaN,,,,0 / 0,5555,2014-12-14 11:37:30:446
7.7327,-4.8465,-3.8056,7.7833,-4.8397,-3.4884,-0.048,-0.0112,-0.3054,-0.0113,-0.0269,-0.0058,101.0,-41.64,18.66,-6.24,266.82,29.66,-114.08,2.0,33.857,,,,NaN,,,,0 / 0,5605,2014-12-14 11:37:30:496
7.826,-4.7507,-3.8056,7.7782,-4.8351,-3.506,0.0145,0.1374,-0.334,0.0015,-0.0184,-0.0047,101.0,-41.64,18.66,-6.24,266.82,29.66,-114.08,2.0,33.857,,,,NaN,,,,0 / 0,5655,2014-12-14 11:37:30:546
7.5962,-4.7052,-3.7888,7.7743,-4.8248,-3.5289,-0.0946,0.1477,-0.0739,0.0153,-0.011,6.0E-4,101.0,-42.3,17.88,-5.82,265.07,29.51,-114.35,2.0,33.857,,,,NaN,,,,0 / 0,5705,2014-12-14 11:37:30:596
7.4933,-4.3102,-3.6859,7.7719,-4.8179,-3.5436,-0.1516,0.4218,-0.1071,0.0132,0.0104,0.0059,101.0,-42.72,17.7,-6.0,264.15,29.5,-114.46,2.0,33.857,,,,NaN,,,,0 / 0,5755,2014-12-14 11:37:30:646
7.5507,-4.4873,-3.6978,7.7717,-4.8114,-3.5527,-0.1398,0.2707,-0.2059,-0.006,-3.0E-4,0.0155,101.0,-42.9,17.58,-6.0,264.15,29.5,-114.46,2.0,33.857,,,,NaN,,,,0 / 0,5805,2014-12-14 11:37:30:696
7.7255,-4.6908,-3.8152,7.7734,-4.7987,-3.5662,-0.0822,0.0468,-0.1861,-0.0124,-0.0046,-0.0122,101.0,-42.12,18.18,-6.0,265.52,29.34,-114.6,2.0,33.857,,,,NaN,,,,0 / 0,5856,2014-12-14 11:37:30:747
7.7638,-4.698,-3.7098,7.7659,-4.8007,-3.5799,0.0147,0.1279,-0.1673,-0.0102,0.0125,0.0347,101.0,-42.06,18.24,-6.18,265.67,29.29,-114.69,2.0,33.857,,,,NaN,,,,0 / 0,5905,2014-12-14 11:37:30:796
7.6968,-4.6837,-3.7649,7.7584,-4.8007,-3.5959,-0.0617,0.117,-0.1689,-0.0038,-0.011,6.0E-4,101.0,-42.12,17.04,-5.4,262.76,29.32,-114.83,2.0,22.0,,,,NaN,,,,0 / 0,5955,2014-12-14 11:37:30:846
7.6225,-4.4754,-3.7457,7.7595,-4.7921,-3.6052,-0.1154,0.3647,-0.1118,-0.0017,8.0E-4,0.0016,101.0,-42.3,17.34,-5.4,262.76,29.32,-114.83,2.0,22.0,,,,NaN,,,,0 / 0,6005,2014-12-14 11:37:30:896
7.601,-4.5639,-3.6763,7.7608,-4.7808,-3.6172,-0.1454,0.2144,-0.0136,-0.0209,0.0061,0.0016,101.0,-42.12,18.42,-5.58,265.86,29.25,-114.92,2.0,22.0,,,,NaN,,,,0 / 0,6056,2014-12-14 11:37:30:947
7.6513,-4.5879,-3.717,7.7608,-4.7797,-3.6187,-0.1095,0.1918,-0.0983,-0.0198,-0.0014,-5.0E-4,101.0,-42.12,18.42,-5.46,265.37,29.17,-115.0,2.0,22.0,,,,NaN,,,,0 / 0,6105,2014-12-14 11:37:30:996
7.6944,-4.6693,-3.7433,7.753,-4.7679,-3.6509,-0.0587,0.0986,-0.0925,0.0111,0.0114,0.0027,101.0,-43.26,17.88,-4.44,265.37,29.17,-115.0,2.0,22.0,,,,NaN,,,,0 / 0,6155,2014-12-14 11:37:31:046
7.747,-4.6477,-3.6476,7.7536,-4.7663,-3.6518,-0.0066,0.1185,0.0042,0.0143,-3.0E-4,0.0038,101.0,-43.92,17.28,-4.44,260.7,29.08,-115.22,2.0,22.0,,,,NaN,,,,0 / 0,6205,2014-12-14 11:37:31:096
7.6106,-4.5352,-3.7026,7.7541,-4.7562,-3.6637,-0.1454,0.2182,-0.0461,-0.006,-0.0046,-0.0015,101.0,-41.64,18.0,-5.88,260.7,29.08,-115.22,2.0,22.648,,,,NaN,,,,0 / 0,6255,2014-12-14 11:37:31:146
7.6704,-4.5089,-3.7194,7.7551,-4.7513,-3.6681,-0.054,0.2025,-0.0022,-0.0081,0.0018,0.0144,101.0,-40.98,19.14,-5.52,269.7,29.01,-115.29,2.0,22.648,,,,NaN,,,,0 / 0,6305,2014-12-14 11:37:31:196
7.6944,-4.6693,-3.7481,7.7562,-4.7435,-3.6757,-0.0593,0.0853,-0.1329,-0.007,-3.0E-4,0.0134,101.0,-41.1,19.02,-5.46,269.29,28.95,-115.33,2.0,22.648,,,,NaN,,,,0 / 0,6355,2014-12-14 11:37:31:246
7.6848,-4.631,-3.808,7.7559,-4.7401,-3.6842,-0.0518,0.0991,-0.1335,0.0068,-0.0024,0.007,101.0,-41.64,19.14,-6.6,269.43,28.89,-115.41,2.0,22.648,,,,NaN,,,,0 / 0,6405,2014-12-14 11:37:31:296
7.6369,-4.5903,-3.6955,7.7551,-4.7357,-3.6883,-0.1182,0.1454,-0.0072,0.0047,-0.0099,0.0016,101.0,-41.7,18.84,-6.54,269.43,28.89,-115.41,2.0,22.648,,,,NaN,,,,0 / 0,6455,2014-12-14 11:37:31:346
7.6585,-4.5209,-3.7481,7.7542,-4.73,-3.6972,-0.0958,0.2092,-0.0509,-0.0081,-0.0056,-0.0037,101.0,-42.24,18.24,-6.24,266.84,28.86,-115.46,2.0,22.648,,,,NaN,,,,0 / 0,6505,2014-12-14 11:37:31:396
7.6489,-4.5209,-3.65,7.7554,-4.7256,-3.7002,-0.126,0.1417,0.0028,0.0089,-0.0035,0.0091,101.0,-41.82,17.7,-5.4,266.31,28.81,-115.51,2.0,22.648,,,,NaN,,,,0 / 0,6555,2014-12-14 11:37:31:446
7.7063,-4.607,-3.7266,7.7562,-4.7194,-3.7067,-0.0498,0.1124,-0.0199,-0.0038,-0.0141,-5.0E-4,101.0,-41.94,18.06,-5.7,266.31,28.81,-115.51,2.0,16.597,,,,NaN,,,,0 / 0,6605,2014-12-14 11:37:31:496
7.6321,-4.6453,-3.8367,7.753,-4.7214,-3.7109,-0.1209,0.076,-0.1258,0.0025,0.0104,0.0112,101.0,-42.06,18.78,-5.58,269.18,28.77,-115.54,2.0,16.597,,,,NaN,,,,0 / 0,6655,2014-12-14 11:37:31:546
7.6201,-4.6406,-3.729,7.752,-4.7215,-3.7128,-0.1318,0.081,-0.0162,0.0036,0.0018,0.0016,101.0,-42.12,18.42,-5.16,266.41,28.78,-115.59,2.0,16.597,,,,NaN,,,,0 / 0,6705,2014-12-14 11:37:31:596
7.6273,-4.6166,-3.7601,7.7509,-4.7182,-3.7192,-0.1236,0.1016,-0.0409,-0.0188,0.0018,-0.0037,101.0,-42.42,18.06,-5.4,266.47,28.76,-115.63,2.0,16.597,,,,NaN,,,,0 / 0,6755,2014-12-14 11:37:31:646
7.7255,-4.619,-3.7481,7.7518,-4.7103,-3.7273,-0.0263,0.0913,-0.0208,-0.0049,0.005,0.007,101.0,-42.24,18.24,-5.46,266.47,28.76,-115.63,2.0,16.597,,,,NaN,,,,0 / 0,6805,2014-12-14 11:37:31:696
7.6489,-4.5903,-3.7218,7.7524,-4.7048,-3.7332,-0.1106,0.1305,-0.0073,-0.0049,0.0061,0.0134,101.0,-42.24,18.24,-5.22,266.59,28.71,-115.68,2.0,16.597,,,,NaN,,,,0 / 0,6856,2014-12-14 11:37:31:747
7.6369,-4.6046,-3.6955,7.7523,-4.7043,-3.7339,-0.1154,0.0997,0.0385,-0.006,-0.0056,0.008,101.0,-42.72,17.82,-5.28,265.67,28.67,-115.71,2.0,16.597,,,,NaN,,,,0 / 0,6905,2014-12-14 11:37:31:796
7.6465,-4.607,-3.8271,7.7518,-4.7015,-3.7385,-0.1053,0.0944,-0.0886,0.0047,-0.0014,0.007,101.0,-42.72,17.82,-5.64,265.67,28.67,-115.71,2.0,11.731,,,,NaN,,,,0 / 0,6955,2014-12-14 11:37:31:846
7.6752,-4.5879,-3.7601,7.752,-4.6976,-3.743,-0.0768,0.1097,-0.0171,-0.007,-0.0056,0.0048,101.0,-42.9,18.18,-5.4,265.76,28.64,-115.76,2.0,11.731,,,,NaN,,,,0 / 0,7005,2014-12-14 11:37:31:896
7.7135,-4.6453,-3.7816,7.7515,-4.6962,-3.7456,-0.038,0.0509,-0.0361,-0.0081,-0.0056,0.0038,101.0,-41.88,18.06,-5.16,266.82,28.61,-115.79,2.0,11.731,,,,NaN,,,,0 / 0,7055,2014-12-14 11:37:31:946
7.6345,-4.4969,-3.7194,7.7511,-4.6923,-3.7516,-0.1405,0.1356,0.0753,-0.0049,-0.0216,0.0198,101.0,-42.06,18.18,-5.04,266.82,28.61,-115.79,2.0,11.731,,,,NaN,,,,0 / 0,7105,2014-12-14 11:37:31:996
7.5555,-4.6262,-3.7673,7.7443,-4.6949,-3.7622,-0.1817,0.0854,0.0332,-0.023,-0.0397,0.0134,101.0,-42.0,18.24,-5.58,267.52,28.6,-115.91,2.0,11.731,,,,NaN,,,,0 / 0,7155,2014-12-14 11:37:32:046
7.7087,-4.6214,-3.9564,7.7376,-4.6902,-3.7816,0.0549,0.0952,-0.0838,0.0068,0.0178,0.0208,101.0,-42.24,18.0,-5.46,267.03,28.57,-116.05,2.0,11.731,,,,NaN,,,,0 / 0,7205,2014-12-14 11:37:32:096
7.2754,-4.8345,-3.6452,7.7391,-4.6901,-3.7789,0.1683,0.2794,0.0236,-0.0028,0.0029,-0.0239,101.0,-42.42,17.52,-5.28,267.03,28.57,-116.05,2.0,3.305,,,,NaN,,,,0 / 0,7255,2014-12-14 11:37:32:146
7.5196,-4.6621,-3.6955,7.7318,-4.6814,-3.8044,-0.4085,0.2635,0.322,-0.0134,-0.0823,-0.0154,101.0,-42.3,18.18,-6.06,267.65,28.57,-116.05,2.0,3.305,,,,NaN,,,,0 / 0,7305,2014-12-14 11:37:32:196
7.8237,-4.5831,-3.9229,7.7262,-4.6766,-3.8219,0.0974,0.0935,-0.101,0.01,-0.0024,-0.0133,101.0,-42.6,18.54,-6.42,269.04,28.48,-116.32,2.0,3.305,,,,NaN,,,,0 / 0,7355,2014-12-14 11:37:32:246
7.7877,-4.7866,-3.7098,7.7303,-4.676,-3.8141,0.0419,0.0413,0.0819,-0.0209,0.0093,-0.0047,101.0,-42.66,18.42,-5.82,269.04,28.48,-116.32,2.0,3.305,,,,NaN,,,,0 / 0,7405,2014-12-14 11:37:32:296
7.5699,-4.4969,-3.8702,7.7312,-4.6727,-3.8165,-0.1613,0.1758,-0.0537,0.0121,-0.0291,-0.0101,101.0,-42.48,18.54,-4.98,269.54,28.46,-116.27,2.0,3.305,,,,NaN,,,,0 / 0,7455,2014-12-14 11:37:32:346