ACCELEROMETER X (m/s²),ACCELEROMETER Y (m/s²),ACCELEROMETER Z (m/s²),GRAVITY X (m/s²),GRAVITY Y (m/s²),GRAVITY Z (m/s²),LINEAR ACCELERATION X (m/s²),LINEAR ACCELERATION Y (m/s²),LINEAR ACCELERATION Z (m/s²),GYROSCOPE X (rad/s),GYROSCOPE Y (rad/s),GYROSCOPE Z (rad/s),LIGHT (lux),MAGNETIC FIELD X (μT),MAGNETIC FIELD Y (μT),MAGNETIC FIELD Z (μT),ORIENTATION X (°),ORIENTATION Y (°),ORIENTATION Z (°),PROXIMITY (i),SOUND LEVEL (dB),LOCATION Latitude : ,LOCATION Longitude : ,LOCATION Altitude ( m),LOCATION Altitude-google ( m),LOCATION Speed ( Kmh),LOCATION Accuracy ( m),LOCATION ORIENTATION (°),Satellites in range,Time since start in ms ,YYYY-MO-DD HH-MI-SS_SSS
0.8829,-9.4625,1.0331,0.8871,-9.6962,1.17,-0.0365,0.2102,-0.1411,-0.0358,-0.0205,0.0176,1307.0,-5.1,30.24,-28.8,212.24,81.31,-37.0,2.0,7.74,,,,NaN,,,,0 / 0,3,2014-12-14 11:38:54:577
0.9475,-9.4768,1.0786,0.8832,-9.6986,1.1524,0.0202,0.242,-0.0302,-0.072,-0.0088,0.0219,1307.0,-4.92,30.66,-28.62,212.24,81.31,-37.0,2.0,1.014,,,,NaN,,,,0 / 0,53,2014-12-14 11:38:54:627
0.9571,-9.7929,1.5526,0.8691,-9.7028,1.1278,0.088,-0.0901,0.4248,-0.039,-0.0259,0.023,1307.0,-5.28,31.02,-28.62,212.86,81.57,-37.71,2.0,1.014,,,,NaN,,,,0 / 0,103,2014-12-14 11:38:54:677
0.9523,-9.5391,1.4521,0.8748,-9.701,1.1389,0.0775,0.1619,0.3132,-0.0081,-0.0525,0.0017,1307.0,-5.64,30.66,-28.86,210.6,81.58,-37.53,2.0,1.014,,,,NaN,,,,0 / 0,153,2014-12-14 11:38:54:727
0.811,-9.678,1.1959,0.8633,-9.7016,1.1422,-0.0965,0.2038,-0.0976,-0.0092,-0.0408,0.0208,1317.0,-5.46,30.9,-28.68,212.31,81.61,-37.08,2.0,1.014,,,,NaN,,,,0 / 0,203,2014-12-14 11:38:54:777
0.9307,-9.5535,0.8966,0.8634,-9.7062,1.1025,0.0492,0.1438,-0.3196,-0.0443,-0.0642,6.0E-4,1317.0,-5.4,31.02,-28.62,212.31,81.61,-37.08,2.0,1.014,,,,NaN,,,,0 / 0,253,2014-12-14 11:38:54:827
1.0074,-9.4481,1.0116,0.8721,-9.7076,1.0829,0.1353,0.2295,-0.0329,-0.0539,-0.0536,-0.0058,1317.0,-5.4,31.02,-28.32,213.1,81.79,-38.07,2.0,1.014,,,,NaN,,,,0 / 0,303,2014-12-14 11:38:54:877
0.9092,-9.4625,0.99,0.8728,-9.7085,1.0748,0.0364,0.246,-0.0848,-0.0688,-0.0472,0.0112,1317.0,-5.58,30.84,-27.96,211.89,81.88,-39.08,2.0,1.014,,,,NaN,,,,0 / 0,353,2014-12-14 11:38:54:927
0.811,-9.5008,1.1815,0.8643,-9.7115,1.0551,-0.0533,0.2107,0.1264,-0.0347,-0.0877,-0.0015,1317.0,-7.14,30.48,-27.9,209.64,82.01,-39.32,2.0,6.841,,,,NaN,,,,0 / 0,403,2014-12-14 11:38:54:977
0.9427,-9.5415,0.844,0.8787,-9.7131,1.0267,0.064,0.1716,-0.1827,-0.0422,-0.0163,-0.0122,1317.0,-7.86,30.66,-27.6,208.92,82.08,-40.56,2.0,6.841,,,,NaN,,,,0 / 0,453,2014-12-14 11:38:55:027
1.0193,-9.6229,0.8033,0.882,-9.7155,1.0014,0.1374,0.0926,-0.1981,-0.0784,-0.0056,0.0102,1317.0,-6.96,30.9,-28.14,208.92,82.08,-40.56,2.0,6.841,,,,NaN,,,,0 / 0,503,2014-12-14 11:38:55:077
0.8637,-9.3763,0.7147,0.8884,-9.723,0.9194,-0.0247,0.3467,-0.2047,-0.0944,-0.0237,0.0038,1317.0,-5.88,30.9,-28.26,215.73,82.35,-42.75,2.0,6.841,,,,NaN,,,,0 / 0,553,2014-12-14 11:38:55:127
0.6937,-9.7426,1.0594,0.8835,-9.7279,0.8713,-0.0892,0.0619,0.0444,-0.1679,0.0381,-0.0015,1317.0,-6.48,30.84,-27.24,218.13,82.73,-45.4,2.0,6.841,,,,NaN,,,,0 / 0,604,2014-12-14 11:38:55:178
0.8613,-9.6157,1.0642,0.8808,-9.7348,0.794,0.0332,0.1143,0.1314,-0.1509,0.0082,-0.0111,1317.0,-6.96,30.78,-27.06,218.13,82.73,-45.4,2.0,6.841,,,,NaN,,,,0 / 0,653,2014-12-14 11:38:55:227
0.8829,-9.6468,0.6812,0.9026,-9.7387,0.7168,-0.0198,0.0919,-0.0356,-0.1775,0.053,-0.0346,1317.0,-6.84,31.62,-27.72,219.4,83.1,-48.85,2.0,6.841,,,,NaN,,,,0 / 0,704,2014-12-14 11:38:55:278
0.5477,-9.4864,0.6069,0.9019,-9.7429,0.658,-0.3542,0.2565,-0.051,-0.17,0.0871,0.0017,1317.0,-6.96,31.26,-27.48,224.66,83.46,-53.89,2.0,4.873,,,,NaN,,,,0 / 0,753,2014-12-14 11:38:55:327
0.7488,-9.7929,1.0523,0.829,-9.7538,0.5888,-0.0802,-0.0391,0.4634,-0.1157,0.0253,0.0091,1317.0,-6.78,31.44,-26.88,224.66,83.46,-53.89,2.0,4.873,,,,NaN,,,,0 / 0,803,2014-12-14 11:38:55:377
1.0145,-9.7378,0.6692,0.8486,-9.7577,0.4875,0.1363,0.0218,-0.1653,-0.2148,-0.1612,-0.0559,1295.0,-6.48,31.2,-27.06,225.08,84.05,-54.61,2.0,4.873,,,,NaN,,,,0 / 0,853,2014-12-14 11:38:55:427
1.1079,-9.7067,0.5231,0.8713,-9.7576,0.4485,0.3463,-0.0617,0.2201,-0.1082,-0.1132,-0.0324,1295.0,-6.06,31.5,-26.52,235.88,84.26,-62.77,2.0,4.873,,,,NaN,,,,0 / 0,903,2014-12-14 11:38:55:477
0.7296,-9.0507,0.1161,0.9273,-9.7549,0.3943,0.2306,0.1728,0.3537,-0.1434,-0.0184,-0.0729,1295.0,-6.18,31.26,-26.04,235.88,84.26,-62.77,2.0,4.873,,,,NaN,,,,0 / 0,953,2014-12-14 11:38:55:527
0.9427,-10.3459,1.1073,0.9393,-9.7571,0.2978,0.0034,-0.5888,0.8095,-0.1509,-0.2016,-0.1422,1295.0,-6.42,31.56,-25.86,240.27,84.1,-66.96,2.0,4.873,,,,NaN,,,,0 / 0,1003,2014-12-14 11:38:55:577
1.005,-9.6253,0.6452,0.9894,-9.7529,0.2702,0.0156,0.1276,0.375,-0.1722,-0.3188,-0.1368,1283.0,-6.24,32.34,-25.68,248.57,84.0,-74.72,2.0,4.873,,,,NaN,,,,0 / 0,1053,2014-12-14 11:38:55:627
0.4064,-10.0491,1.2582,1.0029,-9.7543,0.1431,-0.5965,-0.2948,1.1151,-0.2201,-0.1516,-0.0356,1283.0,-6.48,32.64,-25.44,255.88,84.07,-81.88,2.0,5.396,,,,NaN,,,,0 / 0,1103,2014-12-14 11:38:55:677
0.9499,-9.4314,-0.1592,1.0084,-9.7543,0.0941,-0.0585,0.3229,-0.2533,-0.2244,-0.3827,-0.0857,1283.0,-6.3,32.76,-25.62,255.88,84.07,-81.88,2.0,5.396,,,,NaN,,,,0 / 0,1153,2014-12-14 11:38:55:727
0.7775,-9.8312,0.9445,1.0473,-9.7493,-0.1613,-0.3834,-0.7649,1.8087,-0.2659,-0.3465,-0.09,1283.0,-6.84,33.54,-24.42,256.47,84.07,-84.67,2.0,5.396,,,,NaN,,,,0 / 0,1203,2014-12-14 11:38:55:777
1.4623,-10.0275,2.3403,1.071,-9.7465,-0.1707,0.3913,-0.281,2.5111,-0.1402,-0.4893,-0.1272,1283.0,-7.62,33.78,-23.94,269.23,83.65,-99.06,2.0,5.396,,,,NaN,,,,0 / 0,1254,2014-12-14 11:38:55:828
1.0409,-10.2358,1.2582,1.2357,-9.7282,-0.0774,-0.4733,0.7293,1.201,0.043,-0.6416,-0.2615,1259.0,-8.22,33.42,-23.94,269.23,83.65,-99.06,2.0,5.396,,,,NaN,,,,0 / 0,1303,2014-12-14 11:38:55:877
2.0584,-6.5775,-0.1209,1.3408,-9.7146,0.0269,1.1983,1.986,0.9173,0.1357,-0.616,-0.4948,1259.0,-8.52,33.42,-23.1,264.64,82.75,-93.58,2.0,5.396,,,,NaN,,,,0 / 0,1353,2014-12-14 11:38:55:927
2.6929,-8.4713,3.7242,1.6152,-9.6708,-0.1963,1.0597,1.1965,3.9186,-0.774,0.6868,-0.0932,1259.0,-8.58,33.72,-23.16,259.35,81.1,-88.36,2.0,5.396,,,,NaN,,,,0 / 0,1403,2014-12-14 11:38:55:977
-6.0E-4,-8.7059,1.7681,1.9447,-9.6093,0.2289,-2.058,0.8776,1.463,0.4436,-1.4863,-0.9337,1019.0,-9.96,33.42,-22.62,259.35,81.1,-88.36,2.0,23.446,,,,NaN,,,,0 / 0,1453,2014-12-14 11:38:56:027
2.8389,-4.5975,1.2534,2.2594,-9.5383,0.2922,1.4335,5.4784,1.523,4.0E-4,-1.5162,-0.8697,1019.0,-10.74,33.36,-22.56,255.57,78.48,-83.29,2.0,23.446,,,,NaN,,,,0 / 0,1503,2014-12-14 11:38:56:077
1.9148,1.9626,-8.9986,3.2453,-9.2527,-0.1645,-1.3306,11.2153,-8.8342,-0.0528,-0.9473,-1.5973,1019.0,-11.82,33.3,-21.9,258.56,73.82,-84.75,2.0,23.446,,,,NaN,,,,0 / 0,1553,2014-12-14 11:38:56:127
8.8651,-10.0874,6.602,3.7764,-9.0043,-0.9122,4.4552,-3.1005,9.7453,-1.7722,0.1968,-1.3896,825.0,-13.38,32.64,-22.14,279.21,68.39,-100.21,2.0,23.446,,,,NaN,,,,0 / 0,1603,2014-12-14 11:38:56:177
5.2116,-10.3028,5.9364,4.451,-8.6532,-1.217,0.7606,-1.6496,7.1534,-1.3045,-0.3114,-2.9555,825.0,-15.78,31.5,-21.0,279.21,68.39,-100.21,2.0,23.446,,,,NaN,,,,0 / 0,1653,2014-12-14 11:38:56:227
0.4471,-2.8593,-5.46,5.838,-7.6683,-1.8126,-7.3469,3.5138,-2.2779,-2.7341,1.0639,-2.0479,825.0,-17.58,31.44,-19.86,285.86,57.1,-105.77,2.0,23.446,,,,NaN,,,,0 / 0,1703,2014-12-14 11:38:56:277
5.0871,-12.0219,-4.7872,6.3006,-7.1407,-2.3417,-6.0546,-4.4552,-1.8964,-2.2121,0.1595,-2.6051,825.0,-21.24,30.54,-15.9,296.19,46.73,-110.39,2.0,23.446,,,,NaN,,,,0 / 0,1753,2014-12-14 11:38:56:327
4.9315,-5.7467,-6.2836,7.6604,-5.5432,-2.6006,-3.6143,-1.3608,-5.1142,-2.0982,3.3766,-4.2914,825.0,-22.8,29.94,-14.82,296.19,46.73,-110.39,2.0,64.361,,,,NaN,,,,0 / 0,1803,2014-12-14 11:38:56:377
19.584,-12.1679,-3.4201,9.2021,-3.0979,-1.3758,10.1004,-9.8248,-2.56,-1.6039,3.7611,-4.4245,877.0,-25.68,27.96,-11.82,303.87,34.42,-108.75,2.0,64.361,,,,NaN,,,,0 / 0,1853,2014-12-14 11:38:56:427
19.584,-15.9723,-4.8902,9.6877,-1.4741,-0.3825,9.7947,-18.9365,-1.3699,-0.0188,3.3095,-5.3225,877.0,-28.62,25.86,-10.38,332.52,8.65,-92.26,2.0,64.361,,,,NaN,,,,0 / 0,1903,2014-12-14 11:38:56:477
19.584,5.0105,-19.4014,9.7404,0.4944,1.0249,9.8436,4.5161,-20.4263,1.4002,-2.5974,-0.5672,877.0,-32.46,20.16,-10.14,339.7,-2.18,-86.19,2.0,64.361,,,,NaN,,,,0 / 0,1953,2014-12-14 11:38:56:527
3.5811,19.256,-2.6875,9.7751,0.6375,0.4594,-6.1939,18.6185,-3.1469,0.9059,-6.6348,1.6177,877.0,-34.62,14.34,-13.2,339.7,-2.18,-86.19,2.0,64.361,,,,NaN,,,,0 / 0,2003,2014-12-14 11:38:56:577
19.584,-0.3813,-2.5678,9.2416,-0.9625,-3.1363,10.3424,-1.8561,1.4352,0.3733,-3.048,1.77,1293.0,-35.22,5.4,-19.5,296.46,-1.84,-98.78,2.0,64.361,,,,NaN,,,,0 / 0,2053,2014-12-14 11:38:56:627
3.0736,-1.0828,0.3388,8.9754,-0.9143,-3.8439,-6.3424,0.0087,3.565,0.5778,-1.7409,-0.9251,1293.0,-36.24,3.42,-18.36,270.15,6.42,-113.31,2.0,64.361,,,,NaN,,,,0 / 0,2103,2014-12-14 11:38:56:677
2.08,-0.3454,-1.0307,9.333,-0.8134,-2.8988,-7.289,0.8416,1.248,0.6662,3.2402,-0.7334,1293.0,-39.36,3.42,-12.72,270.15,6.42,-113.31,2.0,73.475,,,,NaN,,,,0 / 0,2153,2014-12-14 11:38:56:727
3.8732,0.5333,-2.3092,9.6135,-0.9254,-1.7009,-5.7402,1.4587,-0.6083,0.3093,5.1396,0.7346,799.0,-40.32,5.7,-8.28,279.14,5.41,-100.03,2.0,73.475,,,,NaN,,,,0 / 0,2203,2014-12-14 11:38:56:777
1.0696,3.0137,-0.6452,9.5211,-1.7936,-1.5164,-8.4515,4.8073,0.8712,0.9762,-2.6145,0.2797,799.0,-40.98,6.3,-7.26,264.42,10.54,-99.05,2.0,73.475,,,,NaN,,,,0 / 0,2253,2014-12-14 11:38:56:827
-2.6534,1.5461,-6.8654,9.4134,-1.0479,-2.5413,-12.0668,2.594,-4.3241,0.1634,-1.611,-1.5217,799.0,-40.56,6.66,-11.76,264.42,10.54,-99.05,2.0,73.475,,,,NaN,,,,0 / 0,2303,2014-12-14 11:38:56:877
19.584,-5.2463,-13.2363,9.0812,-1.0285,-3.5558,10.5028,-4.2178,-9.6805,1.5706,-4.5575,1.7135,681.0,-39.48,7.92,-15.3,280.01,6.13,-105.11,2.0,73.475,,,,NaN,,,,0 / 0,2353,2014-12-14 11:38:56:927
19.584,-2.4475,-2.4146,8.1907,-2.0095,-5.0043,11.3933,-2.904,6.2409,-0.2712,-2.5473,1.8989,681.0,-41.52,7.02,-11.1,271.25,11.82,-121.42,2.0,73.475,,,,NaN,,,,0 / 0,2403,2014-12-14 11:38:56:977
4.5628,-2.2895,-5.958,7.6776,-2.4611,-5.5828,-0.103,-5.9791,-0.2028,2.0606,0.609,0.1849,681.0,-42.66,6.12,-8.34,271.25,11.82,-121.42,2.0,73.475,,,,NaN,,,,0 / 0,2453,2014-12-14 11:38:57:027
1.9028,3.2819,-1.6316,8.1268,-3.04,-4.5698,-3.4898,6.444,-1.5941,0.8942,3.4384,-0.0058,239.0,-43.62,7.5,-4.14,265.71,16.92,-125.15,2.0,68.249,,,,NaN,,,,0 / 0,2503,2014-12-14 11:38:57:077
0.0569,1.8118,0.3436,8.5317,-2.8503,-3.906,-8.4749,4.6621,4.2496,-0.1061,-1.1785,0.1923,239.0,-42.3,9.96,2.34,263.54,16.9,-114.6,2.0,68.249,,,,NaN,,,,0 / 0,2553,2014-12-14 11:38:57:127
5.8508,-7.2335,-3.6428,7.897,-3.0668,-4.9398,-2.0461,-4.1667,1.2971,-0.1168,-3.0704,0.7676,239.0,-41.22,11.28,0.54,268.39,18.22,-122.03,2.0,68.249,,,,NaN,,,,0 / 0,2603,2014-12-14 11:38:57:177
9.4637,-7.6405,-4.1623,7.2636,-3.2633,-5.7239,2.2001,-4.3772,1.5616,0.2529,-2.297,0.8411,239.0,-41.52,11.46,-1.98,268.39,18.22,-122.03,2.0,68.249,,,,NaN,,,,0 / 0,2653,2014-12-14 11:38:57:227
12.0997,-7.0515,-8.843,6.7864,-3.4803,-6.1648,5.3133,-3.5713,-2.6782,0.2486,-1.8773,0.6941,213.0,-41.28,11.16,-2.94,270.57,19.44,-128.24,0.0,68.249,,,,NaN,,,,0 / 0,2703,2014-12-14 11:38:57:277
6.7558,-3.5488,-11.2803,6.0286,-3.8557,-6.7053,0.7272,0.3069,-4.575,0.3424,-0.8237,0.3372,213.0,-40.44,12.0,4.8,267.95,23.15,-138.04,0.0,68.249,,,,NaN,,,,0 / 0,2753,2014-12-14 11:38:57:327
4.2012,-1.4898,-5.6659,6.3035,-3.6974,-6.5396,-2.1023,2.2076,0.8737,-0.006,0.7379,-0.4724,213.0,-40.32,13.26,8.04,268.02,22.87,-137.4,0.0,68.249,,,,NaN,,,,0 / 0,2803,2014-12-14 11:38:57:377
4.2874,-0.5417,-5.551,6.4355,-3.6124,-6.4581,-2.148,3.0707,0.9071,-0.0326,0.8892,-0.2913,97.0,-40.5,14.16,9.06,268.02,22.87,-137.4,0.0,52.321,,,,NaN,,,,0 / 0,2854,2014-12-14 11:38:57:428
5.7096,-1.6071,-4.1958,6.735,-3.4176,-6.2555,-1.0255,1.8105,2.0596,-0.4907,1.0809,-0.0985,97.0,-40.08,15.36,8.88,274.74,20.4,-132.89,0.0,52.321,,,,NaN,,,,0 / 0,2903,2014-12-14 11:38:57:477
4.8094,-3.204,-4.5119,7.0158,-3.2576,-6.0282,-2.2064,0.0536,1.5163,-0.4928,0.6698,-0.0484,97.0,-39.12,16.02,8.1,274.74,20.4,-132.89,0.0,52.321,,,,NaN,,,,0 / 0,2953,2014-12-14 11:38:57:527
7.8979,-4.7124,-7.3131,6.8571,-3.2414,-6.2164,1.0407,-1.4709,-1.0967,0.0345,-0.9249,-0.0484,155.0,-40.44,14.16,5.94,277.02,19.4,-130.67,0.0,52.321,,,,NaN,,,,0 / 0,3003,2014-12-14 11:38:57:577
7.5627,-3.3932,-8.333,6.6319,-3.2884,-6.4322,0.9307,-0.1047,-1.9008,0.3275,-0.6256,-0.0101,155.0,-40.26,13.8,5.16,275.69,19.3,-132.19,0.0,52.321,,,,NaN,,,,0 / 0,3053,2014-12-14 11:38:57:627
6.5308,-2.5504,-6.9037,6.5392,-3.3709,-6.4844,0.4148,0.6211,-0.9375,0.3317,-0.1047,0.0389,155.0,-40.32,13.62,5.1,275.69,19.3,-132.19,0.0,52.321,,,,NaN,,,,0 / 0,3103,2014-12-14 11:38:57:677
5.9442,-1.9974,-5.9101,6.7121,-3.3624,-6.3098,-0.7103,1.3761,0.4544,0.1016,0.5259,-0.0111,123.0,-40.32,13.56,6.6,274.62,20.1,-134.76,0.0,52.321,,,,NaN,,,,0 / 0,3153,2014-12-14 11:38:57:727
5.9538,-2.5839,-5.266,6.8084,-3.3402,-6.2177,-0.8546,0.7563,0.9517,-0.0933,0.5526,-0.0047,123.0,-40.26,14.16,6.78,273.92,19.91,-132.4,0.0,56.119,,,,NaN,,,,0 / 0,3203,2014-12-14 11:38:57:777
6.7151,-4.0851,-5.8574,6.8868,-3.2989,-6.1531,-0.0953,-0.8266,0.259,-0.1274,-0.2464,0.0485,123.0,-40.92,14.4,6.24,273.92,19.91,-132.4,0.0,56.119,,,,NaN,,,,0 / 0,3253,2014-12-14 11:38:57:827
7.1581,-4.145,-6.6643,6.7665,-3.3507,-6.2577,0.3473,-0.9189,-0.3225,0.0089,-0.4115,0.0943,123.0,-41.1,14.1,5.34,273.89,19.66,-131.78,0.0,56.119,,,,NaN,,,,0 / 0,3303,2014-12-14 11:38:57:877
7.0982,-3.8624,-7.0497,6.6685,-3.4093,-6.3307,0.3346,-0.0913,-0.6659,0.1836,-0.2389,0.1018,139.0,-40.56,13.62,4.8,273.7,20.34,-133.51,0.0,56.119,,,,NaN,,,,0 / 0,3353,2014-12-14 11:38:57:927
6.8277,-3.3118,-6.8678,6.5854,-3.4684,-6.3853,0.082,0.3455,-0.3865,0.1836,-0.2389,0.1018,139.0,-40.86,14.04,4.8,273.7,20.34,-133.51,0.0,56.119,,,,NaN,,,,0 / 0,3403,2014-12-14 11:38:57:977
6.2195,-2.7635,-6.2692,6.5665,-3.5003,-6.3874,-0.347,0.7368,0.1182,-0.0156,0.1861,0.007,139.0,-40.74,14.4,5.34,273.14,20.89,-134.33,0.0,56.119,,,,NaN,,,,0 / 0,3453,2014-12-14 11:38:58:027
6.1333,-3.4291,-6.0011,6.6433,-3.4502,-6.3351,-0.51,0.4591,0.2732,-0.0976,0.2191,-0.0047,123.0,-40.5,14.52,6.18,275.69,20.76,-133.9,0.0,56.119,,,,NaN,,,,0 / 0,3503,2014-12-14 11:38:58:077
6.5044,-4.0276,-6.2908,6.6542,-3.431,-6.334,-0.2593,-0.5192,0.1763,-0.0944,-3.0E-4,-0.0143,123.0,-41.04,13.98,6.0,275.69,20.76,-133.9,0.0,46.913,,,,NaN,,,,0 / 0,3554,2014-12-14 11:38:58:128
6.708,-4.0588,-6.5446,6.6381,-3.4396,-6.3464,0.0699,-0.6192,-0.1981,-0.0156,-0.1036,0.007,123.0,-40.68,14.22,6.12,273.01,20.53,-133.71,0.0,46.913,,,,NaN,,,,0 / 0,3603,2014-12-14 11:38:58:177
6.8277,-3.4123,-6.8055,6.5857,-3.468,-6.3853,0.242,0.0557,-0.4202,0.076,0.0242,0.0059,127.0,-40.32,14.58,6.96,275.39,20.71,-134.12,0.0,46.913,,,,NaN,,,,0 / 0,3653,2014-12-14 11:38:58:227
6.6553,-3.0364,-6.353,6.6122,-3.4699,-6.3569,0.0431,0.4335,0.0039,0.042,0.1701,-0.0015,127.0,-40.92,14.52,6.84,275.39,20.71,-134.12,0.0,46.913,,,,NaN,,,,0 / 0,3703,2014-12-14 11:38:58:277
6.3369,-2.8425,-5.9364,6.6803,-3.4493,-6.2966,-0.4034,0.5896,0.4018,-0.0134,0.2799,-0.0154,127.0,-41.22,13.8,6.6,272.29,20.59,-133.31,0.0,46.913,,,,NaN,,,,0 / 0,3753,2014-12-14 11:38:58:327
6.4326,-3.4411,-5.7569,6.775,-3.4345,-6.2028,-0.3424,-0.0066,0.4459,-0.0315,0.0572,0.0336,127.0,-41.1,13.8,5.94,272.29,20.59,-133.31,0.0,46.913,,,,NaN,,,,0 / 0,3803,2014-12-14 11:38:58:377
6.6409,-3.6206,-6.2405,6.7392,-3.4649,-6.2248,-0.0145,-0.1848,0.0374,-0.0028,-0.109,0.0688,127.0,-41.22,14.94,5.4,275.01,20.5,-132.48,0.0,39.357,,,,NaN,,,,0 / 0,3853,2014-12-14 11:38:58:427
6.7463,-3.6805,-6.5302,6.6916,-3.4951,-6.2592,0.0842,-0.1535,-0.1769,0.0782,-0.1612,0.089,127.0,-41.34,14.34,5.94,272.49,20.69,-132.73,0.0,39.357,,,,NaN,,,,0 / 0,3903,2014-12-14 11:38:58:477
6.7965,-3.3357,-6.6212,6.6183,-3.5431,-6.3098,0.0854,0.1306,-0.4281,0.059,-0.0663,0.073,127.0,-41.28,13.98,5.76,272.11,21.07,-133.43,0.0,39.357,,,,NaN,,,,0 / 0,3953,2014-12-14 11:38:58:527
6.7774,-3.3261,-6.4727,6.6146,-3.5494,-6.3102,0.1628,0.2233,-0.1625,0.043,0.0029,0.0645,127.0,-41.04,14.88,5.58,272.11,21.07,-133.43,0.0,39.357,,,,NaN,,,,0 / 0,4003,2014-12-14 11:38:58:577
6.3823,-3.544,-6.0178,6.6421,-3.5675,-6.2712,-0.2598,0.0235,0.2533,-0.023,0.086,0.0453,127.0,-41.52,14.4,5.94,273.45,21.22,-133.65,0.0,39.357,,,,NaN,,,,0 / 0,4053,2014-12-14 11:38:58:627
6.4087,-3.7882,-6.2189,6.6218,-3.5962,-6.2761,-0.2131,-0.192,0.0572,-0.0188,-0.0248,0.0411,83.0,-41.34,14.58,5.94,273.79,21.41,-133.3,0.0,39.357,,,,NaN,,,,0 / 0,4103,2014-12-14 11:38:58:677
6.7151,-3.7595,-6.5469,6.5921,-3.6045,-6.3026,0.123,-0.155,-0.2444,-0.022,-0.1153,0.0166,83.0,-42.06,13.62,6.66,270.2,21.56,-133.71,0.0,39.357,,,,NaN,,,,0 / 0,4153,2014-12-14 11:38:58:727
6.6218,-3.6422,-6.5661,6.5784,-3.5995,-6.3196,0.0434,-0.0426,-0.2465,0.0025,0.0295,-0.0207,83.0,-41.28,14.4,6.54,270.2,21.56,-133.71,0.0,41.085,,,,NaN,,,,0 / 0,4203,2014-12-14 11:38:58:777
6.6289,-3.4985,-6.2405,6.6007,-3.59,-6.3018,0.0036,0.0417,-0.1098,-0.0145,0.1606,-0.0484,61.0,-40.86,14.7,6.66,273.28,21.47,-133.67,0.0,41.085,,,,NaN,,,,0 / 0,4253,2014-12-14 11:38:58:827
6.5284,-3.4219,-6.0466,6.6807,-3.5572,-6.2358,-0.2002,0.1712,0.1797,-0.0198,0.1669,-0.0601,61.0,-41.04,14.34,6.42,273.28,21.47,-133.67,0.0,41.085,,,,NaN,,,,0 / 0,4303,2014-12-14 11:38:58:877
6.4997,-3.307,-5.8502,6.732,-3.5314,-6.1951,-0.2149,0.2349,0.3603,-0.0198,0.0871,-0.0388,61.0,-40.68,14.4,5.94,271.67,21.27,-133.03,0.0,41.085,,,,NaN,,,,0 / 0,4353,2014-12-14 11:38:58:927
6.7127,-3.3549,-5.9939,6.75,-3.5132,-6.1859,-0.1046,0.239,0.1728,-0.0156,-0.0014,-0.0047,67.0,-41.28,14.1,6.18,271.89,21.03,-132.52,0.0,41.085,,,,NaN,,,,0 / 0,4403,2014-12-14 11:38:58:977
6.7199,-3.4339,-6.1758,6.7461,-3.51,-6.1919,0.0049,0.136,-0.0391,0.0057,-0.0323,0.0102,67.0,-42.12,14.52,5.94,273.53,20.97,-132.55,0.0,41.085,,,,NaN,,,,0 / 0,4453,2014-12-14 11:38:59:027
6.7319,-3.5512,-6.1519,6.7347,-3.5166,-6.2005,0.0235,-0.0561,0.0199,0.0143,-0.028,0.0272,67.0,-41.34,14.4,5.04,273.53,20.97,-132.55,0.0,37.796,,,,NaN,,,,0 / 0,4503,2014-12-14 11:38:59:077
6.5428,-3.5009,-6.128,6.7183,-3.5382,-6.2062,-0.1659,0.0277,0.0687,0.0164,-0.0248,0.0219,67.0,-41.28,13.56,5.58,272.4,21.07,-132.67,0.0,37.796,,,,NaN,,,,0 / 0,4553,2014-12-14 11:38:59:127
6.5428,-3.4363,-6.2165,6.7108,-3.5431,-6.2115,-0.168,0.1068,-0.0051,0.0121,-0.0269,0.0102,67.0,-41.46,13.8,6.0,271.74,21.18,-132.79,0.0,37.796,,,,NaN,,,,0 / 0,4603,2014-12-14 11:38:59:177
6.6696,-3.4052,-6.2692,6.7071,-3.5389,-6.2179,-0.0374,0.1338,-0.0513,-0.0134,0.0189,-0.0015,67.0,-41.52,14.28,5.94,271.11,21.15,-132.83,0.0,37.796,,,,NaN,,,,0 / 0,4653,2014-12-14 11:38:59:227
6.7056,-3.5033,-6.1184,6.7166,-3.5359,-6.2094,-0.0446,0.0398,0.067,4.0E-4,0.0466,0.0123,67.0,-41.34,13.92,5.76,271.11,21.15,-132.83,0.0,37.796,,,,NaN,,,,0 / 0,4703,2014-12-14 11:38:59:277
6.6194,-3.465,-6.1543,6.7241,-3.54,-6.1989,-0.1047,0.075,0.0446,0.0111,-0.0163,0.0123,61.0,-42.3,13.86,5.94,271.05,21.16,-132.67,0.0,37.796,,,,NaN,,,,0 / 0,4753,2014-12-14 11:38:59:327
6.593,-3.4243,-6.1687,6.7114,-3.5472,-6.2086,-0.1184,0.1229,0.04,0.01,-0.0312,0.0134,61.0,-42.0,13.44,6.24,268.8,21.21,-132.77,0.0,37.796,,,,NaN,,,,0 / 0,4803,2014-12-14 11:38:59:377
6.6385,-3.4435,-6.1591,6.7078,-3.5466,-6.2127,-0.0693,0.1031,0.0536,-0.007,0.0093,0.0091,61.0,-42.24,13.38,6.18,268.8,21.21,-132.77,0.0,30.68,,,,NaN,,,,0 / 0,4853,2014-12-14 11:38:59:427
6.6266,-3.5177,-6.1711,6.7089,-3.546,-6.2121,-0.0198,0.0232,0.0941,-0.0124,-0.0046,0.0048,61.0,-42.66,13.32,6.42,268.24,21.2,-132.8,0.0,30.68,,,,NaN,,,,0 / 0,4903,2014-12-14 11:38:59:477
6.6385,-3.4794,-6.2022,6.7069,-3.5455,-6.2143,-0.0684,0.0661,0.0121,-0.0049,-0.0227,0.0027,61.0,-42.12,13.62,5.64,271.04,21.19,-132.82,0.0,30.68,,,,NaN,,,,0 / 0,4953,2014-12-14 11:38:59:527
6.6984,-3.5153,-6.262,6.6994,-3.5437,-6.2234,-0.001,0.0284,-0.0386,4.0E-4,-0.0227,0.0027,61.0,-41.88,13.92,5.4,271.04,21.19,-132.82,0.0,30.68,,,,NaN,,,,0 / 0,5006,2014-12-14 11:38:59:580
6.6409,-3.4722,-6.1663,6.7035,-3.5415,-6.2203,-0.0625,0.0693,0.054,0.0079,0.0178,0.008,69.0,-41.28,13.8,5.04,272.32,21.17,-132.9,0.0,30.68,,,,NaN,,,,0 / 0,5053,2014-12-14 11:38:59:627
6.6385,-3.4339,-6.0681,6.7047,-3.5401,-6.2197,-0.0661,0.1062,0.1516,0.0068,0.0061,0.007,69.0,-41.04,14.76,5.52,274.05,21.16,-132.85,0.0,30.68,,,,NaN,,,,0 / 0,5103,2014-12-14 11:38:59:677
6.6457,-3.5416,-6.128,6.7072,-3.5377,-6.2183,-0.0615,-0.0039,0.0904,0.0025,-0.0173,0.0155,69.0,-41.88,13.92,5.1,274.05,21.16,-132.85,0.0,21.615,,,,NaN,,,,0 / 0,5154,2014-12-14 11:38:59:728
6.696,-3.5416,-6.1471,6.7084,-3.5389,-6.2164,-0.0283,-0.0067,0.0364,0.0047,-0.0195,0.0123,69.0,-41.94,13.98,5.52,271.13,21.15,-132.83,0.0,21.615,,,,NaN,,,,0 / 0,5203,2014-12-14 11:38:59:777
6.6218,-3.4842,-6.2165,6.7045,-3.5395,-6.2203,-0.0827,0.0554,0.0037,0.0025,-0.0067,0.0091,61.0,-41.64,13.86,5.16,271.65,21.16,-132.85,0.0,21.615,,,,NaN,,,,0 / 0,5253,2014-12-14 11:38:59:827
6.6481,-3.4578,-6.2596,6.7036,-3.538,-6.2221,-0.0555,0.0802,-0.0376,0.0025,0.0018,0.0102,61.0,-41.7,14.22,6.06,271.12,21.16,-132.86,0.0,21.615,,,,NaN,,,,0 / 0,5303,2014-12-14 11:38:59:877
6.6625,-3.4411,-6.1519,6.7048,-3.537,-6.2215,-0.0423,0.0959,0.0696,-0.0166,0.0029,0.0038,61.0,-41.64,14.52,6.42,271.12,21.16,-132.86,0.0,21.615,,,,NaN,,,,0 / 0,5353,2014-12-14 11:38:59:927
6.6074,-3.4291,-6.116,6.7075,-3.5353,-6.2195,-0.081,0.056,0.1203,-0.007,-0.0024,-0.0026,61.0,-40.92,14.16,6.0,271.82,21.14,-132.84,0.0,21.615,,,,NaN,,,,0 / 0,5403,2014-12-14 11:38:59:977
6.5715,-3.4626,-6.1375,6.7065,-3.5344,-6.221,-0.1685,0.0646,0.0165,0.0089,0.0114,0.0102,61.0,-40.92,14.76,5.16,274.56,21.13,-132.85,0.0,21.615,,,,NaN,,,,0 / 0,5453,2014-12-14 11:39:00:027
6.7151,-3.6206,-6.0705,6.6898,-3.5359,-6.2382,0.1857,-0.0895,0.2515,-0.023,-0.0376,0.0357,61.0,-42.06,14.16,5.58,274.56,21.13,-132.85,0.0,3.21,,,,NaN,,,,0 / 0,5503,2014-12-14 11:39:00:077
6.5954,-3.398,-6.2788,6.691,-3.5404,-6.2342,0.0025,0.1161,9.0E-4,0.0324,-0.011,-0.0015,61.0,-42.06,14.34,5.82,271.2,21.13,-133.0,0.0,3.21,,,,NaN,,,,0 / 0,5553,2014-12-14 11:39:00:127